images,congruentcy,corrAns,box_pos,box_color,box_x,pract.thisRepN,pract.thisTrialN,pract.thisN,pract.thisIndex,trials.thisRepN,trials.thisTrialN,trials.thisN,trials.thisIndex,trials_2.thisRepN,trials_2.thisTrialN,trials_2.thisN,trials_2.thisIndex,trials_3.thisRepN,trials_3.thisTrialN,trials_3.thisN,trials_3.thisIndex,key_resp_instr.keys,key_resp_instr.rt,FixCross.started,FixCross.stopped,Box_p.started,Box_p.stopped,key_resp_P.keys,key_resp_P.corr,key_resp_P.rt,key_resp_P.started,key_resp_P.stopped,text_3.started,text_3.stopped,key_resp_2.keys,key_resp_2.rt,Box.started,Box.stopped,key_resp.keys,key_resp.corr,key_resp.rt,key_resp.started,key_resp.stopped,key_resp_3.keys,key_resp_3.rt,key_resp_4.keys,key_resp_4.rt,participant,session,date,expName,psychopyVersion,frameRate,
,,,,,,,,,,,,,,,,,,,,,,space,37.69761100000002,,,,,,,,,,,,,,,,,,,,,,,,,10,001,2022_Oct_06_1456,Version4,2021.2.0,239.743187097964,
red_neutral,0,k,middle,red,0,0,0,0,4,,,,,,,,,,,,,,,70.11711829999999,None,71.2473128,None,k,1,1.3026190000000497,71.2473128,None,,,,,,,,,,,,,,,,10,001,2022_Oct_06_1456,Version4,2021.2.0,239.743187097964,
blue_congruent,1,a,left,blue,-0.6,0,1,1,0,,,,,,,,,,,,,,,73.5666947,None,74.5925632,None,a,1,0.429458000000011,74.5925632,None,,,,,,,,,,,,,,,,10,001,2022_Oct_06_1456,Version4,2021.2.0,239.743187097964,
blue_neutral,0,a,middle,blue,0,0,2,2,5,,,,,,,,,,,,,,,76.0400084,None,77.09515569999999,None,a,1,0.5752514000000133,77.09515569999999,None,,,,,,,,,,,,,,,,10,001,2022_Oct_06_1456,Version4,2021.2.0,239.743187097964,
red_congruent,1,k,right,red,0.6,0,3,3,1,,,,,,,,,,,,,,,78.68447290000003,None,79.81886240000003,None,k,1,0.4678708999999799,79.81886240000003,None,,,,,,,,,,,,,,,,10,001,2022_Oct_06_1456,Version4,2021.2.0,239.743187097964,
red_incongruent,0,k,left,red,-0.6,0,4,4,3,,,,,,,,,,,,,,,81.29959970000002,None,82.35914470000003,None,a,0,1.176085100000023,82.35914470000003,None,,,,,,,,,,,,,,,,10,001,2022_Oct_06_1456,Version4,2021.2.0,239.743187097964,
blue_neutral,0,a,middle,blue,0,0,5,5,5,,,,,,,,,,,,,,,84.55321590000003,None,85.75452920000001,None,a,1,0.8691259999999943,85.75452920000001,None,,,,,,,,,,,,,,,,10,001,2022_Oct_06_1456,Version4,2021.2.0,239.743187097964,
red_incongruent,0,k,left,red,-0.6,1,0,6,3,,,,,,,,,,,,,,,87.63993459999998,None,88.71601150000001,None,k,1,0.7961965000000077,88.71601150000001,None,,,,,,,,,,,,,,,,10,001,2022_Oct_06_1456,Version4,2021.2.0,239.743187097964,
red_congruent,1,k,right,red,0.6,1,1,7,1,,,,,,,,,,,,,,,90.53459210000003,None,91.61073560000003,None,k,1,0.6296492000000171,91.61073560000003,None,,,,,,,,,,,,,,,,10,001,2022_Oct_06_1456,Version4,2021.2.0,239.743187097964,
blue_incongruent,0,a,right,blue,0.6,1,2,8,2,,,,,,,,,,,,,,,93.25837900000002,None,94.3050388,None,a,1,0.5120782999999847,94.3050388,None,,,,,,,,,,,,,,,,10,001,2022_Oct_06_1456,Version4,2021.2.0,239.743187097964,
red_neutral,0,k,middle,red,0,1,3,9,4,,,,,,,,,,,,,,,95.83585400000001,None,96.94974850000003,None,k,1,0.5796073000000206,96.94974850000003,None,,,,,,,,,,,,,,,,10,001,2022_Oct_06_1456,Version4,2021.2.0,239.743187097964,
blue_neutral,0,a,middle,blue,0,1,4,10,5,,,,,,,,,,,,,,,98.54736590000002,None,99.71109179999999,None,k,0,0.7704003999999713,99.71109179999999,None,,,,,,,,,,,,,,,,10,001,2022_Oct_06_1456,Version4,2021.2.0,239.743187097964,
red_congruent,1,k,right,red,0.6,1,5,11,1,,,,,,,,,,,,,,,101.50014940000003,None,102.6684756,None,a,0,1.9495807999999784,102.6684756,None,,,,,,,,,,,,,,,,10,001,2022_Oct_06_1456,Version4,2021.2.0,239.743187097964,
red_congruent,1,k,right,red,0.6,2,0,12,1,,,,,,,,,,,,,,,105.63814349999998,None,106.72236710000001,None,k,1,1.1761412000000178,106.72236710000001,None,,,,,,,,,,,,,,,,10,001,2022_Oct_06_1456,Version4,2021.2.0,239.743187097964,
blue_congruent,1,a,left,blue,-0.6,2,1,13,0,,,,,,,,,,,,,,,108.91235609999998,None,110.02608319999999,None,a,1,0.7371401999999989,110.02608319999999,None,,,,,,,,,,,,,,,,10,001,2022_Oct_06_1456,Version4,2021.2.0,239.743187097964,
blue_congruent,1,a,left,blue,-0.6,2,2,14,0,,,,,,,,,,,,,,,111.7863634,None,112.8079913,None,a,1,0.5232323000000179,112.8079913,None,,,,,,,,,,,,,,,,10,001,2022_Oct_06_1456,Version4,2021.2.0,239.743187097964,
blue_incongruent,0,a,right,blue,0.6,2,3,15,2,,,,,,,,,,,,,,,114.351526,None,115.58594719999999,None,a,1,2.129898400000002,115.58594719999999,None,,,,,,,,,,,,,,,,10,001,2022_Oct_06_1456,Version4,2021.2.0,239.743187097964,
red_incongruent,0,k,left,red,-0.6,2,4,16,3,,,,,,,,,,,,,,,118.73094130000001,None,119.91561920000001,None,k,1,0.4488589000000047,119.91561920000001,None,,,,,,,,,,,,,,,,10,001,2022_Oct_06_1456,Version4,2021.2.0,239.743187097964,
blue_congruent,1,a,left,blue,-0.6,2,5,17,0,,,,,,,,,,,,,,,121.38791970000003,None,122.530877,None,a,1,0.8657158999999979,122.530877,None,,,,,,,,,,,,,,,,10,001,2022_Oct_06_1456,Version4,2021.2.0,239.743187097964,
red_neutral,0,k,middle,red,0,3,0,18,4,,,,,,,,,,,,,,,124.4165566,None,125.48393059999998,None,k,1,0.5930328000000031,125.48393059999998,None,,,,,,,,,,,,,,,,10,001,2022_Oct_06_1456,Version4,2021.2.0,239.743187097964,
blue_neutral,0,a,middle,blue,0,3,1,19,5,,,,,,,,,,,,,,,127.093985,None,128.36198650000003,None,a,1,0.6834045999999603,128.36198650000003,None,,,,,,,,,,,,,,,,10,001,2022_Oct_06_1456,Version4,2021.2.0,239.743187097964,
red_neutral,0,k,middle,red,0,3,2,20,4,,,,,,,,,,,,,,,130.0596204,None,131.2984451,None,k,1,0.5155942000000096,131.2984451,None,,,,,,,,,,,,,,,,10,001,2022_Oct_06_1456,Version4,2021.2.0,239.743187097964,
red_incongruent,0,k,left,red,-0.6,3,3,21,3,,,,,,,,,,,,,,,132.83755420000003,None,133.88458620000003,None,k,1,0.4415137999999956,133.88458620000003,None,,,,,,,,,,,,,,,,10,001,2022_Oct_06_1456,Version4,2021.2.0,239.743187097964,
blue_incongruent,0,a,right,blue,0.6,3,4,22,2,,,,,,,,,,,,,,,135.3447429,None,136.4831028,None,k,0,0.49936990000003334,136.4831028,None,,,,,,,,,,,,,,,,10,001,2022_Oct_06_1456,Version4,2021.2.0,239.743187097964,
blue_incongruent,0,a,right,blue,0.6,3,5,23,2,,,,,,,,,,,,,,,138.0013706,None,139.1442537,None,a,1,0.7825940000000173,139.1442537,None,,,,,,,,,,,,,,,,10,001,2022_Oct_06_1456,Version4,2021.2.0,239.743187097964,
,,,,,,,,,,,,,,,,,,,,,,,,,,,,,,,,,140.9629345,None,space,20.537800600000025,,,,,,,,,,,,10,001,2022_Oct_06_1456,Version4,2021.2.0,239.743187097964,
red_incongruent,0,k,left,red,-0.6,,,,,0,0,0,3,,,,,,,,,,,163.5122808,None,,,,,,,,,,,,164.60883220000002,None,k,1,1.8898110999999744,164.60883220000002,None,,,,,10,001,2022_Oct_06_1456,Version4,2021.2.0,239.743187097964,
blue_incongruent,0,a,right,blue,0.6,,,,,0,1,1,2,,,,,,,,,,,166.5152659,None,,,,,,,,,,,,167.6456385,None,a,1,0.6531041000000073,167.6456385,None,,,,,10,001,2022_Oct_06_1456,Version4,2021.2.0,239.743187097964,
blue_neutral,0,a,middle,blue,0,,,,,0,2,2,5,,,,,,,,,,,168.3127003,None,,,,,,,,,,,,169.43938310000001,None,a,1,0.9476419999999735,169.43938310000001,None,,,,,10,001,2022_Oct_06_1456,Version4,2021.2.0,239.743187097964,
blue_congruent,1,a,left,blue,-0.6,,,,,0,3,3,0,,,,,,,,,,,170.3982485,None,,,,,,,,,,,,171.63288550000001,None,a,1,1.6825612999999748,171.63288550000001,None,,,,,10,001,2022_Oct_06_1456,Version4,2021.2.0,239.743187097964,
blue_congruent,1,a,left,blue,-0.6,,,,,0,4,4,0,,,,,,,,,,,173.3306699,None,,,,,,,,,,,,174.36919830000002,None,a,1,0.4584908000000496,174.36919830000002,None,,,,,10,001,2022_Oct_06_1456,Version4,2021.2.0,239.743187097964,
blue_neutral,0,a,middle,blue,0,,,,,0,5,5,5,,,,,,,,,,,174.84462140000002,None,,,,,,,,,,,,176.020877,None,a,1,1.3270749999999794,176.020877,None,,,,,10,001,2022_Oct_06_1456,Version4,2021.2.0,239.743187097964,
blue_incongruent,0,a,right,blue,0.6,,,,,1,0,6,2,,,,,,,,,,,177.3600885,None,,,,,,,,,,,,178.5944406,None,a,1,0.4899825999999621,178.5944406,None,,,,,10,001,2022_Oct_06_1456,Version4,2021.2.0,239.743187097964,
blue_incongruent,0,a,right,blue,0.6,,,,,1,1,7,2,,,,,,,,,,,179.09942479999998,None,,,,,,,,,,,,180.28811220000003,None,a,1,0.6126495000000318,180.28811220000003,None,,,,,10,001,2022_Oct_06_1456,Version4,2021.2.0,239.743187097964,
blue_congruent,1,a,left,blue,-0.6,,,,,1,2,8,0,,,,,,,,,,,180.91376110000002,None,,,,,,,,,,,,182.14820519999998,None,a,1,0.46448970000000145,182.14820519999998,None,,,,,10,001,2022_Oct_06_1456,Version4,2021.2.0,239.743187097964,
red_congruent,1,k,right,red,0.6,,,,,1,3,9,1,,,,,,,,,,,182.62810120000003,None,,,,,,,,,,,,183.75022750000002,None,k,1,0.4546387999999979,183.75022750000002,None,,,,,10,001,2022_Oct_06_1456,Version4,2021.2.0,239.743187097964,
blue_neutral,0,a,middle,blue,0,,,,,1,4,10,5,,,,,,,,,,,184.2130159,None,,,,,,,,,,,,185.46027940000002,None,a,1,0.5771148000000039,185.46027940000002,None,,,,,10,001,2022_Oct_06_1456,Version4,2021.2.0,239.743187097964,
red_congruent,1,k,right,red,0.6,,,,,1,5,11,1,,,,,,,,,,,186.05259850000002,None,,,,,,,,,,,,187.08268540000003,None,k,1,0.46665769999998474,187.08268540000003,None,,,,,10,001,2022_Oct_06_1456,Version4,2021.2.0,239.743187097964,
blue_congruent,1,a,left,blue,-0.6,,,,,2,0,12,0,,,,,,,,,,,187.56642100000002,None,,,,,,,,,,,,188.646786,None,a,1,0.3427422999999976,188.646786,None,,,,,10,001,2022_Oct_06_1456,Version4,2021.2.0,239.743187097964,
red_congruent,1,k,right,red,0.6,,,,,2,1,13,1,,,,,,,,,,,189.00131109999998,None,,,,,,,,,,,,190.0566271,None,k,1,0.5091079000000036,190.0566271,None,,,,,10,001,2022_Oct_06_1456,Version4,2021.2.0,239.743187097964,
red_incongruent,0,k,left,red,-0.6,,,,,2,2,14,3,,,,,,,,,,,190.58213120000002,None,,,,,,,,,,,,191.61241040000002,None,k,1,3.385934899999995,191.61241040000002,None,,,,,10,001,2022_Oct_06_1456,Version4,2021.2.0,239.743187097964,
red_incongruent,0,k,left,red,-0.6,,,,,2,3,15,3,,,,,,,,,,,195.0120019,None,,,,,,,,,,,,196.1047169,None,k,1,0.421808599999963,196.1047169,None,,,,,10,001,2022_Oct_06_1456,Version4,2021.2.0,239.743187097964,
red_neutral,0,k,middle,red,0,,,,,2,4,16,4,,,,,,,,,,,196.5384524,None,,,,,,,,,,,,197.69805720000002,None,k,1,0.44469829999997046,197.69805720000002,None,,,,,10,001,2022_Oct_06_1456,Version4,2021.2.0,239.743187097964,
red_incongruent,0,k,left,red,-0.6,,,,,2,5,17,3,,,,,,,,,,,198.1568296,None,,,,,,,,,,,,199.19541510000002,None,k,1,0.4835724000000141,199.19541510000002,None,,,,,10,001,2022_Oct_06_1456,Version4,2021.2.0,239.743187097964,
red_congruent,1,k,right,red,0.6,,,,,3,0,18,1,,,,,,,,,,,199.6918699,None,,,,,,,,,,,,200.82215720000002,None,k,1,0.4410487000000103,200.82215720000002,None,,,,,10,001,2022_Oct_06_1456,Version4,2021.2.0,239.743187097964,
red_congruent,1,k,right,red,0.6,,,,,3,1,19,1,,,,,,,,,,,201.28129629999998,None,,,,,,,,,,,,202.45304610000002,None,k,1,0.4823656000000369,202.45304610000002,None,,,,,10,001,2022_Oct_06_1456,Version4,2021.2.0,239.743187097964,
blue_incongruent,0,a,right,blue,0.6,,,,,3,2,20,2,,,,,,,,,,,202.9494025,None,,,,,,,,,,,,204.0131446,None,a,1,0.5144774000000325,204.0131446,None,,,,,10,001,2022_Oct_06_1456,Version4,2021.2.0,239.743187097964,
red_incongruent,0,k,left,red,-0.6,,,,,3,3,21,3,,,,,,,,,,,204.54303810000002,None,,,,,,,,,,,,205.5813803,None,k,1,1.7308927999999923,205.5813803,None,,,,,10,001,2022_Oct_06_1456,Version4,2021.2.0,239.743187097964,
red_congruent,1,k,right,red,0.6,,,,,3,4,22,1,,,,,,,,,,,207.3290456,None,,,,,,,,,,,,208.42607990000002,None,k,1,1.734591000000023,208.42607990000002,None,,,,,10,001,2022_Oct_06_1456,Version4,2021.2.0,239.743187097964,
red_neutral,0,k,middle,red,0,,,,,3,5,23,4,,,,,,,,,,,210.17381730000002,None,,,,,,,,,,,,211.2540327,None,k,1,0.458638800000017,211.2540327,None,,,,,10,001,2022_Oct_06_1456,Version4,2021.2.0,239.743187097964,
blue_congruent,1,a,left,blue,-0.6,,,,,4,0,24,0,,,,,,,,,,,211.72535259999998,None,,,,,,,,,,,,212.95584929999998,None,a,1,0.4372597000000269,212.95584929999998,None,,,,,10,001,2022_Oct_06_1456,Version4,2021.2.0,239.743187097964,
blue_congruent,1,a,left,blue,-0.6,,,,,4,1,25,0,,,,,,,,,,,213.4107392,None,,,,,,,,,,,,214.6118615,None,a,1,0.5334651000000008,214.6118615,None,,,,,10,001,2022_Oct_06_1456,Version4,2021.2.0,239.743187097964,
red_congruent,1,k,right,red,0.6,,,,,4,2,26,1,,,,,,,,,,,215.16258589999998,None,,,,,,,,,,,,216.2761096,None,k,1,0.525197100000014,216.2761096,None,,,,,10,001,2022_Oct_06_1456,Version4,2021.2.0,239.743187097964,
blue_neutral,0,a,middle,blue,0,,,,,4,3,27,5,,,,,,,,,,,216.8141479,None,,,,,,,,,,,,217.9319609,None,a,1,0.4855651000000307,217.9319609,None,,,,,10,001,2022_Oct_06_1456,Version4,2021.2.0,239.743187097964,
red_neutral,0,k,middle,red,0,,,,,4,4,28,4,,,,,,,,,,,218.43260130000002,None,,,,,,,,,,,,219.6379168,None,k,1,1.1399311999999782,219.6379168,None,,,,,10,001,2022_Oct_06_1456,Version4,2021.2.0,239.743187097964,
red_incongruent,0,k,left,red,-0.6,,,,,4,5,29,3,,,,,,,,,,,220.789206,None,,,,,,,,,,,,221.9278629,None,k,1,0.8582581000000005,221.9278629,None,,,,,10,001,2022_Oct_06_1456,Version4,2021.2.0,239.743187097964,
red_neutral,0,k,middle,red,0,,,,,5,0,30,4,,,,,,,,,,,222.79985639999998,None,,,,,,,,,,,,223.87157,None,k,1,0.8748118000000318,223.87157,None,,,,,10,001,2022_Oct_06_1456,Version4,2021.2.0,239.743187097964,
red_incongruent,0,k,left,red,-0.6,,,,,5,1,31,3,,,,,,,,,,,224.76005820000003,None,,,,,,,,,,,,225.81956470000003,None,k,1,0.4710162000000082,225.81956470000003,None,,,,,10,001,2022_Oct_06_1456,Version4,2021.2.0,239.743187097964,
blue_neutral,0,a,middle,blue,0,,,,,5,2,32,5,,,,,,,,,,,226.3033543,None,,,,,,,,,,,,227.43788120000002,None,a,1,0.356925399999966,227.43788120000002,None,,,,,10,001,2022_Oct_06_1456,Version4,2021.2.0,239.743187097964,
red_neutral,0,k,middle,red,0,,,,,5,3,33,4,,,,,,,,,,,227.8132709,None,,,,,,,,,,,,228.93111180000002,None,k,1,0.8159342999999808,228.93111180000002,None,,,,,10,001,2022_Oct_06_1456,Version4,2021.2.0,239.743187097964,
blue_neutral,0,a,middle,blue,0,,,,,5,4,34,5,,,,,,,,,,,229.76129060000002,None,,,,,,,,,,,,230.862311,None,a,1,0.7570124999999734,230.862311,None,,,,,10,001,2022_Oct_06_1456,Version4,2021.2.0,239.743187097964,
blue_neutral,0,a,middle,blue,0,,,,,5,5,35,5,,,,,,,,,,,231.63815300000002,None,,,,,,,,,,,,232.70596079999999,None,a,1,0.6336291000000074,232.70596079999999,None,,,,,10,001,2022_Oct_06_1456,Version4,2021.2.0,239.743187097964,
red_incongruent,0,k,left,red,-0.6,,,,,6,0,36,3,,,,,,,,,,,233.3566493,None,,,,,,,,,,,,234.42489530000003,None,k,1,0.49891399999995656,234.42489530000003,None,,,,,10,001,2022_Oct_06_1456,Version4,2021.2.0,239.743187097964,
blue_incongruent,0,a,right,blue,0.6,,,,,6,1,37,2,,,,,,,,,,,234.94165060000003,None,,,,,,,,,,,,236.19297759999998,None,a,1,0.8350828999999749,236.19297759999998,None,,,,,10,001,2022_Oct_06_1456,Version4,2021.2.0,239.743187097964,
blue_incongruent,0,a,right,blue,0.6,,,,,6,2,38,2,,,,,,,,,,,237.03972130000002,None,,,,,,,,,,,,238.1328981,None,a,1,0.5917370999999889,238.1328981,None,,,,,10,001,2022_Oct_06_1456,Version4,2021.2.0,239.743187097964,
blue_incongruent,0,a,right,blue,0.6,,,,,6,3,39,2,,,,,,,,,,,238.7419108,None,,,,,,,,,,,,239.84685499999998,None,a,1,0.5576494000000025,239.84685499999998,None,,,,,10,001,2022_Oct_06_1456,Version4,2021.2.0,239.743187097964,
blue_incongruent,0,a,right,blue,0.6,,,,,6,4,40,2,,,,,,,,,,,240.4182903,None,,,,,,,,,,,,241.66544990000003,None,a,1,0.5794040999999766,241.66544990000003,None,,,,,10,001,2022_Oct_06_1456,Version4,2021.2.0,239.743187097964,
blue_neutral,0,a,middle,blue,0,,,,,6,5,41,5,,,,,,,,,,,242.262103,None,,,,,,,,,,,,243.35059350000003,None,a,1,0.5343659999999772,243.35059350000003,None,,,,,10,001,2022_Oct_06_1456,Version4,2021.2.0,239.743187097964,
red_neutral,0,k,middle,red,0,,,,,7,0,42,4,,,,,,,,,,,243.89699600000003,None,,,,,,,,,,,,244.92724239999998,None,k,1,1.3980682000000115,244.92724239999998,None,,,,,10,001,2022_Oct_06_1456,Version4,2021.2.0,239.743187097964,
blue_congruent,1,a,left,blue,-0.6,,,,,7,1,43,0,,,,,,,,,,,246.34125550000002,None,,,,,,,,,,,,247.44659,None,a,1,0.45497249999999667,247.44659,None,,,,,10,001,2022_Oct_06_1456,Version4,2021.2.0,239.743187097964,
blue_congruent,1,a,left,blue,-0.6,,,,,7,2,44,0,,,,,,,,,,,247.91792180000002,None,,,,,,,,,,,,249.00658159999998,None,a,1,1.3512835000000223,249.00658159999998,None,,,,,10,001,2022_Oct_06_1456,Version4,2021.2.0,239.743187097964,
red_neutral,0,k,middle,red,0,,,,,7,3,45,4,,,,,,,,,,,250.37060340000002,None,,,,,,,,,,,,251.4300221,None,k,1,0.3120248000000174,251.4300221,None,,,,,10,001,2022_Oct_06_1456,Version4,2021.2.0,239.743187097964,
red_congruent,1,k,right,red,0.6,,,,,7,4,46,1,,,,,,,,,,,251.7553225,None,,,,,,,,,,,,252.84812689999998,None,k,1,0.414142800000036,252.84812689999998,None,,,,,10,001,2022_Oct_06_1456,Version4,2021.2.0,239.743187097964,
red_neutral,0,k,middle,red,0,,,,,7,5,47,4,,,,,,,,,,,253.28200339999998,None,,,,,,,,,,,,254.37902549999998,None,k,1,1.2515900999999872,254.37902549999998,None,,,,,10,001,2022_Oct_06_1456,Version4,2021.2.0,239.743187097964,
,,,,,,,,,,,,,,,,,,,,,,,,,,,,,,,,,,,,,,,,,,,,space,6.0074571000000105,,,10,001,2022_Oct_06_1456,Version4,2021.2.0,239.743187097964,
red_congruent,1,k,right,red,0.6,,,,,,,,,0,0,0,1,,,,,,,261.69504140000004,None,,,,,,,,,,,,262.7669916,None,k,1,4.289146200000005,262.7669916,None,,,,,10,001,2022_Oct_06_1456,Version4,2021.2.0,239.743187097964,
red_neutral,0,k,middle,red,0,,,,,,,,,0,1,1,4,,,,,,,267.0676314,None,,,,,,,,,,,,268.16864580000004,None,k,1,0.41602219999998624,268.16864580000004,None,,,,,10,001,2022_Oct_06_1456,Version4,2021.2.0,239.743187097964,
red_congruent,1,k,right,red,0.6,,,,,,,,,0,2,2,1,,,,,,,268.60253739999996,None,,,,,,,,,,,,269.7455202,None,k,1,0.39927970000002233,269.7455202,None,,,,,10,001,2022_Oct_06_1456,Version4,2021.2.0,239.743187097964,
blue_incongruent,0,a,right,blue,0.6,,,,,,,,,0,3,3,2,,,,,,,270.15849060000005,None,,,,,,,,,,,,271.2721335,None,a,1,0.49662209999996776,271.2721335,None,,,,,10,001,2022_Oct_06_1456,Version4,2021.2.0,239.743187097964,
red_congruent,1,k,right,red,0.6,,,,,,,,,0,4,4,1,,,,,,,271.7809075,None,,,,,,,,,,,,272.8404584,None,k,1,0.42452049999997143,272.8404584,None,,,,,10,001,2022_Oct_06_1456,Version4,2021.2.0,239.743187097964,
blue_congruent,1,a,left,blue,-0.6,,,,,,,,,0,5,5,0,,,,,,,273.28232319999995,None,,,,,,,,,,,,274.3710581,None,a,1,0.5025881000000254,274.3710581,None,,,,,10,001,2022_Oct_06_1456,Version4,2021.2.0,239.743187097964,
red_neutral,0,k,middle,red,0,,,,,,,,,1,0,6,4,,,,,,,274.8883459,None,,,,,,,,,,,,276.01050169999996,None,k,1,0.4869530999999938,276.01050169999996,None,,,,,10,001,2022_Oct_06_1456,Version4,2021.2.0,239.743187097964,
blue_neutral,0,a,middle,blue,0,,,,,,,,,1,1,7,5,,,,,,,276.51097100000004,None,,,,,,,,,,,,277.7039039,None,a,1,0.3699836999999775,277.7039039,None,,,,,10,001,2022_Oct_06_1456,Version4,2021.2.0,239.743187097964,
red_congruent,1,k,right,red,0.6,,,,,,,,,1,2,8,1,,,,,,,278.08756370000003,None,,,,,,,,,,,,279.297106,None,k,1,0.42503970000001345,279.297106,None,,,,,10,001,2022_Oct_06_1456,Version4,2021.2.0,239.743187097964,
blue_congruent,1,a,left,blue,-0.6,,,,,,,,,1,3,9,0,,,,,,,279.73932579999996,None,,,,,,,,,,,,280.7822138,None,a,1,0.37988599999999906,280.7822138,None,,,,,10,001,2022_Oct_06_1456,Version4,2021.2.0,239.743187097964,
red_neutral,0,k,middle,red,0,,,,,,,,,1,4,10,4,,,,,,,281.17418150000003,None,,,,,,,,,,,,282.23792820000006,None,k,1,0.9483969999999999,282.23792820000006,None,,,,,10,001,2022_Oct_06_1456,Version4,2021.2.0,239.743187097964,
red_neutral,0,k,middle,red,0,,,,,,,,,1,5,11,4,,,,,,,283.20560220000004,None,,,,,,,,,,,,284.2607027,None,k,1,0.9178761000000009,284.2607027,None,,,,,10,001,2022_Oct_06_1456,Version4,2021.2.0,239.743187097964,
red_incongruent,0,k,left,red,-0.6,,,,,,,,,2,0,12,3,,,,,,,285.191013,None,,,,,,,,,,,,286.3045392,None,k,1,0.490594700000031,286.3045392,None,,,,,10,001,2022_Oct_06_1456,Version4,2021.2.0,239.743187097964,
blue_incongruent,0,a,right,blue,0.6,,,,,,,,,2,1,13,2,,,,,,,286.8135615,None,,,,,,,,,,,,287.98539489999996,None,a,1,0.9057013999999981,287.98539489999996,None,,,,,10,001,2022_Oct_06_1456,Version4,2021.2.0,239.743187097964,
blue_incongruent,0,a,right,blue,0.6,,,,,,,,,2,2,14,2,,,,,,,288.90258500000004,None,,,,,,,,,,,,290.0250528,None,a,1,0.4983537999999612,290.0250528,None,,,,,10,001,2022_Oct_06_1456,Version4,2021.2.0,239.743187097964,
blue_incongruent,0,a,right,blue,0.6,,,,,,,,,2,3,15,2,,,,,,,290.5381717,None,,,,,,,,,,,,291.6187499,None,a,1,0.36077889999995705,291.6187499,None,,,,,10,001,2022_Oct_06_1456,Version4,2021.2.0,239.743187097964,
blue_congruent,1,a,left,blue,-0.6,,,,,,,,,2,4,16,0,,,,,,,291.9938142,None,,,,,,,,,,,,293.1241844,None,a,1,0.43155519999999115,293.1241844,None,,,,,10,001,2022_Oct_06_1456,Version4,2021.2.0,239.743187097964,
red_congruent,1,k,right,red,0.6,,,,,,,,,2,5,17,1,,,,,,,293.5748877,None,,,,,,,,,,,,294.67173130000003,None,k,1,0.6602449000000092,294.67173130000003,None,,,,,10,001,2022_Oct_06_1456,Version4,2021.2.0,239.743187097964,
blue_congruent,1,a,left,blue,-0.6,,,,,,,,,3,0,18,0,,,,,,,295.347704,None,,,,,,,,,,,,296.49448559999996,None,a,1,0.4056962000000226,296.49448559999996,None,,,,,10,001,2022_Oct_06_1456,Version4,2021.2.0,239.743187097964,
blue_neutral,0,a,middle,blue,0,,,,,,,,,3,1,19,5,,,,,,,296.9156925,None,,,,,,,,,,,,298.02102990000003,None,a,1,0.43936359999997876,298.02102990000003,None,,,,,10,001,2022_Oct_06_1456,Version4,2021.2.0,239.743187097964,
blue_neutral,0,a,middle,blue,0,,,,,,,,,3,2,20,5,,,,,,,298.47150510000006,None,,,,,,,,,,,,299.64359449999995,None,a,1,0.36901130000001103,299.64359449999995,None,,,,,10,001,2022_Oct_06_1456,Version4,2021.2.0,239.743187097964,
blue_incongruent,0,a,right,blue,0.6,,,,,,,,,3,3,21,2,,,,,,,300.027386,None,,,,,,,,,,,,301.19940199999996,None,a,1,0.4935042999999837,301.19940199999996,None,,,,,10,001,2022_Oct_06_1456,Version4,2021.2.0,239.743187097964,
red_incongruent,0,k,left,red,-0.6,,,,,,,,,3,4,22,3,,,,,,,301.7126383,None,,,,,,,,,,,,302.7635748,None,k,1,0.41748649999999543,302.7635748,None,,,,,10,001,2022_Oct_06_1456,Version4,2021.2.0,239.743187097964,
blue_neutral,0,a,middle,blue,0,,,,,,,,,3,5,23,5,,,,,,,303.19752730000005,None,,,,,,,,,,,,304.2527179,None,a,1,0.4005390000000375,304.2527179,None,,,,,10,001,2022_Oct_06_1456,Version4,2021.2.0,239.743187097964,
red_congruent,1,k,right,red,0.6,,,,,,,,,4,0,24,1,,,,,,,304.6651247,None,,,,,,,,,,,,305.7918608,None,k,1,0.38959169999998267,305.7918608,None,,,,,10,001,2022_Oct_06_1456,Version4,2021.2.0,239.743187097964,
red_incongruent,0,k,left,red,-0.6,,,,,,,,,4,1,25,3,,,,,,,306.20053459999997,None,,,,,,,,,,,,307.3518391,None,k,1,0.46984259999999267,307.3518391,None,,,,,10,001,2022_Oct_06_1456,Version4,2021.2.0,239.743187097964,
blue_congruent,1,a,left,blue,-0.6,,,,,,,,,4,2,26,0,,,,,,,307.83979250000004,None,,,,,,,,,,,,309.04939790000003,None,a,1,0.37249300000001995,309.04939790000003,None,,,,,10,001,2022_Oct_06_1456,Version4,2021.2.0,239.743187097964,
red_neutral,0,k,middle,red,0,,,,,,,,,4,3,27,4,,,,,,,309.4376946,None,,,,,,,,,,,,310.6010308,None,k,1,0.3970564999999624,310.6010308,None,,,,,10,001,2022_Oct_06_1456,Version4,2021.2.0,239.743187097964,
blue_congruent,1,a,left,blue,-0.6,,,,,,,,,4,4,28,0,,,,,,,311.0097981,None,,,,,,,,,,,,312.10679560000005,None,a,1,0.44353179999995973,312.10679560000005,None,,,,,10,001,2022_Oct_06_1456,Version4,2021.2.0,239.743187097964,
blue_congruent,1,a,left,blue,-0.6,,,,,,,,,4,5,29,0,,,,,,,312.56152899999995,None,,,,,,,,,,,,313.6501802,None,a,1,0.3803184999999871,313.6501802,None,,,,,10,001,2022_Oct_06_1456,Version4,2021.2.0,239.743187097964,
red_incongruent,0,k,left,red,-0.6,,,,,,,,,5,0,30,3,,,,,,,314.04218190000006,None,,,,,,,,,,,,315.1935046,None,k,1,0.581249200000002,315.1935046,None,,,,,10,001,2022_Oct_06_1456,Version4,2021.2.0,239.743187097964,
blue_congruent,1,a,left,blue,-0.6,,,,,,,,,5,1,31,0,,,,,,,315.7860416,None,,,,,,,,,,,,316.93283429999997,None,a,1,0.5301433000000202,316.93283429999997,None,,,,,10,001,2022_Oct_06_1456,Version4,2021.2.0,239.743187097964,
blue_neutral,0,a,middle,blue,0,,,,,,,,,5,2,32,5,,,,,,,317.4752863,None,,,,,,,,,,,,318.6512424,None,a,1,0.50797730000005,318.6512424,None,,,,,10,001,2022_Oct_06_1456,Version4,2021.2.0,239.743187097964,
blue_incongruent,0,a,right,blue,0.6,,,,,,,,,5,3,33,2,,,,,,,319.1729435,None,,,,,,,,,,,,320.2404276,None,a,1,0.46298879999994824,320.2404276,None,,,,,10,001,2022_Oct_06_1456,Version4,2021.2.0,239.743187097964,
red_incongruent,0,k,left,red,-0.6,,,,,,,,,5,4,34,3,,,,,,,320.7159222,None,,,,,,,,,,,,321.83378819999996,None,k,1,0.509854599999926,321.83378819999996,None,,,,,10,001,2022_Oct_06_1456,Version4,2021.2.0,239.743187097964,
red_congruent,1,k,right,red,0.6,,,,,,,,,5,5,35,1,,,,,,,322.35933879999993,None,,,,,,,,,,,,323.53983589999996,None,k,1,3.5805052000000614,323.53983589999996,None,,,,,10,001,2022_Oct_06_1456,Version4,2021.2.0,239.743187097964,
red_neutral,0,k,middle,red,0,,,,,,,,,6,0,36,4,,,,,,,327.1352352,None,,,,,,,,,,,,328.34485259999997,None,k,1,0.4636644999999362,328.34485259999997,None,,,,,10,001,2022_Oct_06_1456,Version4,2021.2.0,239.743187097964,
red_incongruent,0,k,left,red,-0.6,,,,,,,,,6,1,37,3,,,,,,,328.82037189999994,None,,,,,,,,,,,,329.875711,None,k,1,0.4530248999999458,329.875711,None,,,,,10,001,2022_Oct_06_1456,Version4,2021.2.0,239.743187097964,
blue_neutral,0,a,middle,blue,0,,,,,,,,,6,2,38,5,,,,,,,330.34281769999996,None,,,,,,,,,,,,331.3688948,None,a,1,0.5200544000000491,331.3688948,None,,,,,10,001,2022_Oct_06_1456,Version4,2021.2.0,239.743187097964,
blue_neutral,0,a,middle,blue,0,,,,,,,,,6,3,39,5,,,,,,,331.902964,None,,,,,,,,,,,,333.0832116,None,a,1,0.3419675999999754,333.0832116,None,,,,,10,001,2022_Oct_06_1456,Version4,2021.2.0,239.743187097964,
red_incongruent,0,k,left,red,-0.6,,,,,,,,,6,4,40,3,,,,,,,333.44199530000003,None,,,,,,,,,,,,334.53475259999993,None,k,1,0.3786169999999629,334.53475259999993,None,,,,,10,001,2022_Oct_06_1456,Version4,2021.2.0,239.743187097964,
red_incongruent,0,k,left,red,-0.6,,,,,,,,,6,5,41,3,,,,,,,334.92681189999996,None,,,,,,,,,,,,336.002963,None,k,1,0.4065847000000531,336.002963,None,,,,,10,001,2022_Oct_06_1456,Version4,2021.2.0,239.743187097964,
red_congruent,1,k,right,red,0.6,,,,,,,,,7,0,42,1,,,,,,,336.428405,None,,,,,,,,,,,,337.5380053,None,k,1,0.3757572000000664,337.5380053,None,,,,,10,001,2022_Oct_06_1456,Version4,2021.2.0,239.743187097964,
red_neutral,0,k,middle,red,0,,,,,,,,,7,1,43,4,,,,,,,337.93028619999995,None,,,,,,,,,,,,339.0940604,None,k,1,0.3403149000000667,339.0940604,None,,,,,10,001,2022_Oct_06_1456,Version4,2021.2.0,239.743187097964,
red_neutral,0,k,middle,red,0,,,,,,,,,7,2,44,4,,,,,,,339.4528908,None,,,,,,,,,,,,340.53278019999993,None,k,1,0.35745680000002267,340.53278019999993,None,,,,,10,001,2022_Oct_06_1456,Version4,2021.2.0,239.743187097964,
blue_incongruent,0,a,right,blue,0.6,,,,,,,,,7,3,45,2,,,,,,,340.90427569999997,None,,,,,,,,,,,,341.9551133,None,a,1,0.415553100000011,341.9551133,None,,,,,10,001,2022_Oct_06_1456,Version4,2021.2.0,239.743187097964,
blue_incongruent,0,a,right,blue,0.6,,,,,,,,,7,4,46,2,,,,,,,342.38500369999997,None,,,,,,,,,,,,343.4319497,None,a,1,0.4749848999999813,343.4319497,None,,,,,10,001,2022_Oct_06_1456,Version4,2021.2.0,239.743187097964,
blue_neutral,0,a,middle,blue,0,,,,,,,,,7,5,47,5,,,,,,,343.9241018,None,,,,,,,,,,,,345.0209449,None,a,1,0.39784159999999247,345.0209449,None,,,,,10,001,2022_Oct_06_1456,Version4,2021.2.0,239.743187097964,
,,,,,,,,,,,,,,,,,,,,,,,,,,,,,,,,,,,,,,,,,,,,space,5.040601599999945,,,10,001,2022_Oct_06_1456,Version4,2021.2.0,239.743187097964,
red_neutral,0,k,middle,red,0,,,,,,,,,,,,,0,0,0,4,,,350.514219,None,,,,,,,,,,,,351.6278841999999,None,k,1,0.743898300000069,351.6278841999999,None,,,,,10,001,2022_Oct_06_1456,Version4,2021.2.0,239.743187097964,
blue_congruent,1,a,left,blue,-0.6,,,,,,,,,,,,,0,1,1,0,,,352.38732719999996,None,,,,,,,,,,,,353.52990309999996,None,a,1,0.3940978000000541,353.52990309999996,None,,,,,10,001,2022_Oct_06_1456,Version4,2021.2.0,239.743187097964,
blue_congruent,1,a,left,blue,-0.6,,,,,,,,,,,,,0,2,2,0,,,353.93868069999996,None,,,,,,,,,,,,355.18162169999994,None,a,1,0.3669810999999754,355.18162169999994,None,,,,,10,001,2022_Oct_06_1456,Version4,2021.2.0,239.743187097964,
red_incongruent,0,k,left,red,-0.6,,,,,,,,,,,,,0,3,3,3,,,355.565566,None,,,,,,,,,,,,356.6835118,None,k,1,0.46521260000008624,356.6835118,None,,,,,10,001,2022_Oct_06_1456,Version4,2021.2.0,239.743187097964,
red_congruent,1,k,right,red,0.6,,,,,,,,,,,,,0,4,4,1,,,357.16305739999996,None,,,,,,,,,,,,358.3977785999999,None,k,1,0.39099640000006275,358.3977785999999,None,,,,,10,001,2022_Oct_06_1456,Version4,2021.2.0,239.743187097964,
red_incongruent,0,k,left,red,-0.6,,,,,,,,,,,,,0,5,5,3,,,358.80647079999994,None,,,,,,,,,,,,359.87411209999993,None,k,1,0.38689450000003944,359.87411209999993,None,,,,,10,001,2022_Oct_06_1456,Version4,2021.2.0,239.743187097964,
red_incongruent,0,k,left,red,-0.6,,,,,,,,,,,,,1,0,6,3,,,360.27887350000003,None,,,,,,,,,,,,361.40074930000003,None,k,1,0.35631609999995817,361.40074930000003,None,,,,,10,001,2022_Oct_06_1456,Version4,2021.2.0,239.743187097964,
red_congruent,1,k,right,red,0.6,,,,,,,,,,,,,1,1,7,1,,,361.77204789999996,None,,,,,,,,,,,,362.83560779999993,None,k,1,1.2017415000000256,362.83560779999993,None,,,,,10,001,2022_Oct_06_1456,Version4,2021.2.0,239.743187097964,
blue_incongruent,0,a,right,blue,0.6,,,,,,,,,,,,,1,2,8,2,,,364.05353979999995,None,,,,,,,,,,,,365.08797949999996,None,a,1,0.4695518999999422,365.08797949999996,None,,,,,10,001,2022_Oct_06_1456,Version4,2021.2.0,239.743187097964,
blue_neutral,0,a,middle,blue,0,,,,,,,,,,,,,1,3,9,5,,,365.57206899999994,None,,,,,,,,,,,,366.7397347,None,a,1,0.33000170000002527,366.7397347,None,,,,,10,001,2022_Oct_06_1456,Version4,2021.2.0,239.743187097964,
blue_congruent,1,a,left,blue,-0.6,,,,,,,,,,,,,1,4,10,0,,,367.0860772,None,,,,,,,,,,,,368.17049729999997,None,a,1,0.419490699999983,368.17049729999997,None,,,,,10,001,2022_Oct_06_1456,Version4,2021.2.0,239.743187097964,
blue_incongruent,0,a,right,blue,0.6,,,,,,,,,,,,,1,5,11,2,,,368.6043007999999,None,,,,,,,,,,,,369.6889805999999,None,a,1,0.357409700000062,369.6889805999999,None,,,,,10,001,2022_Oct_06_1456,Version4,2021.2.0,239.743187097964,
red_incongruent,0,k,left,red,-0.6,,,,,,,,,,,,,2,0,12,3,,,370.0643672,None,,,,,,,,,,,,371.1819227,None,k,1,0.47240740000006554,371.1819227,None,,,,,10,001,2022_Oct_06_1456,Version4,2021.2.0,239.743187097964,
blue_incongruent,0,a,right,blue,0.6,,,,,,,,,,,,,2,1,13,2,,,371.6657645,None,,,,,,,,,,,,372.746165,None,k,0,0.40440769999997883,372.746165,None,,,,,10,001,2022_Oct_06_1456,Version4,2021.2.0,239.743187097964,
red_incongruent,0,k,left,red,-0.6,,,,,,,,,,,,,2,2,14,3,,,373.1673703,None,,,,,,,,,,,,374.29772159999993,None,k,1,1.1651399999999512,374.29772159999993,None,,,,,10,001,2022_Oct_06_1456,Version4,2021.2.0,239.743187097964,
red_congruent,1,k,right,red,0.6,,,,,,,,,,,,,2,3,15,1,,,375.4739694,None,,,,,,,,,,,,376.61724989999993,None,k,1,0.48583989999997357,376.61724989999993,None,,,,,10,001,2022_Oct_06_1456,Version4,2021.2.0,239.743187097964,
blue_neutral,0,a,middle,blue,0,,,,,,,,,,,,,2,4,16,5,,,377.1176375,None,,,,,,,,,,,,378.26024829999994,None,a,1,0.30702560000008816,378.26024829999994,None,,,,,10,001,2022_Oct_06_1456,Version4,2021.2.0,239.743187097964,
blue_neutral,0,a,middle,blue,0,,,,,,,,,,,,,2,5,17,5,,,378.5815145,None,,,,,,,,,,,,379.7451702999999,None,a,1,0.29430420000005597,379.7451702999999,None,,,,,10,001,2022_Oct_06_1456,Version4,2021.2.0,239.743187097964,
blue_congruent,1,a,left,blue,-0.6,,,,,,,,,,,,,3,0,18,0,,,380.0538328,None,,,,,,,,,,,,381.12163269999996,None,a,1,0.49414809999996123,381.12163269999996,None,,,,,10,001,2022_Oct_06_1456,Version4,2021.2.0,239.743187097964,
red_congruent,1,k,right,red,0.6,,,,,,,,,,,,,3,1,19,1,,,381.6306628,None,,,,,,,,,,,,382.7441797,None,k,1,0.45573239999998805,382.7441797,None,,,,,10,001,2022_Oct_06_1456,Version4,2021.2.0,239.743187097964,
blue_incongruent,0,a,right,blue,0.6,,,,,,,,,,,,,3,2,20,2,,,383.21551639999996,None,,,,,,,,,,,,384.3334429,None,a,1,0.45870270000000346,384.3334429,None,,,,,10,001,2022_Oct_06_1456,Version4,2021.2.0,239.743187097964,
red_congruent,1,k,right,red,0.6,,,,,,,,,,,,,3,3,21,1,,,384.8088680999999,None,,,,,,,,,,,,385.96841459999996,None,k,1,0.43193159999998443,385.96841459999996,None,,,,,10,001,2022_Oct_06_1456,Version4,2021.2.0,239.743187097964,
blue_incongruent,0,a,right,blue,0.6,,,,,,,,,,,,,3,4,22,2,,,386.41918209999994,None,,,,,,,,,,,,387.5284296,None,a,1,0.4001124000000118,387.5284296,None,,,,,10,001,2022_Oct_06_1456,Version4,2021.2.0,239.743187097964,
red_incongruent,0,k,left,red,-0.6,,,,,,,,,,,,,3,5,23,3,,,387.94139499999994,None,,,,,,,,,,,,389.0466921,None,k,1,0.4981599999999844,389.0466921,None,,,,,10,001,2022_Oct_06_1456,Version4,2021.2.0,239.743187097964,
blue_neutral,0,a,middle,blue,0,,,,,,,,,,,,,4,0,24,5,,,389.5597957,None,,,,,,,,,,,,390.6233615,None,a,1,0.45791540000004716,390.6233615,None,,,,,10,001,2022_Oct_06_1456,Version4,2021.2.0,239.743187097964,
blue_neutral,0,a,middle,blue,0,,,,,,,,,,,,,4,1,25,5,,,391.0948975,None,,,,,,,,,,,,392.1709065,None,a,1,1.1263912999999093,392.1709065,None,,,,,10,001,2022_Oct_06_1456,Version4,2021.2.0,239.743187097964,
red_neutral,0,k,middle,red,0,,,,,,,,,,,,,4,2,26,4,,,393.31372239999996,None,,,,,,,,,,,,394.41488879999997,None,k,1,0.48260430000004817,394.41488879999997,None,,,,,10,001,2022_Oct_06_1456,Version4,2021.2.0,239.743187097964,
red_neutral,0,k,middle,red,0,,,,,,,,,,,,,4,3,27,4,,,394.9112893,None,,,,,,,,,,,,396.04170139999997,None,k,1,0.4322754999999461,396.04170139999997,None,,,,,10,001,2022_Oct_06_1456,Version4,2021.2.0,239.743187097964,
red_neutral,0,k,middle,red,0,,,,,,,,,,,,,4,4,28,4,,,396.4921028,None,,,,,,,,,,,,397.68508599999996,None,k,1,0.34109460000001945,397.68508599999996,None,,,,,10,001,2022_Oct_06_1456,Version4,2021.2.0,239.743187097964,
red_congruent,1,k,right,red,0.6,,,,,,,,,,,,,4,5,29,1,,,398.0439818,None,,,,,,,,,,,,399.24092129999997,None,k,1,0.4012278000000151,399.24092129999997,None,,,,,10,001,2022_Oct_06_1456,Version4,2021.2.0,239.743187097964,
red_congruent,1,k,right,red,0.6,,,,,,,,,,,,,5,0,30,1,,,399.6583376,None,,,,,,,,,,,,400.8426097,None,k,1,0.3201429000000644,400.8426097,None,,,,,10,001,2022_Oct_06_1456,Version4,2021.2.0,239.743187097964,
red_neutral,0,k,middle,red,0,,,,,,,,,,,,,5,1,31,4,,,401.1806169,None,,,,,,,,,,,,402.22734589999993,None,k,1,0.3194406999999728,402.22734589999993,None,,,,,10,001,2022_Oct_06_1456,Version4,2021.2.0,239.743187097964,
blue_neutral,0,a,middle,blue,0,,,,,,,,,,,,,5,2,32,5,,,402.561276,None,,,,,,,,,,,,403.72065799999996,None,a,1,0.4502455999999029,403.72065799999996,None,,,,,10,001,2022_Oct_06_1456,Version4,2021.2.0,239.743187097964,
red_neutral,0,k,middle,red,0,,,,,,,,,,,,,5,3,33,4,,,404.183576,None,,,,,,,,,,,,405.2722337,None,k,1,0.4027707999999848,405.2722337,None,,,,,10,001,2022_Oct_06_1456,Version4,2021.2.0,239.743187097964,
red_incongruent,0,k,left,red,-0.6,,,,,,,,,,,,,5,4,34,3,,,405.6851786,None,,,,,,,,,,,,406.8911759,None,k,1,3.448539299999993,406.8911759,None,,,,,10,001,2022_Oct_06_1456,Version4,2021.2.0,239.743187097964,
red_neutral,0,k,middle,red,0,,,,,,,,,,,,,5,5,35,4,,,410.35302049999996,None,,,,,,,,,,,,411.44126229999995,None,k,1,0.4747883999999658,411.44126229999995,None,,,,,10,001,2022_Oct_06_1456,Version4,2021.2.0,239.743187097964,
red_congruent,1,k,right,red,0.6,,,,,,,,,,,,,6,0,36,1,,,411.9334775,None,,,,,,,,,,,,412.9595402,None,k,1,0.34846970000000965,412.9595402,None,,,,,10,001,2022_Oct_06_1456,Version4,2021.2.0,239.743187097964,
blue_congruent,1,a,left,blue,-0.6,,,,,,,,,,,,,6,1,37,0,,,413.3265895999999,None,,,,,,,,,,,,414.47365,None,a,1,0.42657789999998386,414.47365,None,,,,,10,001,2022_Oct_06_1456,Version4,2021.2.0,239.743187097964,
blue_congruent,1,a,left,blue,-0.6,,,,,,,,,,,,,6,2,38,0,,,414.91180569999995,None,,,,,,,,,,,,416.0295454999999,None,a,1,0.37503860000003897,416.0295454999999,None,,,,,10,001,2022_Oct_06_1456,Version4,2021.2.0,239.743187097964,
blue_incongruent,0,a,right,blue,0.6,,,,,,,,,,,,,6,3,39,2,,,416.42183279999995,None,,,,,,,,,,,,417.5063242,None,a,1,0.5945808999999826,417.5063242,None,,,,,10,001,2022_Oct_06_1456,Version4,2021.2.0,239.743187097964,
blue_neutral,0,a,middle,blue,0,,,,,,,,,,,,,6,4,40,5,,,418.1153448,None,,,,,,,,,,,,419.2040115,None,a,1,0.41703099999995175,419.2040115,None,,,,,10,001,2022_Oct_06_1456,Version4,2021.2.0,239.743187097964,
blue_incongruent,0,a,right,blue,0.6,,,,,,,,,,,,,6,5,41,2,,,419.63790599999993,None,,,,,,,,,,,,420.77235829999995,None,a,1,0.4887125999999853,420.77235829999995,None,,,,,10,001,2022_Oct_06_1456,Version4,2021.2.0,239.743187097964,
blue_congruent,1,a,left,blue,-0.6,,,,,,,,,,,,,7,0,42,0,,,421.27277819999995,None,,,,,,,,,,,,422.33235809999996,None,a,1,0.40117429999997967,422.33235809999996,None,,,,,10,001,2022_Oct_06_1456,Version4,2021.2.0,239.743187097964,
red_incongruent,0,k,left,red,-0.6,,,,,,,,,,,,,7,1,43,3,,,422.7493271999999,None,,,,,,,,,,,,423.7963198,None,k,1,0.969284299999913,423.7963198,None,,,,,10,001,2022_Oct_06_1456,Version4,2021.2.0,239.743187097964,
red_neutral,0,k,middle,red,0,,,,,,,,,,,,,7,2,44,4,,,424.7805781999999,None,,,,,,,,,,,,425.8443267,None,k,1,0.6094365000000153,425.8443267,None,,,,,10,001,2022_Oct_06_1456,Version4,2021.2.0,239.743187097964,
blue_incongruent,0,a,right,blue,0.6,,,,,,,,,,,,,7,3,45,2,,,426.46578,None,,,,,,,,,,,,427.51271009999994,None,a,1,0.34955060000004323,427.51271009999994,None,,,,,10,001,2022_Oct_06_1456,Version4,2021.2.0,239.743187097964,
blue_congruent,1,a,left,blue,-0.6,,,,,,,,,,,,,7,4,46,0,,,427.8712158999999,None,,,,,,,,,,,,428.90980949999994,None,a,1,0.44841299999995954,428.90980949999994,None,,,,,10,001,2022_Oct_06_1456,Version4,2021.2.0,239.743187097964,
blue_neutral,0,a,middle,blue,0,,,,,,,,,,,,,7,5,47,5,,,429.372801,None,,,,,,,,,,,,430.51150169999994,None,a,1,0.45494769999993423,430.51150169999994,None,,,,,10,001,2022_Oct_06_1456,Version4,2021.2.0,239.743187097964,
,,,,,,,,,,,,,,,,,,,,,,,,,,,,,,,,,,,,,,,,,,,,space,5.884127600000056,,,10,001,2022_Oct_06_1456,Version4,2021.2.0,239.743187097964,
,,,,,,,,,,,,,,,,,,,,,,,,,,,,,,,,,,,,,,,,,,,,,,space,20.308907999999974,10,001,2022_Oct_06_1456,Version4,2021.2.0,239.743187097964,
