images,congruentcy,corrAns,box_pos,box_color,box_x,pract.thisRepN,pract.thisTrialN,pract.thisN,pract.thisIndex,trials.thisRepN,trials.thisTrialN,trials.thisN,trials.thisIndex,trials_2.thisRepN,trials_2.thisTrialN,trials_2.thisN,trials_2.thisIndex,trials_3.thisRepN,trials_3.thisTrialN,trials_3.thisN,trials_3.thisIndex,key_resp_instr.keys,key_resp_instr.rt,FixCross.started,FixCross.stopped,Box_p.started,Box_p.stopped,key_resp_P.keys,key_resp_P.corr,key_resp_P.rt,key_resp_P.started,key_resp_P.stopped,text_3.started,text_3.stopped,key_resp_2.keys,key_resp_2.rt,Box.started,Box.stopped,key_resp.keys,key_resp.corr,key_resp.rt,key_resp.started,key_resp.stopped,key_resp_3.keys,key_resp_3.rt,key_resp_4.keys,key_resp_4.rt,participant,session,date,expName,psychopyVersion,frameRate,
,,,,,,,,,,,,,,,,,,,,,,space,11.155060199991567,,,,,,,,,,,,,,,,,,,,,,,,,11,001,2022_Oct_07_1810,Version4,2021.2.0,239.6989381294554,
red_incongruent,0,k,left,red,-0.6,0,0,0,3,,,,,,,,,,,,,,,20.307930000009947,None,21.425608100005775,None,k,1,2.9683648999925936,21.425608100005775,None,,,,,,,,,,,,,,,,11,001,2022_Oct_07_1810,Version4,2021.2.0,239.6989381294554,
red_neutral,0,k,middle,red,0,0,1,1,4,,,,,,,,,,,,,,,25.41307070000039,None,26.455777499999385,None,k,1,0.6663785999990068,26.455777499999385,None,,,,,,,,,,,,,,,,11,001,2022_Oct_07_1810,Version4,2021.2.0,239.6989381294554,
blue_congruent,1,a,left,blue,-0.6,0,2,2,0,,,,,,,,,,,,,,,28.136866500004544,None,29.283762300008675,None,a,1,0.6307423999969615,29.283762300008675,None,,,,,,,,,,,,,,,,11,001,2022_Oct_07_1810,Version4,2021.2.0,239.6989381294554,
blue_neutral,0,a,middle,blue,0,0,3,3,5,,,,,,,,,,,,,,,30.931663800001843,None,32.04510329999903,None,a,1,0.5657921999954851,32.04510329999903,None,,,,,,,,,,,,,,,,11,001,2022_Oct_07_1810,Version4,2021.2.0,239.6989381294554,
blue_incongruent,0,a,right,blue,0.6,0,4,4,2,,,,,,,,,,,,,,,33.62613980000606,None,34.77708480000729,None,a,1,0.5541804999957094,34.77708480000729,None,,,,,,,,,,,,,,,,11,001,2022_Oct_07_1810,Version4,2021.2.0,239.6989381294554,
blue_incongruent,0,a,right,blue,0.6,0,5,5,2,,,,,,,,,,,,,,,36.34575659999973,None,37.4591814000014,None,a,1,0.4644243000075221,37.4591814000014,None,,,,,,,,,,,,,,,,11,001,2022_Oct_07_1810,Version4,2021.2.0,239.6989381294554,
red_incongruent,0,k,left,red,-0.6,1,0,6,3,,,,,,,,,,,,,,,38.939823200009414,None,39.995103000008385,None,k,1,0.48884229999384843,39.995103000008385,None,,,,,,,,,,,,,,,,11,001,2022_Oct_07_1810,Version4,2021.2.0,239.6989381294554,
red_congruent,1,k,right,red,0.6,1,1,7,1,,,,,,,,,,,,,,,41.50086949999968,None,42.53530820000742,None,k,1,0.34907949999615084,42.53530820000742,None,,,,,,,,,,,,,,,,11,001,2022_Oct_07_1810,Version4,2021.2.0,239.6989381294554,
red_congruent,1,k,right,red,0.6,1,2,8,1,,,,,,,,,,,,,,,43.90344439999899,None,45.129870900011156,None,k,1,0.3069658000022173,45.129870900011156,None,,,,,,,,,,,,,,,,11,001,2022_Oct_07_1810,Version4,2021.2.0,239.6989381294554,
red_congruent,1,k,right,red,0.6,1,3,9,1,,,,,,,,,,,,,,,46.4604216000007,None,47.60332680000283,None,k,1,0.3136252000113018,47.60332680000283,None,,,,,,,,,,,,,,,,11,001,2022_Oct_07_1810,Version4,2021.2.0,239.6989381294554,
red_incongruent,0,k,left,red,-0.6,1,4,10,3,,,,,,,,,,,,,,,48.92978660001245,None,50.04341070000373,None,a,0,0.33792089999769814,50.04341070000373,None,,,,,,,,,,,,,,,,11,001,2022_Oct_07_1810,Version4,2021.2.0,239.6989381294554,
red_neutral,0,k,middle,red,0,1,5,11,4,,,,,,,,,,,,,,,51.39901040001132,None,52.529266800003825,None,k,1,0.34882159999688156,52.529266800003825,None,,,,,,,,,,,,,,,,11,001,2022_Oct_07_1810,Version4,2021.2.0,239.6989381294554,
red_incongruent,0,k,left,red,-0.6,2,0,12,3,,,,,,,,,,,,,,,53.89733920000435,None,54.940196900002775,None,a,0,0.6177893999993103,54.940196900002775,None,,,,,,,,,,,,,,,,11,001,2022_Oct_07_1810,Version4,2021.2.0,239.6989381294554,
red_neutral,0,k,middle,red,0,2,1,13,4,,,,,,,,,,,,,,,56.57944500001031,None,57.73059150000336,None,k,1,1.4598900999990292,57.73059150000336,None,,,,,,,,,,,,,,,,11,001,2022_Oct_07_1810,Version4,2021.2.0,239.6989381294554,
blue_neutral,0,a,middle,blue,0,2,2,14,5,,,,,,,,,,,,,,,60.212518900007126,None,61.4430621000065,None,a,1,0.5477916999952868,61.4430621000065,None,,,,,,,,,,,,,,,,11,001,2022_Oct_07_1810,Version4,2021.2.0,239.6989381294554,
blue_incongruent,0,a,right,blue,0.6,2,3,15,2,,,,,,,,,,,,,,,63.011161600006744,None,64.14572490000864,None,a,1,0.5736662999988766,64.14572490000864,None,,,,,,,,,,,,,,,,11,001,2022_Oct_07_1810,Version4,2021.2.0,239.6989381294554,
blue_incongruent,0,a,right,blue,0.6,2,4,16,2,,,,,,,,,,,,,,,65.7351059000066,None,66.89462430001004,None,a,1,0.4651210000010906,66.89462430001004,None,,,,,,,,,,,,,,,,11,001,2022_Oct_07_1810,Version4,2021.2.0,239.6989381294554,
blue_congruent,1,a,left,blue,-0.6,2,5,17,0,,,,,,,,,,,,,,,68.3795461000118,None,69.4639204999985,None,a,1,0.5280302999890409,69.4639204999985,None,,,,,,,,,,,,,,,,11,001,2022_Oct_07_1810,Version4,2021.2.0,239.6989381294554,
blue_congruent,1,a,left,blue,-0.6,3,0,18,0,,,,,,,,,,,,,,,71.00746500000241,None,72.13343570000143,None,a,1,0.43488330001127906,72.13343570000143,None,,,,,,,,,,,,,,,,11,001,2022_Oct_07_1810,Version4,2021.2.0,239.6989381294554,
red_neutral,0,k,middle,red,0,3,1,19,4,,,,,,,,,,,,,,,73.58488520000537,None,74.6196071000013,None,k,1,0.42097500000090804,74.6196071000013,None,,,,,,,,,,,,,,,,11,001,2022_Oct_07_1810,Version4,2021.2.0,239.6989381294554,
blue_neutral,0,a,middle,blue,0,3,2,20,5,,,,,,,,,,,,,,,76.05848140000307,None,77.2137306000077,None,a,1,0.5075737000006484,77.2137306000077,None,,,,,,,,,,,,,,,,11,001,2022_Oct_07_1810,Version4,2021.2.0,239.6989381294554,
blue_neutral,0,a,middle,blue,0,3,3,21,5,,,,,,,,,,,,,,,78.74035880000156,None,79.80815240000084,None,a,1,0.32914569998683874,79.80815240000084,None,,,,,,,,,,,,,,,,11,001,2022_Oct_07_1810,Version4,2021.2.0,239.6989381294554,
red_congruent,1,k,right,red,0.6,3,4,22,1,,,,,,,,,,,,,,,81.15123830000812,None,82.25656470000104,None,k,1,0.4252345000131754,82.25656470000104,None,,,,,,,,,,,,,,,,11,001,2022_Oct_07_1810,Version4,2021.2.0,239.6989381294554,
blue_congruent,1,a,left,blue,-0.6,3,5,23,0,,,,,,,,,,,,,,,83.70416300000215,None,84.85523140001169,None,a,1,0.3787867999926675,84.85523140001169,None,,,,,,,,,,,,,,,,11,001,2022_Oct_07_1810,Version4,2021.2.0,239.6989381294554,
,,,,,,,,,,,,,,,,,,,,,,,,,,,,,,,,,86.26083850000578,None,space,25.6391314999928,,,,,,,,,,,,11,001,2022_Oct_07_1810,Version4,2021.2.0,239.6989381294554,
blue_incongruent,0,a,right,blue,0.6,,,,,0,0,0,2,,,,,,,,,,,113.91094860000885,None,,,,,,,,,,,,114.97454880000441,None,a,1,0.5036575999984052,114.97454880000441,None,,,,,11,001,2022_Oct_07_1810,Version4,2021.2.0,239.6989381294554,
blue_congruent,1,a,left,blue,-0.6,,,,,0,1,1,0,,,,,,,,,,,115.49612520000665,None,,,,,,,,,,,,116.58467400001246,None,a,1,0.429614800013951,116.58467400001246,None,,,,,11,001,2022_Oct_07_1810,Version4,2021.2.0,239.6989381294554,
red_neutral,0,k,middle,red,0,,,,,0,2,2,4,,,,,,,,,,,117.03112740001234,None,,,,,,,,,,,,118.21964330000628,None,k,1,0.3868720000027679,118.21964330000628,None,,,,,11,001,2022_Oct_07_1810,Version4,2021.2.0,239.6989381294554,
blue_incongruent,0,a,right,blue,0.6,,,,,0,3,3,2,,,,,,,,,,,118.6201948000089,None,,,,,,,,,,,,119.78412650000246,None,a,1,0.4465881000069203,119.78412650000246,None,,,,,11,001,2022_Oct_07_1810,Version4,2021.2.0,239.6989381294554,
red_neutral,0,k,middle,red,0,,,,,0,4,4,4,,,,,,,,,,,120.24276680000185,None,,,,,,,,,,,,121.31900440000754,None,k,1,0.4320640999940224,121.31900440000754,None,,,,,11,001,2022_Oct_07_1810,Version4,2021.2.0,239.6989381294554,
blue_congruent,1,a,left,blue,-0.6,,,,,0,5,5,0,,,,,,,,,,,121.76508019999892,None,,,,,,,,,,,,122.91227169999911,None,a,1,0.42305370001122355,122.91227169999911,None,,,,,11,001,2022_Oct_07_1810,Version4,2021.2.0,239.6989381294554,
blue_neutral,0,a,middle,blue,0,,,,,1,0,6,5,,,,,,,,,,,123.35010870000406,None,,,,,,,,,,,,124.618332500002,None,a,1,0.4210175000043819,124.618332500002,None,,,,,11,001,2022_Oct_07_1810,Version4,2021.2.0,239.6989381294554,
blue_congruent,1,a,left,blue,-0.6,,,,,1,1,7,0,,,,,,,,,,,125.05203940000501,None,,,,,,,,,,,,126.25769320000836,None,a,1,0.39787600000272505,126.25769320000836,None,,,,,11,001,2022_Oct_07_1810,Version4,2021.2.0,239.6989381294554,
red_incongruent,0,k,left,red,-0.6,,,,,1,2,8,3,,,,,,,,,,,126.67040420000558,None,,,,,,,,,,,,127.77575020000222,None,k,1,0.5282424000033643,127.77575020000222,None,,,,,11,001,2022_Oct_07_1810,Version4,2021.2.0,239.6989381294554,
red_incongruent,0,k,left,red,-0.6,,,,,1,3,9,3,,,,,,,,,,,128.31381800000963,None,,,,,,,,,,,,129.39823330000218,None,k,1,0.43395109999983106,129.39823330000218,None,,,,,11,001,2022_Oct_07_1810,Version4,2021.2.0,239.6989381294554,
red_neutral,0,k,middle,red,0,,,,,1,4,10,4,,,,,,,,,,,129.84879390000424,None,,,,,,,,,,,,131.0374717000086,None,k,1,0.44291050000174437,131.0374717000086,None,,,,,11,001,2022_Oct_07_1810,Version4,2021.2.0,239.6989381294554,
blue_congruent,1,a,left,blue,-0.6,,,,,1,5,11,0,,,,,,,,,,,131.49643290000677,None,,,,,,,,,,,,132.7018160000007,None,a,1,0.5146355000033509,132.7018160000007,None,,,,,11,001,2022_Oct_07_1810,Version4,2021.2.0,239.6989381294554,
blue_neutral,0,a,middle,blue,0,,,,,2,0,12,5,,,,,,,,,,,133.22752400000172,None,,,,,,,,,,,,134.37023600000248,None,a,1,0.5346425000025192,134.37023600000248,None,,,,,11,001,2022_Oct_07_1810,Version4,2021.2.0,239.6989381294554,
red_incongruent,0,k,left,red,-0.6,,,,,2,1,13,3,,,,,,,,,,,134.92090800000005,None,,,,,,,,,,,,135.94691130000865,None,k,1,0.5262018999928841,135.94691130000865,None,,,,,11,001,2022_Oct_07_1810,Version4,2021.2.0,239.6989381294554,
red_neutral,0,k,middle,red,0,,,,,2,2,14,4,,,,,,,,,,,136.48916019999888,None,,,,,,,,,,,,137.51093350000156,None,k,1,0.39432700000179466,137.51093350000156,None,,,,,11,001,2022_Oct_07_1810,Version4,2021.2.0,239.6989381294554,
red_incongruent,0,k,left,red,-0.6,,,,,2,3,15,3,,,,,,,,,,,137.91982760000974,None,,,,,,,,,,,,138.93766490000417,None,k,1,0.44765250000637025,138.93766490000417,None,,,,,11,001,2022_Oct_07_1810,Version4,2021.2.0,239.6989381294554,
red_incongruent,0,k,left,red,-0.6,,,,,2,4,16,3,,,,,,,,,,,139.39626920000592,None,,,,,,,,,,,,140.5641661000118,None,k,1,0.4376140999956988,140.5641661000118,None,,,,,11,001,2022_Oct_07_1810,Version4,2021.2.0,239.6989381294554,
red_congruent,1,k,right,red,0.6,,,,,2,5,17,1,,,,,,,,,,,141.01895710000827,None,,,,,,,,,,,,142.06179220000922,None,k,1,0.4201007999945432,142.06179220000922,None,,,,,11,001,2022_Oct_07_1810,Version4,2021.2.0,239.6989381294554,
blue_congruent,1,a,left,blue,-0.6,,,,,3,0,18,0,,,,,,,,,,,142.49552740000945,None,,,,,,,,,,,,143.58423050001147,None,a,1,0.37782729999162257,143.58423050001147,None,,,,,11,001,2022_Oct_07_1810,Version4,2021.2.0,239.6989381294554,
red_congruent,1,k,right,red,0.6,,,,,3,1,19,1,,,,,,,,,,,143.97623820000445,None,,,,,,,,,,,,145.06074349999835,None,k,1,0.34951210000144783,145.06074349999835,None,,,,,11,001,2022_Oct_07_1810,Version4,2021.2.0,239.6989381294554,
blue_incongruent,0,a,right,blue,0.6,,,,,3,2,20,2,,,,,,,,,,,145.42399450000084,None,,,,,,,,,,,,146.59584280000126,None,a,1,0.4625164000026416,146.59584280000126,None,,,,,11,001,2022_Oct_07_1810,Version4,2021.2.0,239.6989381294554,
red_incongruent,0,k,left,red,-0.6,,,,,3,3,21,3,,,,,,,,,,,147.0712052000017,None,,,,,,,,,,,,148.13067520000914,None,k,1,0.512029799996526,148.13067520000914,None,,,,,11,001,2022_Oct_07_1810,Version4,2021.2.0,239.6989381294554,
blue_neutral,0,a,middle,blue,0,,,,,3,4,22,5,,,,,,,,,,,148.6602997000009,None,,,,,,,,,,,,149.7615444000112,None,a,1,0.385376999998698,149.7615444000112,None,,,,,11,001,2022_Oct_07_1810,Version4,2021.2.0,239.6989381294554,
blue_congruent,1,a,left,blue,-0.6,,,,,3,5,23,0,,,,,,,,,,,150.16202230000636,None,,,,,,,,,,,,151.30485440000484,None,a,1,0.4901008000015281,151.30485440000484,None,,,,,11,001,2022_Oct_07_1810,Version4,2021.2.0,239.6989381294554,
red_incongruent,0,k,left,red,-0.6,,,,,4,0,24,3,,,,,,,,,,,151.813590500009,None,,,,,,,,,,,,153.0024725000112,None,k,1,0.4727141999901505,153.0024725000112,None,,,,,11,001,2022_Oct_07_1810,Version4,2021.2.0,239.6989381294554,
red_incongruent,0,k,left,red,-0.6,,,,,4,1,25,3,,,,,,,,,,,153.48633820000396,None,,,,,,,,,,,,154.6500883000117,None,k,1,0.4094081999937771,154.6500883000117,None,,,,,11,001,2022_Oct_07_1810,Version4,2021.2.0,239.6989381294554,
blue_neutral,0,a,middle,blue,0,,,,,4,2,26,5,,,,,,,,,,,155.0754992000002,None,,,,,,,,,,,,156.15578900001128,None,a,1,0.3838375999912387,156.15578900001128,None,,,,,11,001,2022_Oct_07_1810,Version4,2021.2.0,239.6989381294554,
blue_incongruent,0,a,right,blue,0.6,,,,,4,3,27,2,,,,,,,,,,,156.5520697000029,None,,,,,,,,,,,,157.6408097000094,None,a,1,0.4351787999912631,157.6408097000094,None,,,,,11,001,2022_Oct_07_1810,Version4,2021.2.0,239.6989381294554,
red_congruent,1,k,right,red,0.6,,,,,4,4,28,1,,,,,,,,,,,158.09121170001163,None,,,,,,,,,,,,159.19671160000144,None,k,1,0.31947270000819117,159.19671160000144,None,,,,,11,001,2022_Oct_07_1810,Version4,2021.2.0,239.6989381294554,
red_congruent,1,k,right,red,0.6,,,,,4,5,29,1,,,,,,,,,,,159.5303341000108,None,,,,,,,,,,,,160.6897914000001,None,k,1,0.3544470999913756,160.6897914000001,None,,,,,11,001,2022_Oct_07_1810,Version4,2021.2.0,239.6989381294554,
blue_incongruent,0,a,right,blue,0.6,,,,,5,0,30,2,,,,,,,,,,,161.0608685000043,None,,,,,,,,,,,,162.1873126999999,None,a,1,0.5211588999954984,162.1873126999999,None,,,,,11,001,2022_Oct_07_1810,Version4,2021.2.0,239.6989381294554,
blue_congruent,1,a,left,blue,-0.6,,,,,5,1,31,0,,,,,,,,,,,162.72117560000333,None,,,,,,,,,,,,163.81818030000431,None,a,1,0.4026335999951698,163.81818030000431,None,,,,,11,001,2022_Oct_07_1810,Version4,2021.2.0,239.6989381294554,
red_congruent,1,k,right,red,0.6,,,,,5,2,32,1,,,,,,,,,,,164.23525420000078,None,,,,,,,,,,,,165.29892120001023,None,k,1,0.329958499991335,165.29892120001023,None,,,,,11,001,2022_Oct_07_1810,Version4,2021.2.0,239.6989381294554,
blue_incongruent,0,a,right,blue,0.6,,,,,5,3,33,2,,,,,,,,,,,165.64511860000493,None,,,,,,,,,,,,166.66292380000232,None,a,1,0.4221284000086598,166.66292380000232,None,,,,,11,001,2022_Oct_07_1810,Version4,2021.2.0,239.6989381294554,
blue_neutral,0,a,middle,blue,0,,,,,5,4,34,5,,,,,,,,,,,167.09657740000694,None,,,,,,,,,,,,168.3813525000005,None,a,1,0.42393850001099054,168.3813525000005,None,,,,,11,001,2022_Oct_07_1810,Version4,2021.2.0,239.6989381294554,
blue_neutral,0,a,middle,blue,0,,,,,5,5,35,5,,,,,,,,,,,168.82342040000367,None,,,,,,,,,,,,169.84949300000153,None,a,1,0.4281422000058228,169.84949300000153,None,,,,,11,001,2022_Oct_07_1810,Version4,2021.2.0,239.6989381294554,
blue_congruent,1,a,left,blue,-0.6,,,,,6,0,36,0,,,,,,,,,,,170.2917269000027,None,,,,,,,,,,,,171.43875320001098,None,a,1,0.4629504999902565,171.43875320001098,None,,,,,11,001,2022_Oct_07_1810,Version4,2021.2.0,239.6989381294554,
red_congruent,1,k,right,red,0.6,,,,,6,1,37,1,,,,,,,,,,,171.9142031000083,None,,,,,,,,,,,,172.96947470000305,None,k,1,0.43659959999786224,172.96947470000305,None,,,,,11,001,2022_Oct_07_1810,Version4,2021.2.0,239.6989381294554,
blue_incongruent,0,a,right,blue,0.6,,,,,6,2,38,2,,,,,,,,,,,173.41994030000933,None,,,,,,,,,,,,174.60038120001263,None,a,1,0.38974709999456536,174.60038120001263,None,,,,,11,001,2022_Oct_07_1810,Version4,2021.2.0,239.6989381294554,
blue_neutral,0,a,middle,blue,0,,,,,6,3,39,5,,,,,,,,,,,175.00079900000128,None,,,,,,,,,,,,176.11028860000079,None,a,1,0.4401885000115726,176.11028860000079,None,,,,,11,001,2022_Oct_07_1810,Version4,2021.2.0,239.6989381294554,
red_neutral,0,k,middle,red,0,,,,,6,4,40,4,,,,,,,,,,,176.56499199999962,None,,,,,,,,,,,,177.67862070001138,None,k,1,0.3438682999985758,177.67862070001138,None,,,,,11,001,2022_Oct_07_1810,Version4,2021.2.0,239.6989381294554,
red_neutral,0,k,middle,red,0,,,,,6,5,41,4,,,,,,,,,,,178.04137840001204,None,,,,,,,,,,,,179.10105740001018,None,k,1,0.40166089999547694,179.10105740001018,None,,,,,11,001,2022_Oct_07_1810,Version4,2021.2.0,239.6989381294554,
red_neutral,0,k,middle,red,0,,,,,7,0,42,4,,,,,,,,,,,179.51398470001004,None,,,,,,,,,,,,180.5650225999998,None,k,1,0.3620663999899989,180.5650225999998,None,,,,,11,001,2022_Oct_07_1810,Version4,2021.2.0,239.6989381294554,
red_congruent,1,k,right,red,0.6,,,,,7,1,43,1,,,,,,,,,,,180.94045580000966,None,,,,,,,,,,,,182.0416491000069,None,k,1,0.3496344000013778,182.0416491000069,None,,,,,11,001,2022_Oct_07_1810,Version4,2021.2.0,239.6989381294554,
red_congruent,1,k,right,red,0.6,,,,,7,2,44,1,,,,,,,,,,,182.39969610000844,None,,,,,,,,,,,,183.48880630001076,None,k,1,0.3185020999953849,183.48880630001076,None,,,,,11,001,2022_Oct_07_1810,Version4,2021.2.0,239.6989381294554,
blue_neutral,0,a,middle,blue,0,,,,,7,3,45,5,,,,,,,,,,,183.8268234999996,None,,,,,,,,,,,,184.91138020000653,None,a,1,0.38411690000793897,184.91138020000653,None,,,,,11,001,2022_Oct_07_1810,Version4,2021.2.0,239.6989381294554,
blue_incongruent,0,a,right,blue,0.6,,,,,7,4,46,2,,,,,,,,,,,185.30753150000237,None,,,,,,,,,,,,186.4130501000036,None,a,1,0.3868350999982795,186.4130501000036,None,,,,,11,001,2022_Oct_07_1810,Version4,2021.2.0,239.6989381294554,
red_neutral,0,k,middle,red,0,,,,,7,5,47,4,,,,,,,,,,,186.81331399999908,None,,,,,,,,,,,,187.92698090001068,None,k,1,0.36114619999716524,187.92698090001068,None,,,,,11,001,2022_Oct_07_1810,Version4,2021.2.0,239.6989381294554,
,,,,,,,,,,,,,,,,,,,,,,,,,,,,,,,,,,,,,,,,,,,,space,20.291902600001777,,,11,001,2022_Oct_07_1810,Version4,2021.2.0,239.6989381294554,
blue_congruent,1,a,left,blue,-0.6,,,,,,,,,0,0,0,0,,,,,,,208.63226640000357,None,,,,,,,,,,,,209.7043268000125,None,a,1,0.8028659999981755,209.7043268000125,None,,,,,11,001,2022_Oct_07_1810,Version4,2021.2.0,239.6989381294554,
blue_neutral,0,a,middle,blue,0,,,,,,,,,0,1,1,5,,,,,,,210.52162290000706,None,,,,,,,,,,,,211.6855777000019,None,a,1,0.5657541000109632,211.6855777000019,None,,,,,11,001,2022_Oct_07_1810,Version4,2021.2.0,239.6989381294554,
blue_congruent,1,a,left,blue,-0.6,,,,,,,,,0,2,2,0,,,,,,,212.26516550000815,None,,,,,,,,,,,,213.3163831999991,None,a,1,0.35101540001051035,213.3163831999991,None,,,,,11,001,2022_Oct_07_1810,Version4,2021.2.0,239.6989381294554,
blue_incongruent,0,a,right,blue,0.6,,,,,,,,,0,3,3,2,,,,,,,213.68343150000146,None,,,,,,,,,,,,214.78883200000564,None,a,1,0.40668460000597406,214.78883200000564,None,,,,,11,001,2022_Oct_07_1810,Version4,2021.2.0,239.6989381294554,
blue_incongruent,0,a,right,blue,0.6,,,,,,,,,0,4,4,2,,,,,,,215.20966580000822,None,,,,,,,,,,,,216.27785790000053,None,a,1,0.36603580000519287,216.27785790000053,None,,,,,11,001,2022_Oct_07_1810,Version4,2021.2.0,239.6989381294554,
blue_congruent,1,a,left,blue,-0.6,,,,,,,,,0,5,5,0,,,,,,,216.6574663000065,None,,,,,,,,,,,,217.7209342999995,None,a,1,0.3310373999993317,217.7209342999995,None,,,,,11,001,2022_Oct_07_1810,Version4,2021.2.0,239.6989381294554,
blue_incongruent,0,a,right,blue,0.6,,,,,,,,,1,0,6,2,,,,,,,218.06732610000472,None,,,,,,,,,,,,219.2268604000128,None,a,1,0.5774888999876566,219.2268604000128,None,,,,,11,001,2022_Oct_07_1810,Version4,2021.2.0,239.6989381294554,
red_incongruent,0,k,left,red,-0.6,,,,,,,,,1,1,7,3,,,,,,,219.81901360000484,None,,,,,,,,,,,,221.07460910000373,None,k,1,0.4499900000082562,221.07460910000373,None,,,,,11,001,2022_Oct_07_1810,Version4,2021.2.0,239.6989381294554,
red_congruent,1,k,right,red,0.6,,,,,,,,,1,2,8,1,,,,,,,221.5375869999989,None,,,,,,,,,,,,222.60546630001045,None,k,1,0.37527119999867864,222.60546630001045,None,,,,,11,001,2022_Oct_07_1810,Version4,2021.2.0,239.6989381294554,
blue_incongruent,0,a,right,blue,0.6,,,,,,,,,1,3,9,2,,,,,,,222.9974809000123,None,,,,,,,,,,,,224.14460880000843,None,a,1,0.4124138000042876,224.14460880000843,None,,,,,11,001,2022_Oct_07_1810,Version4,2021.2.0,239.6989381294554,
red_neutral,0,k,middle,red,0,,,,,,,,,1,4,10,4,,,,,,,224.57404170000518,None,,,,,,,,,,,,225.7880143000075,None,k,1,0.4411415000067791,225.7880143000075,None,,,,,11,001,2022_Oct_07_1810,Version4,2021.2.0,239.6989381294554,
blue_congruent,1,a,left,blue,-0.6,,,,,,,,,1,5,11,0,,,,,,,226.2425871000014,None,,,,,,,,,,,,227.30614810000407,None,a,1,0.38724540000839625,227.30614810000407,None,,,,,11,001,2022_Oct_07_1810,Version4,2021.2.0,239.6989381294554,
red_incongruent,0,k,left,red,-0.6,,,,,,,,,2,0,12,3,,,,,,,227.70649190001132,None,,,,,,,,,,,,228.81595910000033,None,a,0,0.4054486000095494,228.81595910000033,None,,,,,11,001,2022_Oct_07_1810,Version4,2021.2.0,239.6989381294554,
red_congruent,1,k,right,red,0.6,,,,,,,,,2,1,13,1,,,,,,,229.233281000008,None,,,,,,,,,,,,230.36371130000043,None,k,1,0.40992089999781456,230.36371130000043,None,,,,,11,001,2022_Oct_07_1810,Version4,2021.2.0,239.6989381294554,
blue_neutral,0,a,middle,blue,0,,,,,,,,,2,2,14,5,,,,,,,230.78908620000584,None,,,,,,,,,,,,231.91942479999852,None,a,1,0.45441619999473915,231.91942479999852,None,,,,,11,001,2022_Oct_07_1810,Version4,2021.2.0,239.6989381294554,
blue_neutral,0,a,middle,blue,0,,,,,,,,,2,3,15,5,,,,,,,232.39075990000856,None,,,,,,,,,,,,233.53368610001053,None,a,1,0.360403699989547,233.53368610001053,None,,,,,11,001,2022_Oct_07_1810,Version4,2021.2.0,239.6989381294554,
red_congruent,1,k,right,red,0.6,,,,,,,,,2,4,16,1,,,,,,,233.91311990001122,None,,,,,,,,,,,,235.04775230000087,None,k,1,0.3985492000065278,235.04775230000087,None,,,,,11,001,2022_Oct_07_1810,Version4,2021.2.0,239.6989381294554,
blue_congruent,1,a,left,blue,-0.6,,,,,,,,,2,5,17,0,,,,,,,235.46485889999894,None,,,,,,,,,,,,236.56601120000414,None,a,1,0.39256780000869185,236.56601120000414,None,,,,,11,001,2022_Oct_07_1810,Version4,2021.2.0,239.6989381294554,
red_neutral,0,k,middle,red,0,,,,,,,,,3,0,18,4,,,,,,,236.97477790000266,None,,,,,,,,,,,,238.0384183999995,None,a,0,0.39241599998786114,238.0384183999995,None,,,,,11,001,2022_Oct_07_1810,Version4,2021.2.0,239.6989381294554,
red_congruent,1,k,right,red,0.6,,,,,,,,,3,1,19,1,,,,,,,238.44718690001173,None,,,,,,,,,,,,239.51916229999915,None,k,1,0.4558565999905113,239.51916229999915,None,,,,,11,001,2022_Oct_07_1810,Version4,2021.2.0,239.6989381294554,
red_neutral,0,k,middle,red,0,,,,,,,,,3,2,20,4,,,,,,,239.99049330000707,None,,,,,,,,,,,,241.0791479000036,None,k,1,0.44791889999760315,241.0791479000036,None,,,,,11,001,2022_Oct_07_1810,Version4,2021.2.0,239.6989381294554,
red_congruent,1,k,right,red,0.6,,,,,,,,,3,3,21,1,,,,,,,241.54616589999932,None,,,,,,,,,,,,242.62242230000265,None,k,1,0.3770599000126822,242.62242230000265,None,,,,,11,001,2022_Oct_07_1810,Version4,2021.2.0,239.6989381294554,
red_incongruent,0,k,left,red,-0.6,,,,,,,,,3,4,22,3,,,,,,,243.01034069999878,None,,,,,,,,,,,,244.14073080000526,None,k,1,0.41093840000394266,244.14073080000526,None,,,,,11,001,2022_Oct_07_1810,Version4,2021.2.0,239.6989381294554,
red_incongruent,0,k,left,red,-0.6,,,,,,,,,3,5,23,3,,,,,,,244.56617900000128,None,,,,,,,,,,,,245.72583760000998,None,k,1,0.4339293999946676,245.72583760000998,None,,,,,11,001,2022_Oct_07_1810,Version4,2021.2.0,239.6989381294554,
blue_neutral,0,a,middle,blue,0,,,,,,,,,4,0,24,5,,,,,,,246.17159959999844,None,,,,,,,,,,,,247.2857551000052,None,a,1,0.42614560000947677,247.2857551000052,None,,,,,11,001,2022_Oct_07_1810,Version4,2021.2.0,239.6989381294554,
blue_congruent,1,a,left,blue,-0.6,,,,,,,,,4,1,25,0,,,,,,,247.7236741000088,None,,,,,,,,,,,,248.74545630000648,None,a,1,0.3666654999979073,248.74545630000648,None,,,,,11,001,2022_Oct_07_1810,Version4,2021.2.0,239.6989381294554,
blue_neutral,0,a,middle,blue,0,,,,,,,,,4,2,26,5,,,,,,,249.12919830001192,None,,,,,,,,,,,,250.2305645000015,None,a,1,0.3459657000057632,250.2305645000015,None,,,,,11,001,2022_Oct_07_1810,Version4,2021.2.0,239.6989381294554,
red_neutral,0,k,middle,red,0,,,,,,,,,4,3,27,4,,,,,,,250.5934019000124,None,,,,,,,,,,,,251.6319755000004,None,k,1,0.38468489999650046,251.6319755000004,None,,,,,11,001,2022_Oct_07_1810,Version4,2021.2.0,239.6989381294554,
red_congruent,1,k,right,red,0.6,,,,,,,,,4,4,28,1,,,,,,,252.03240500000538,None,,,,,,,,,,,,253.12923940000474,None,k,1,0.39170049999665935,253.12923940000474,None,,,,,11,001,2022_Oct_07_1810,Version4,2021.2.0,239.6989381294554,
red_congruent,1,k,right,red,0.6,,,,,,,,,4,5,29,1,,,,,,,253.534003400011,None,,,,,,,,,,,,254.63083550000738,None,k,1,0.3542803000018466,254.63083550000738,None,,,,,11,001,2022_Oct_07_1810,Version4,2021.2.0,239.6989381294554,
red_neutral,0,k,middle,red,0,,,,,,,,,5,0,30,4,,,,,,,255.00231940000958,None,,,,,,,,,,,,256.1117243000044,None,k,1,0.34554980001121294,256.1117243000044,None,,,,,11,001,2022_Oct_07_1810,Version4,2021.2.0,239.6989381294554,
red_neutral,0,k,middle,red,0,,,,,,,,,5,1,31,4,,,,,,,256.47030780000205,None,,,,,,,,,,,,257.521547700002,None,k,1,0.33576760000141803,257.521547700002,None,,,,,11,001,2022_Oct_07_1810,Version4,2021.2.0,239.6989381294554,
red_incongruent,0,k,left,red,-0.6,,,,,,,,,5,2,32,3,,,,,,,257.87192410000716,None,,,,,,,,,,,,259.0731927000015,None,k,1,0.36052650000783615,259.0731927000015,None,,,,,11,001,2022_Oct_07_1810,Version4,2021.2.0,239.6989381294554,
blue_incongruent,0,a,right,blue,0.6,,,,,,,,,5,3,33,2,,,,,,,259.44852060000994,None,,,,,,,,,,,,260.53732519999903,None,a,1,0.3285999000072479,260.53732519999903,None,,,,,11,001,2022_Oct_07_1810,Version4,2021.2.0,239.6989381294554,
red_neutral,0,k,middle,red,0,,,,,,,,,5,4,34,4,,,,,,,260.8835118999996,None,,,,,,,,,,,,261.9595767999999,None,k,1,0.4023447999934433,261.9595767999999,None,,,,,11,001,2022_Oct_07_1810,Version4,2021.2.0,239.6989381294554,
blue_congruent,1,a,left,blue,-0.6,,,,,,,,,5,5,35,0,,,,,,,262.3808752000041,None,,,,,,,,,,,,263.42364480000106,None,a,1,0.4584690000046976,263.42364480000106,None,,,,,11,001,2022_Oct_07_1810,Version4,2021.2.0,239.6989381294554,
blue_neutral,0,a,middle,blue,0,,,,,,,,,6,0,36,5,,,,,,,263.89915350000956,None,,,,,,,,,,,,265.050450300012,None,a,1,0.37594489999173675,265.050450300012,None,,,,,11,001,2022_Oct_07_1810,Version4,2021.2.0,239.6989381294554,
blue_incongruent,0,a,right,blue,0.6,,,,,,,,,6,1,37,2,,,,,,,265.4424529000098,None,,,,,,,,,,,,266.5519755999994,None,a,1,0.378727399991476,266.5519755999994,None,,,,,11,001,2022_Oct_07_1810,Version4,2021.2.0,239.6989381294554,
red_incongruent,0,k,left,red,-0.6,,,,,,,,,6,2,38,3,,,,,,,266.94403130000865,None,,,,,,,,,,,,268.1369626000087,None,k,1,0.37780990000464953,268.1369626000087,None,,,,,11,001,2022_Oct_07_1810,Version4,2021.2.0,239.6989381294554,
blue_congruent,1,a,left,blue,-0.6,,,,,,,,,6,3,39,0,,,,,,,268.53307530000166,None,,,,,,,,,,,,269.61353360000066,None,a,1,0.5016824999911478,269.61353360000066,None,,,,,11,001,2022_Oct_07_1810,Version4,2021.2.0,239.6989381294554,
red_incongruent,0,k,left,red,-0.6,,,,,,,,,6,4,40,3,,,,,,,270.13084360001085,None,,,,,,,,,,,,271.2486237000121,None,k,1,0.5387464999948861,271.2486237000121,None,,,,,11,001,2022_Oct_07_1810,Version4,2021.2.0,239.6989381294554,
red_congruent,1,k,right,red,0.6,,,,,,,,,6,5,41,1,,,,,,,271.80339880000975,None,,,,,,,,,,,,272.98795530000643,None,k,1,0.4396625999943353,272.98795530000643,None,,,,,11,001,2022_Oct_07_1810,Version4,2021.2.0,239.6989381294554,
red_neutral,0,k,middle,red,0,,,,,,,,,7,0,42,4,,,,,,,273.4425984000118,None,,,,,,,,,,,,274.6063368000032,None,k,1,0.3494381000055,274.6063368000032,None,,,,,11,001,2022_Oct_07_1810,Version4,2021.2.0,239.6989381294554,
blue_neutral,0,a,middle,blue,0,,,,,,,,,7,1,43,5,,,,,,,274.96503120000125,None,,,,,,,,,,,,276.1036024000059,None,a,1,0.3883022000081837,276.1036024000059,None,,,,,11,001,2022_Oct_07_1810,Version4,2021.2.0,239.6989381294554,
blue_incongruent,0,a,right,blue,0.6,,,,,,,,,7,2,44,2,,,,,,,276.50833200001216,None,,,,,,,,,,,,277.73881530000654,None,a,1,0.497217099997215,277.73881530000654,None,,,,,11,001,2022_Oct_07_1810,Version4,2021.2.0,239.6989381294554,
blue_neutral,0,a,middle,blue,0,,,,,,,,,7,3,45,5,,,,,,,278.2476677000086,None,,,,,,,,,,,,279.3572342000116,None,a,1,0.3351939999993192,279.3572342000116,None,,,,,11,001,2022_Oct_07_1810,Version4,2021.2.0,239.6989381294554,
blue_incongruent,0,a,right,blue,0.6,,,,,,,,,7,4,46,2,,,,,,,279.70755530000315,None,,,,,,,,,,,,280.883825900004,None,a,1,0.40061330000753514,280.883825900004,None,,,,,11,001,2022_Oct_07_1810,Version4,2021.2.0,239.6989381294554,
red_incongruent,0,k,left,red,-0.6,,,,,,,,,7,5,47,3,,,,,,,281.29676350000955,None,,,,,,,,,,,,282.43127559999994,None,k,1,0.34148869999626186,282.43127559999994,None,,,,,11,001,2022_Oct_07_1810,Version4,2021.2.0,239.6989381294554,
,,,,,,,,,,,,,,,,,,,,,,,,,,,,,,,,,,,,,,,,,,,,space,0.8827395000116667,,,11,001,2022_Oct_07_1810,Version4,2021.2.0,239.6989381294554,
blue_neutral,0,a,middle,blue,0,,,,,,,,,,,,,0,0,0,5,,,283.7036902000109,None,,,,,,,,,,,,284.74623180000344,None,a,1,0.3947657000098843,284.74623180000344,None,,,,,11,001,2022_Oct_07_1810,Version4,2021.2.0,239.6989381294554,
red_neutral,0,k,middle,red,0,,,,,,,,,,,,,0,1,1,4,,,285.15501580000273,None,,,,,,,,,,,,286.28128070000093,None,k,1,0.32425430000876077,286.28128070000093,None,,,,,11,001,2022_Oct_07_1810,Version4,2021.2.0,239.6989381294554,
blue_incongruent,0,a,right,blue,0.6,,,,,,,,,,,,,0,2,2,2,,,286.62322420001146,None,,,,,,,,,,,,287.69936360001157,None,a,1,0.3460503999958746,287.69936360001157,None,,,,,11,001,2022_Oct_07_1810,Version4,2021.2.0,239.6989381294554,
blue_congruent,1,a,left,blue,-0.6,,,,,,,,,,,,,0,3,3,0,,,288.0622546000086,None,,,,,,,,,,,,289.29273410000314,None,a,1,0.41688520000025164,289.29273410000314,None,,,,,11,001,2022_Oct_07_1810,Version4,2021.2.0,239.6989381294554,
blue_neutral,0,a,middle,blue,0,,,,,,,,,,,,,0,4,4,5,,,289.7223423000105,None,,,,,,,,,,,,290.8277124000015,None,a,1,0.33007050000014715,290.8277124000015,None,,,,,11,001,2022_Oct_07_1810,Version4,2021.2.0,239.6989381294554,
red_congruent,1,k,right,red,0.6,,,,,,,,,,,,,0,5,5,1,,,291.16971270000795,None,,,,,,,,,,,,292.4043504000001,None,k,1,0.3216600000014296,292.4043504000001,None,,,,,11,001,2022_Oct_07_1810,Version4,2021.2.0,239.6989381294554,
blue_incongruent,0,a,right,blue,0.6,,,,,,,,,,,,,1,0,6,2,,,292.73818450000545,None,,,,,,,,,,,,293.9643289000087,None,a,1,0.4739142000034917,293.9643289000087,None,,,,,11,001,2022_Oct_07_1810,Version4,2021.2.0,239.6989381294554,
red_congruent,1,k,right,red,0.6,,,,,,,,,,,,,1,1,7,1,,,294.45234850001,None,,,,,,,,,,,,295.6744708000042,None,k,1,0.3319937000051141,295.6744708000042,None,,,,,11,001,2022_Oct_07_1810,Version4,2021.2.0,239.6989381294554,
red_neutral,0,k,middle,red,0,,,,,,,,,,,,,1,2,8,4,,,296.02075130000594,None,,,,,,,,,,,,297.12170190000325,None,k,1,0.34097360000305343,297.12170190000325,None,,,,,11,001,2022_Oct_07_1810,Version4,2021.2.0,239.6989381294554,
red_incongruent,0,k,left,red,-0.6,,,,,,,,,,,,,1,3,9,3,,,297.4804187000118,None,,,,,,,,,,,,298.62344080000184,None,a,0,0.35158650000812486,298.62344080000184,None,,,,,11,001,2022_Oct_07_1810,Version4,2021.2.0,239.6989381294554,
blue_incongruent,0,a,right,blue,0.6,,,,,,,,,,,,,1,4,10,2,,,298.99038630000723,None,,,,,,,,,,,,300.01241320000554,None,a,1,0.38681570001062937,300.01241320000554,None,,,,,11,001,2022_Oct_07_1810,Version4,2021.2.0,239.6989381294554,
blue_congruent,1,a,left,blue,-0.6,,,,,,,,,,,,,1,5,11,0,,,300.4086635999993,None,,,,,,,,,,,,301.58073430000513,None,a,1,0.36251600000832696,301.58073430000513,None,,,,,11,001,2022_Oct_07_1810,Version4,2021.2.0,239.6989381294554,
red_neutral,0,k,middle,red,0,,,,,,,,,,,,,2,0,12,4,,,301.9561609000084,None,,,,,,,,,,,,303.08650730000227,None,k,1,0.33712569999624975,303.08650730000227,None,,,,,11,001,2022_Oct_07_1810,Version4,2021.2.0,239.6989381294554,
red_neutral,0,k,middle,red,0,,,,,,,,,,,,,2,1,13,4,,,303.43687430000864,None,,,,,,,,,,,,304.55903110001236,None,k,1,0.31263029998808634,304.55903110001236,None,,,,,11,001,2022_Oct_07_1810,Version4,2021.2.0,239.6989381294554,
blue_congruent,1,a,left,blue,-0.6,,,,,,,,,,,,,2,2,14,0,,,304.8841334000026,None,,,,,,,,,,,,305.9145794000069,None,a,1,0.38150689999747556,305.9145794000069,None,,,,,11,001,2022_Oct_07_1810,Version4,2021.2.0,239.6989381294554,
blue_neutral,0,a,middle,blue,0,,,,,,,,,,,,,2,3,15,5,,,306.3107459000021,None,,,,,,,,,,,,307.3201618000021,None,a,1,0.4080916000093566,307.3201618000021,None,,,,,11,001,2022_Oct_07_1810,Version4,2021.2.0,239.6989381294554,
red_congruent,1,k,right,red,0.6,,,,,,,,,,,,,2,4,16,1,,,307.7456147000048,None,,,,,,,,,,,,308.9301926000044,None,k,1,0.42224840000562835,308.9301926000044,None,,,,,11,001,2022_Oct_07_1810,Version4,2021.2.0,239.6989381294554,
red_incongruent,0,k,left,red,-0.6,,,,,,,,,,,,,2,5,17,3,,,309.3681702000031,None,,,,,,,,,,,,310.4193363000086,None,k,1,0.4773036999977194,310.4193363000086,None,,,,,11,001,2022_Oct_07_1810,Version4,2021.2.0,239.6989381294554,
red_congruent,1,k,right,red,0.6,,,,,,,,,,,,,3,0,18,1,,,310.91145980000147,None,,,,,,,,,,,,312.0418497000064,None,k,1,0.3909611999988556,312.0418497000064,None,,,,,11,001,2022_Oct_07_1810,Version4,2021.2.0,239.6989381294554,
blue_neutral,0,a,middle,blue,0,,,,,,,,,,,,,3,1,19,5,,,312.4464841000008,None,,,,,,,,,,,,313.4808497000049,None,a,1,0.38418160000583157,313.4808497000049,None,,,,,11,001,2022_Oct_07_1810,Version4,2021.2.0,239.6989381294554,
blue_congruent,1,a,left,blue,-0.6,,,,,,,,,,,,,3,2,20,0,,,313.8813639,None,,,,,,,,,,,,314.9826533000014,None,a,1,0.37044120000791736,314.9826533000014,None,,,,,11,001,2022_Oct_07_1810,Version4,2021.2.0,239.6989381294554,
red_incongruent,0,k,left,red,-0.6,,,,,,,,,,,,,3,3,21,3,,,315.36617690000276,None,,,,,,,,,,,,316.50057620000734,None,k,1,0.3726784000027692,316.50057620000734,None,,,,,11,001,2022_Oct_07_1810,Version4,2021.2.0,239.6989381294554,
blue_congruent,1,a,left,blue,-0.6,,,,,,,,,,,,,3,4,22,0,,,316.8884584000043,None,,,,,,,,,,,,317.9480085000105,None,a,1,0.4776380999974208,317.9480085000105,None,,,,,11,001,2022_Oct_07_1810,Version4,2021.2.0,239.6989381294554,
blue_neutral,0,a,middle,blue,0,,,,,,,,,,,,,3,5,23,5,,,318.43619050001143,None,,,,,,,,,,,,319.5122240000055,None,a,1,0.3856219000008423,319.5122240000055,None,,,,,11,001,2022_Oct_07_1810,Version4,2021.2.0,239.6989381294554,
red_incongruent,0,k,left,red,-0.6,,,,,,,,,,,,,4,0,24,3,,,319.9085502000089,None,,,,,,,,,,,,321.08460490001016,None,k,1,0.41330919999745674,321.08460490001016,None,,,,,11,001,2022_Oct_07_1810,Version4,2021.2.0,239.6989381294554,
blue_neutral,0,a,middle,blue,0,,,,,,,,,,,,,4,1,25,5,,,321.51026999999885,None,,,,,,,,,,,,322.54473020001024,None,a,1,0.44952729999204166,322.54473020001024,None,,,,,11,001,2022_Oct_07_1810,Version4,2021.2.0,239.6989381294554,
red_neutral,0,k,middle,red,0,,,,,,,,,,,,,4,2,26,4,,,323.01178540001274,None,,,,,,,,,,,,324.05455520001124,None,k,1,0.2999377999949502,324.05455520001124,None,,,,,11,001,2022_Oct_07_1810,Version4,2021.2.0,239.6989381294554,
blue_incongruent,0,a,right,blue,0.6,,,,,,,,,,,,,4,3,27,2,,,324.3716771000036,None,,,,,,,,,,,,325.4435139000125,None,a,1,0.46296229999279603,325.4435139000125,None,,,,,11,001,2022_Oct_07_1810,Version4,2021.2.0,239.6989381294554,
blue_neutral,0,a,middle,blue,0,,,,,,,,,,,,,4,4,28,5,,,325.91904410001007,None,,,,,,,,,,,,326.953333700003,None,a,1,0.4013420999981463,326.953333700003,None,,,,,11,001,2022_Oct_07_1810,Version4,2021.2.0,239.6989381294554,
red_incongruent,0,k,left,red,-0.6,,,,,,,,,,,,,4,5,29,3,,,327.3663959000114,None,,,,,,,,,,,,328.6052000000054,None,k,1,0.48589690000517294,328.6052000000054,None,,,,,11,001,2022_Oct_07_1810,Version4,2021.2.0,239.6989381294554,
red_neutral,0,k,middle,red,0,,,,,,,,,,,,,5,0,30,4,,,329.1018330000079,None,,,,,,,,,,,,330.14024020000943,None,k,1,0.3750658999924781,330.14024020000943,None,,,,,11,001,2022_Oct_07_1810,Version4,2021.2.0,239.6989381294554,
red_neutral,0,k,middle,red,0,,,,,,,,,,,,,5,1,31,4,,,330.5322492000123,None,,,,,,,,,,,,331.7835786000069,None,k,1,0.30804420000640675,331.7835786000069,None,,,,,11,001,2022_Oct_07_1810,Version4,2021.2.0,239.6989381294554,
blue_incongruent,0,a,right,blue,0.6,,,,,,,,,,,,,5,2,32,2,,,332.10483140000724,None,,,,,,,,,,,,333.23937580001075,None,a,1,0.3481409999949392,333.23937580001075,None,,,,,11,001,2022_Oct_07_1810,Version4,2021.2.0,239.6989381294554,
blue_incongruent,0,a,right,blue,0.6,,,,,,,,,,,,,5,3,33,2,,,333.6063894000108,None,,,,,,,,,,,,334.72419430001173,None,a,1,0.36770779998914804,334.72419430001173,None,,,,,11,001,2022_Oct_07_1810,Version4,2021.2.0,239.6989381294554,
red_congruent,1,k,right,red,0.6,,,,,,,,,,,,,5,4,34,1,,,335.10797500000626,None,,,,,,,,,,,,336.20492200000444,None,k,1,0.3431733000034001,336.20492200000444,None,,,,,11,001,2022_Oct_07_1810,Version4,2021.2.0,239.6989381294554,
red_incongruent,0,k,left,red,-0.6,,,,,,,,,,,,,5,5,35,3,,,336.5636496000079,None,,,,,,,,,,,,337.6856654000003,None,k,1,0.40643370000179857,337.6856654000003,None,,,,,11,001,2022_Oct_07_1810,Version4,2021.2.0,239.6989381294554,
blue_congruent,1,a,left,blue,-0.6,,,,,,,,,,,,,6,0,36,0,,,338.1110980000085,None,,,,,,,,,,,,339.29577580001205,None,a,1,0.35698969999793917,339.29577580001205,None,,,,,11,001,2022_Oct_07_1810,Version4,2021.2.0,239.6989381294554,
blue_congruent,1,a,left,blue,-0.6,,,,,,,,,,,,,6,1,37,0,,,339.66695360001177,None,,,,,,,,,,,,340.8223111000116,None,a,1,0.32638040000165347,340.8223111000116,None,,,,,11,001,2022_Oct_07_1810,Version4,2021.2.0,239.6989381294554,
blue_incongruent,0,a,right,blue,0.6,,,,,,,,,,,,,6,2,38,2,,,341.1642794000072,None,,,,,,,,,,,,342.2611964000098,None,a,1,0.43958089999796357,342.2611964000098,None,,,,,11,001,2022_Oct_07_1810,Version4,2021.2.0,239.6989381294554,
red_neutral,0,k,middle,red,0,,,,,,,,,,,,,6,3,39,4,,,342.72003940001014,None,,,,,,,,,,,,343.75874950000434,None,k,1,0.3662274000089383,343.75874950000434,None,,,,,11,001,2022_Oct_07_1810,Version4,2021.2.0,239.6989381294554,
blue_congruent,1,a,left,blue,-0.6,,,,,,,,,,,,,6,4,40,0,,,344.14249589999963,None,,,,,,,,,,,,345.2186369000119,None,a,1,0.36256359999242704,345.2186369000119,None,,,,,11,001,2022_Oct_07_1810,Version4,2021.2.0,239.6989381294554,
red_congruent,1,k,right,red,0.6,,,,,,,,,,,,,6,5,41,1,,,345.59345010000106,None,,,,,,,,,,,,346.71189850001247,None,k,1,0.5094374999898719,346.71189850001247,None,,,,,11,001,2022_Oct_07_1810,Version4,2021.2.0,239.6989381294554,
red_congruent,1,k,right,red,0.6,,,,,,,,,,,,,7,0,42,1,,,347.233335500001,None,,,,,,,,,,,,348.3094696000044,None,k,1,0.38411359999736305,348.3094696000044,None,,,,,11,001,2022_Oct_07_1810,Version4,2021.2.0,239.6989381294554,
blue_neutral,0,a,middle,blue,0,,,,,,,,,,,,,7,1,43,5,,,348.7056672000035,None,,,,,,,,,,,,349.8944330000086,None,a,1,0.3994862999970792,349.8944330000086,None,,,,,11,001,2022_Oct_07_1810,Version4,2021.2.0,239.6989381294554,
red_congruent,1,k,right,red,0.6,,,,,,,,,,,,,7,2,44,1,,,350.3074164999998,None,,,,,,,,,,,,351.4877892000077,None,k,1,0.574355699995067,351.4877892000077,None,,,,,11,001,2022_Oct_07_1810,Version4,2021.2.0,239.6989381294554,
red_incongruent,0,k,left,red,-0.6,,,,,,,,,,,,,7,3,45,3,,,352.0801056000055,None,,,,,,,,,,,,353.260643600006,None,a,0,0.3697463999997126,353.260643600006,None,,,,,11,001,2022_Oct_07_1810,Version4,2021.2.0,239.6989381294554,
red_incongruent,0,k,left,red,-0.6,,,,,,,,,,,,,7,4,46,3,,,353.64017530001,None,,,,,,,,,,,,354.7035565000115,None,k,1,0.5031135000026552,354.7035565000115,None,,,,,11,001,2022_Oct_07_1810,Version4,2021.2.0,239.6989381294554,
blue_incongruent,0,a,right,blue,0.6,,,,,,,,,,,,,7,5,47,2,,,355.2209182000079,None,,,,,,,,,,,,356.3721416000044,None,a,1,0.4505806999950437,356.3721416000044,None,,,,,11,001,2022_Oct_07_1810,Version4,2021.2.0,239.6989381294554,
,,,,,,,,,,,,,,,,,,,,,,,,,,,,,,,,,,,,,,,,,,,,space,1.327170099990326,,,11,001,2022_Oct_07_1810,Version4,2021.2.0,239.6989381294554,
,,,,,,,,,,,,,,,,,,,,,,,,,,,,,,,,,,,,,,,,,,,,,,space,1.4804719000094337,11,001,2022_Oct_07_1810,Version4,2021.2.0,239.6989381294554,
