images,congruentcy,corrAns,box_pos,box_color,box_x,pract.thisRepN,pract.thisTrialN,pract.thisN,pract.thisIndex,trials.thisRepN,trials.thisTrialN,trials.thisN,trials.thisIndex,trials_2.thisRepN,trials_2.thisTrialN,trials_2.thisN,trials_2.thisIndex,trials_3.thisRepN,trials_3.thisTrialN,trials_3.thisN,trials_3.thisIndex,key_resp_instr.keys,key_resp_instr.rt,FixCross.started,FixCross.stopped,Box_p.started,Box_p.stopped,key_resp_P.keys,key_resp_P.corr,key_resp_P.rt,key_resp_P.started,key_resp_P.stopped,text_3.started,text_3.stopped,key_resp_2.keys,key_resp_2.rt,Box.started,Box.stopped,key_resp.keys,key_resp.corr,key_resp.rt,key_resp.started,key_resp.stopped,key_resp_3.keys,key_resp_3.rt,key_resp_4.keys,key_resp_4.rt,participant,session,date,expName,psychopyVersion,frameRate,
,,,,,,,,,,,,,,,,,,,,,,space,14.871860200000015,,,,,,,,,,,,,,,,,,,,,,,,,12,001,2022_Oct_10_1205,Version4,2021.2.0,239.2825352465829,
red_congruent,1,k,right,red,0.6,0,0,0,1,,,,,,,,,,,,,,,40.104560900000024,None,41.13031310000002,None,k,1,0.6147866999999678,41.13031310000002,None,,,,,,,,,,,,,,,,12,001,2022_Oct_10_1205,Version4,2021.2.0,239.2825352465829,
red_congruent,1,k,right,red,0.6,0,1,1,1,,,,,,,,,,,,,,,42.7612135,None,43.84160059999999,None,k,1,0.34380409999999983,43.84160059999999,None,,,,,,,,,,,,,,,,12,001,2022_Oct_10_1205,Version4,2021.2.0,239.2825352465829,
red_congruent,1,k,right,red,0.6,0,2,2,1,,,,,,,,,,,,,,,45.20561359999999,None,46.29829410000002,None,k,1,0.4154714999999669,46.29829410000002,None,,,,,,,,,,,,,,,,12,001,2022_Oct_10_1205,Version4,2021.2.0,239.2825352465829,
red_incongruent,0,k,left,red,-0.6,0,3,3,3,,,,,,,,,,,,,,,47.73732000000001,None,48.83013040000003,None,a,0,0.31599169999998367,48.83013040000003,None,,,,,,,,,,,,,,,,12,001,2022_Oct_10_1205,Version4,2021.2.0,239.2825352465829,
red_congruent,1,k,right,red,0.6,0,4,4,1,,,,,,,,,,,,,,,50.1648816,None,51.32444910000004,None,k,1,0.37401969999996254,51.32444910000004,None,,,,,,,,,,,,,,,,12,001,2022_Oct_10_1205,Version4,2021.2.0,239.2825352465829,
blue_neutral,0,a,middle,blue,0,0,5,5,5,,,,,,,,,,,,,,,52.71759800000001,None,53.85214530000002,None,a,1,0.5746507000000065,53.85214530000002,None,,,,,,,,,,,,,,,,12,001,2022_Oct_10_1205,Version4,2021.2.0,239.2825352465829,
red_neutral,0,k,middle,red,0,1,0,6,4,,,,,,,,,,,,,,,55.445571700000016,None,56.52999220000004,None,k,1,0.48117250000001377,56.52999220000004,None,,,,,,,,,,,,,,,,12,001,2022_Oct_10_1205,Version4,2021.2.0,239.2825352465829,
blue_neutral,0,a,middle,blue,0,1,1,7,5,,,,,,,,,,,,,,,58.031577800000036,None,59.19948290000002,None,a,1,0.6440639000000488,59.19948290000002,None,,,,,,,,,,,,,,,,12,001,2022_Oct_10_1205,Version4,2021.2.0,239.2825352465829,
blue_congruent,1,a,left,blue,-0.6,1,2,8,0,,,,,,,,,,,,,,,60.859556999999995,None,61.939869499999986,None,a,1,0.49612750000000005,61.939869499999986,None,,,,,,,,,,,,,,,,12,001,2022_Oct_10_1205,Version4,2021.2.0,239.2825352465829,
blue_incongruent,0,a,right,blue,0.6,1,3,9,2,,,,,,,,,,,,,,,63.45397270000001,None,64.66366750000003,None,a,1,0.5566220000000044,64.66366750000003,None,,,,,,,,,,,,,,,,12,001,2022_Oct_10_1205,Version4,2021.2.0,239.2825352465829,
blue_congruent,1,a,left,blue,-0.6,1,4,10,0,,,,,,,,,,,,,,,66.24026950000001,None,67.32890270000001,None,a,1,0.3237318999999843,67.32890270000001,None,,,,,,,,,,,,,,,,12,001,2022_Oct_10_1205,Version4,2021.2.0,239.2825352465829,
blue_congruent,1,a,left,blue,-0.6,1,5,11,0,,,,,,,,,,,,,,,68.67617310000003,None,69.81906800000002,None,a,1,0.33787539999997307,69.81906800000002,None,,,,,,,,,,,,,,,,12,001,2022_Oct_10_1205,Version4,2021.2.0,239.2825352465829,
blue_congruent,1,a,left,blue,-0.6,2,0,12,0,,,,,,,,,,,,,,,71.17884500000002,None,72.23835869999999,None,a,1,0.3349185999999804,72.23835869999999,None,,,,,,,,,,,,,,,,12,001,2022_Oct_10_1205,Version4,2021.2.0,239.2825352465829,
red_incongruent,0,k,left,red,-0.6,2,1,13,3,,,,,,,,,,,,,,,73.589742,None,74.70780350000001,None,k,1,0.4498499000000038,74.70780350000001,None,,,,,,,,,,,,,,,,12,001,2022_Oct_10_1205,Version4,2021.2.0,239.2825352465829,
blue_neutral,0,a,middle,blue,0,2,2,14,5,,,,,,,,,,,,,,,76.17994830000004,None,77.3062951,None,a,1,0.5397090000000162,77.3062951,None,,,,,,,,,,,,,,,,12,001,2022_Oct_10_1205,Version4,2021.2.0,239.2825352465829,
blue_incongruent,0,a,right,blue,0.6,2,3,15,2,,,,,,,,,,,,,,,78.85789449999999,None,79.92560350000002,None,a,1,0.6087557999999831,79.92560350000002,None,,,,,,,,,,,,,,,,12,001,2022_Oct_10_1205,Version4,2021.2.0,239.2825352465829,
red_neutral,0,k,middle,red,0,2,4,16,4,,,,,,,,,,,,,,,81.5481471,None,82.57423549999999,None,k,1,0.39244790000003604,82.57423549999999,None,,,,,,,,,,,,,,,,12,001,2022_Oct_10_1205,Version4,2021.2.0,239.2825352465829,
blue_incongruent,0,a,right,blue,0.6,2,5,17,2,,,,,,,,,,,,,,,83.98424370000004,None,85.03540370000002,None,a,1,0.531676100000027,85.03540370000002,None,,,,,,,,,,,,,,,,12,001,2022_Oct_10_1205,Version4,2021.2.0,239.2825352465829,
blue_neutral,0,a,middle,blue,0,3,0,18,5,,,,,,,,,,,,,,,86.59100510000002,None,87.70467840000003,None,a,1,0.5429862999999955,87.70467840000003,None,,,,,,,,,,,,,,,,12,001,2022_Oct_10_1205,Version4,2021.2.0,239.2825352465829,
red_neutral,0,k,middle,red,0,3,1,19,4,,,,,,,,,,,,,,,89.26903530000004,None,90.4118497,None,k,1,0.4359415999999783,90.4118497,None,,,,,,,,,,,,,,,,12,001,2022_Oct_10_1205,Version4,2021.2.0,239.2825352465829,
red_incongruent,0,k,left,red,-0.6,3,2,20,3,,,,,,,,,,,,,,,91.86741770000003,None,92.9020418,None,a,0,0.4260767000000101,92.9020418,None,,,,,,,,,,,,,,,,12,001,2022_Oct_10_1205,Version4,2021.2.0,239.2825352465829,
blue_incongruent,0,a,right,blue,0.6,3,3,21,2,,,,,,,,,,,,,,,94.34503269999999,None,95.48806410000003,None,a,1,0.5603987999999731,95.48806410000003,None,,,,,,,,,,,,,,,,12,001,2022_Oct_10_1205,Version4,2021.2.0,239.2825352465829,
red_incongruent,0,k,left,red,-0.6,3,4,22,3,,,,,,,,,,,,,,,97.07300559999999,None,98.14928300000003,None,k,1,0.8198093999999969,98.14928300000003,None,,,,,,,,,,,,,,,,12,001,2022_Oct_10_1205,Version4,2021.2.0,239.2825352465829,
red_neutral,0,k,middle,red,0,3,5,23,4,,,,,,,,,,,,,,,99.98436939999999,None,101.09818110000003,None,k,1,0.38318409999999403,101.09818110000003,None,,,,,,,,,,,,,,,,12,001,2022_Oct_10_1205,Version4,2021.2.0,239.2825352465829,
,,,,,,,,,,,,,,,,,,,,,,,,,,,,,,,,,102.50793920000001,None,space,15.950160399999959,,,,,,,,,,,,12,001,2022_Oct_10_1205,Version4,2021.2.0,239.2825352465829,
blue_neutral,0,a,middle,blue,0,,,,,0,0,0,5,,,,,,,,,,,120.47305340000003,None,,,,,,,,,,,,121.54479430000004,None,a,1,0.7312347000000159,121.54479430000004,None,,,,,12,001,2022_Oct_10_1205,Version4,2021.2.0,239.2825352465829,
blue_congruent,1,a,left,blue,-0.6,,,,,0,1,1,0,,,,,,,,,,,122.2873624,None,,,,,,,,,,,,123.4760584,None,a,1,1.0882912000000147,123.4760584,None,,,,,12,001,2022_Oct_10_1205,Version4,2021.2.0,239.2825352465829,
blue_congruent,1,a,left,blue,-0.6,,,,,0,2,2,0,,,,,,,,,,,124.5772432,None,,,,,,,,,,,,125.6701392,None,a,1,0.5906112999999777,125.6701392,None,,,,,12,001,2022_Oct_10_1205,Version4,2021.2.0,239.2825352465829,
blue_incongruent,0,a,right,blue,0.6,,,,,0,3,3,2,,,,,,,,,,,126.27076650000004,None,,,,,,,,,,,,127.38436290000004,None,a,1,0.5326972999999953,127.38436290000004,None,,,,,12,001,2022_Oct_10_1205,Version4,2021.2.0,239.2825352465829,
red_incongruent,0,k,left,red,-0.6,,,,,0,4,4,3,,,,,,,,,,,127.93080800000001,None,,,,,,,,,,,,129.13640880000003,None,k,1,0.9006874999999468,129.13640880000003,None,,,,,12,001,2022_Oct_10_1205,Version4,2021.2.0,239.2825352465829,
blue_incongruent,0,a,right,blue,0.6,,,,,0,5,5,2,,,,,,,,,,,130.05390800000004,None,,,,,,,,,,,,131.2260169,None,a,1,0.5153238000000329,131.2260169,None,,,,,12,001,2022_Oct_10_1205,Version4,2021.2.0,239.2825352465829,
red_congruent,1,k,right,red,0.6,,,,,1,0,6,1,,,,,,,,,,,131.75565260000002,None,,,,,,,,,,,,132.8651064,None,k,1,0.38040330000001177,132.8651064,None,,,,,12,001,2022_Oct_10_1205,Version4,2021.2.0,239.2825352465829,
blue_incongruent,0,a,right,blue,0.6,,,,,1,1,7,2,,,,,,,,,,,133.2573316,None,,,,,,,,,,,,134.31254810000001,None,a,1,0.5253195000000233,134.31254810000001,None,,,,,12,001,2022_Oct_10_1205,Version4,2021.2.0,239.2825352465829,
blue_neutral,0,a,middle,blue,0,,,,,1,2,8,5,,,,,,,,,,,134.85480150000006,None,,,,,,,,,,,,135.8766983,None,a,1,0.5852701999999681,135.8766983,None,,,,,12,001,2022_Oct_10_1205,Version4,2021.2.0,239.2825352465829,
blue_neutral,0,a,middle,blue,0,,,,,1,3,9,5,,,,,,,,,,,136.47736230000004,None,,,,,,,,,,,,137.6076509,None,a,1,0.5345221999999694,137.6076509,None,,,,,12,001,2022_Oct_10_1205,Version4,2021.2.0,239.2825352465829,
red_congruent,1,k,right,red,0.6,,,,,1,4,10,1,,,,,,,,,,,138.15418240000002,None,,,,,,,,,,,,139.29699239999997,None,k,1,2.1336450000000013,139.29699239999997,None,,,,,12,001,2022_Oct_10_1205,Version4,2021.2.0,239.2825352465829,
red_incongruent,0,k,left,red,-0.6,,,,,1,5,11,3,,,,,,,,,,,141.44509350000004,None,,,,,,,,,,,,142.61299950000006,None,k,1,0.5459902000000056,142.61299950000006,None,,,,,12,001,2022_Oct_10_1205,Version4,2021.2.0,239.2825352465829,
blue_congruent,1,a,left,blue,-0.6,,,,,2,0,12,0,,,,,,,,,,,143.17612290000005,None,,,,,,,,,,,,144.32315020000004,None,a,1,0.8439902000000075,144.32315020000004,None,,,,,12,001,2022_Oct_10_1205,Version4,2021.2.0,239.2825352465829,
red_neutral,0,k,middle,red,0,,,,,2,1,13,4,,,,,,,,,,,145.17806980000006,None,,,,,,,,,,,,146.27514230000003,None,k,1,0.5402451999999585,146.27514230000003,None,,,,,12,001,2022_Oct_10_1205,Version4,2021.2.0,239.2825352465829,
red_neutral,0,k,middle,red,0,,,,,2,2,14,4,,,,,,,,,,,146.83414440000007,None,,,,,,,,,,,,147.98953539999997,None,k,1,1.058113800000001,147.98953539999997,None,,,,,12,001,2022_Oct_10_1205,Version4,2021.2.0,239.2825352465829,
red_neutral,0,k,middle,red,0,,,,,2,3,15,4,,,,,,,,,,,149.0613394,None,,,,,,,,,,,,150.22940469999998,None,k,1,0.5464777999999342,150.22940469999998,None,,,,,12,001,2022_Oct_10_1205,Version4,2021.2.0,239.2825352465829,
red_incongruent,0,k,left,red,-0.6,,,,,2,4,16,3,,,,,,,,,,,150.78835470000007,None,,,,,,,,,,,,151.96457360000005,None,k,1,0.6595901999999114,151.96457360000005,None,,,,,12,001,2022_Oct_10_1205,Version4,2021.2.0,239.2825352465829,
red_neutral,0,k,middle,red,0,,,,,2,5,17,4,,,,,,,,,,,152.64030770000005,None,,,,,,,,,,,,153.77089740000002,None,k,1,0.42944820000002437,153.77089740000002,None,,,,,12,001,2022_Oct_10_1205,Version4,2021.2.0,239.2825352465829,
red_congruent,1,k,right,red,0.6,,,,,3,0,18,1,,,,,,,,,,,154.21280329999996,None,,,,,,,,,,,,155.33898560000006,None,k,1,0.4537565000000541,155.33898560000006,None,,,,,12,001,2022_Oct_10_1205,Version4,2021.2.0,239.2825352465829,
blue_neutral,0,a,middle,blue,0,,,,,3,1,19,5,,,,,,,,,,,155.81033240000005,None,,,,,,,,,,,,156.9324439,None,a,1,0.6363843999999972,156.9324439,None,,,,,12,001,2022_Oct_10_1205,Version4,2021.2.0,239.2825352465829,
blue_neutral,0,a,middle,blue,0,,,,,3,2,20,5,,,,,,,,,,,157.5872112,None,,,,,,,,,,,,158.69659310000003,None,a,1,0.6246207000000368,158.69659310000003,None,,,,,12,001,2022_Oct_10_1205,Version4,2021.2.0,239.2825352465829,
red_congruent,1,k,right,red,0.6,,,,,3,3,21,1,,,,,,,,,,,159.33911589999997,None,,,,,,,,,,,,160.39030129999998,None,k,1,0.4270550999999614,160.39030129999998,None,,,,,12,001,2022_Oct_10_1205,Version4,2021.2.0,239.2825352465829,
red_congruent,1,k,right,red,0.6,,,,,3,4,22,1,,,,,,,,,,,160.83232790000005,None,,,,,,,,,,,,161.95851210000006,None,k,1,0.3950816000000259,161.95851210000006,None,,,,,12,001,2022_Oct_10_1205,Version4,2021.2.0,239.2825352465829,
red_congruent,1,k,right,red,0.6,,,,,3,5,23,1,,,,,,,,,,,162.37144010000003,None,,,,,,,,,,,,163.54350110000001,None,k,1,0.3621388999999908,163.54350110000001,None,,,,,12,001,2022_Oct_10_1205,Version4,2021.2.0,239.2825352465829,
blue_neutral,0,a,middle,blue,0,,,,,4,0,24,5,,,,,,,,,,,163.9190001,None,,,,,,,,,,,,164.96586300000007,None,a,1,0.8920861999999943,164.96586300000007,None,,,,,12,001,2022_Oct_10_1205,Version4,2021.2.0,239.2825352465829,
red_neutral,0,k,middle,red,0,,,,,4,1,25,4,,,,,,,,,,,165.87515420000005,None,,,,,,,,,,,,166.91799299999997,None,k,1,0.4041316000000279,166.91799299999997,None,,,,,12,001,2022_Oct_10_1205,Version4,2021.2.0,239.2825352465829,
blue_incongruent,0,a,right,blue,0.6,,,,,4,2,26,2,,,,,,,,,,,167.33503060000004,None,,,,,,,,,,,,168.4156671,None,a,1,0.85074730000008,168.4156671,None,,,,,12,001,2022_Oct_10_1205,Version4,2021.2.0,239.2825352465829,
red_incongruent,0,k,left,red,-0.6,,,,,4,3,27,3,,,,,,,,,,,169.28279700000002,None,,,,,,,,,,,,170.36316919999996,None,k,1,0.375434700000028,170.36316919999996,None,,,,,12,001,2022_Oct_10_1205,Version4,2021.2.0,239.2825352465829,
blue_neutral,0,a,middle,blue,0,,,,,4,4,28,5,,,,,,,,,,,170.75112859999996,None,,,,,,,,,,,,171.80647979999998,None,a,1,0.5643397999999706,171.80647979999998,None,,,,,12,001,2022_Oct_10_1205,Version4,2021.2.0,239.2825352465829,
red_neutral,0,k,middle,red,0,,,,,4,5,29,4,,,,,,,,,,,172.381914,None,,,,,,,,,,,,173.57937680000003,None,k,1,0.5037404000000834,173.57937680000003,None,,,,,12,001,2022_Oct_10_1205,Version4,2021.2.0,239.2825352465829,
blue_congruent,1,a,left,blue,-0.6,,,,,5,0,30,0,,,,,,,,,,,174.09644599999996,None,,,,,,,,,,,,175.24747070000006,None,a,1,0.4758095999999341,175.24747070000006,None,,,,,12,001,2022_Oct_10_1205,Version4,2021.2.0,239.2825352465829,
blue_congruent,1,a,left,blue,-0.6,,,,,5,1,31,0,,,,,,,,,,,175.73966209999998,None,,,,,,,,,,,,176.80326830000007,None,a,1,0.3523333000000548,176.80326830000007,None,,,,,12,001,2022_Oct_10_1205,Version4,2021.2.0,239.2825352465829,
red_incongruent,0,k,left,red,-0.6,,,,,5,2,32,3,,,,,,,,,,,177.17047080000003,None,,,,,,,,,,,,178.26315200000005,None,k,1,0.5165216999999984,178.26315200000005,None,,,,,12,001,2022_Oct_10_1205,Version4,2021.2.0,239.2825352465829,
blue_incongruent,0,a,right,blue,0.6,,,,,5,3,33,2,,,,,,,,,,,178.79241589999998,None,,,,,,,,,,,,179.89411720000004,None,a,1,0.549904999999967,179.89411720000004,None,,,,,12,001,2022_Oct_10_1205,Version4,2021.2.0,239.2825352465829,
blue_congruent,1,a,left,blue,-0.6,,,,,5,4,34,0,,,,,,,,,,,180.4614082,None,,,,,,,,,,,,181.63755650000002,None,a,1,0.7106310000000349,181.63755650000002,None,,,,,12,001,2022_Oct_10_1205,Version4,2021.2.0,239.2825352465829,
blue_congruent,1,a,left,blue,-0.6,,,,,5,5,35,0,,,,,,,,,,,182.36348190000007,None,,,,,,,,,,,,183.5020295,None,a,1,0.5586070000000518,183.5020295,None,,,,,12,001,2022_Oct_10_1205,Version4,2021.2.0,239.2825352465829,
red_neutral,0,k,middle,red,0,,,,,6,0,36,4,,,,,,,,,,,184.07780170000007,None,,,,,,,,,,,,185.2246915,None,k,1,0.4679489000000103,185.2246915,None,,,,,12,001,2022_Oct_10_1205,Version4,2021.2.0,239.2825352465829,
blue_incongruent,0,a,right,blue,0.6,,,,,6,1,37,2,,,,,,,,,,,185.7085556,None,,,,,,,,,,,,186.81805620000006,None,a,1,0.4911293000000114,186.81805620000006,None,,,,,12,001,2022_Oct_10_1205,Version4,2021.2.0,239.2825352465829,
red_incongruent,0,k,left,red,-0.6,,,,,6,2,38,3,,,,,,,,,,,187.3228108,None,,,,,,,,,,,,188.4531136,None,k,1,0.4879415999999992,188.4531136,None,,,,,12,001,2022_Oct_10_1205,Version4,2021.2.0,239.2825352465829,
red_neutral,0,k,middle,red,0,,,,,6,3,39,4,,,,,,,,,,,188.95380340000003,None,,,,,,,,,,,,190.01727569999997,None,a,0,0.5161741000000575,190.01727569999997,None,,,,,12,001,2022_Oct_10_1205,Version4,2021.2.0,239.2825352465829,
blue_incongruent,0,a,right,blue,0.6,,,,,6,4,40,2,,,,,,,,,,,190.55131350000005,None,,,,,,,,,,,,191.59830790000007,None,a,1,0.6713994000000412,191.59830790000007,None,,,,,12,001,2022_Oct_10_1205,Version4,2021.2.0,239.2825352465829,
red_incongruent,0,k,left,red,-0.6,,,,,6,5,41,3,,,,,,,,,,,192.28648630000004,None,,,,,,,,,,,,193.46279629999998,None,k,1,0.5751238000000285,193.46279629999998,None,,,,,12,001,2022_Oct_10_1205,Version4,2021.2.0,239.2825352465829,
red_congruent,1,k,right,red,0.6,,,,,7,0,42,1,,,,,,,,,,,194.05080030000005,None,,,,,,,,,,,,195.06451859999999,None,k,1,0.3974327999999332,195.06451859999999,None,,,,,12,001,2022_Oct_10_1205,Version4,2021.2.0,239.2825352465829,
blue_neutral,0,a,middle,blue,0,,,,,7,1,43,5,,,,,,,,,,,195.47323020000005,None,,,,,,,,,,,,196.6160537,None,a,1,0.49425159999998414,196.6160537,None,,,,,12,001,2022_Oct_10_1205,Version4,2021.2.0,239.2825352465829,
blue_incongruent,0,a,right,blue,0.6,,,,,7,2,44,2,,,,,,,,,,,197.12492779999997,None,,,,,,,,,,,,198.21775370000006,None,a,1,0.740817600000014,198.21775370000006,None,,,,,12,001,2022_Oct_10_1205,Version4,2021.2.0,239.2825352465829,
blue_congruent,1,a,left,blue,-0.6,,,,,7,3,45,0,,,,,,,,,,,198.97286230000003,None,,,,,,,,,,,,200.05720020000007,None,a,1,0.5335734999999886,200.05720020000007,None,,,,,12,001,2022_Oct_10_1205,Version4,2021.2.0,239.2825352465829,
red_congruent,1,k,right,red,0.6,,,,,7,4,46,1,,,,,,,,,,,200.60794119999997,None,,,,,,,,,,,,201.86746420000003,None,k,1,0.41171940000003815,201.86746420000003,None,,,,,12,001,2022_Oct_10_1205,Version4,2021.2.0,239.2825352465829,
red_incongruent,0,k,left,red,-0.6,,,,,7,5,47,3,,,,,,,,,,,202.2929267,None,,,,,,,,,,,,203.52324849999997,None,a,0,0.3798375000000078,203.52324849999997,None,,,,,12,001,2022_Oct_10_1205,Version4,2021.2.0,239.2825352465829,
,,,,,,,,,,,,,,,,,,,,,,,,,,,,,,,,,,,,,,,,,,,,space,4.2638388000000305,,,12,001,2022_Oct_10_1205,Version4,2021.2.0,239.2825352465829,
blue_congruent,1,a,left,blue,-0.6,,,,,,,,,0,0,0,0,,,,,,,208.21585699999997,None,,,,,,,,,,,,209.32530560000004,None,a,1,0.578819600000088,209.32530560000004,None,,,,,12,001,2022_Oct_10_1205,Version4,2021.2.0,239.2825352465829,
blue_incongruent,0,a,right,blue,0.6,,,,,,,,,0,1,1,2,,,,,,,209.92167120000005,None,,,,,,,,,,,,211.09804720000005,None,a,1,0.41408239999998386,211.09804720000005,None,,,,,12,001,2022_Oct_10_1205,Version4,2021.2.0,239.2825352465829,
blue_neutral,0,a,middle,blue,0,,,,,,,,,0,2,2,5,,,,,,,211.5236124,None,,,,,,,,,,,,212.65804340000005,None,a,1,0.4943160999999918,212.65804340000005,None,,,,,12,001,2022_Oct_10_1205,Version4,2021.2.0,239.2825352465829,
red_congruent,1,k,right,red,0.6,,,,,,,,,0,3,3,1,,,,,,,213.16692849999998,None,,,,,,,,,,,,214.25140449999998,None,k,1,0.5333137999999735,214.25140449999998,None,,,,,12,001,2022_Oct_10_1205,Version4,2021.2.0,239.2825352465829,
blue_congruent,1,a,left,blue,-0.6,,,,,,,,,0,4,4,0,,,,,,,214.79768140000004,None,,,,,,,,,,,,215.92817640000004,None,a,1,0.33695619999991777,215.92817640000004,None,,,,,12,001,2022_Oct_10_1205,Version4,2021.2.0,239.2825352465829,
blue_congruent,1,a,left,blue,-0.6,,,,,,,,,0,5,5,0,,,,,,,216.27431440000004,None,,,,,,,,,,,,217.53813559999998,None,a,1,0.3988681999999244,217.53813559999998,None,,,,,12,001,2022_Oct_10_1205,Version4,2021.2.0,239.2825352465829,
blue_incongruent,0,a,right,blue,0.6,,,,,,,,,1,0,6,2,,,,,,,217.9510972,None,,,,,,,,,,,,219.1149231,None,a,1,0.47853460000010273,219.1149231,None,,,,,12,001,2022_Oct_10_1205,Version4,2021.2.0,239.2825352465829,
blue_incongruent,0,a,right,blue,0.6,,,,,,,,,1,1,7,2,,,,,,,219.60691420000006,None,,,,,,,,,,,,220.82086480000004,None,a,1,0.4367316000000301,220.82086480000004,None,,,,,12,001,2022_Oct_10_1205,Version4,2021.2.0,239.2825352465829,
red_neutral,0,k,middle,red,0,,,,,,,,,1,2,8,4,,,,,,,221.2755543,None,,,,,,,,,,,,222.35587700000002,None,k,1,0.4619326000000683,222.35587700000002,None,,,,,12,001,2022_Oct_10_1205,Version4,2021.2.0,239.2825352465829,
red_incongruent,0,k,left,red,-0.6,,,,,,,,,1,3,9,3,,,,,,,222.83134060000003,None,,,,,,,,,,,,224.01591420000005,None,k,1,0.5621482000000242,224.01591420000005,None,,,,,12,001,2022_Oct_10_1205,Version4,2021.2.0,239.2825352465829,
blue_neutral,0,a,middle,blue,0,,,,,,,,,1,4,10,5,,,,,,,224.5913903,None,,,,,,,,,,,,225.76778659999997,None,a,1,0.4263251999999511,225.76778659999997,None,,,,,12,001,2022_Oct_10_1205,Version4,2021.2.0,239.2825352465829,
red_incongruent,0,k,left,red,-0.6,,,,,,,,,1,5,11,3,,,,,,,226.209902,None,,,,,,,,,,,,227.28590279999997,None,k,1,0.5084486000000652,227.28590279999997,None,,,,,12,001,2022_Oct_10_1205,Version4,2021.2.0,239.2825352465829,
blue_neutral,0,a,middle,blue,0,,,,,,,,,2,0,12,5,,,,,,,227.81145840000005,None,,,,,,,,,,,,228.91693449999997,None,a,1,0.7577889000000368,228.91693449999997,None,,,,,12,001,2022_Oct_10_1205,Version4,2021.2.0,239.2825352465829,
blue_neutral,0,a,middle,blue,0,,,,,,,,,2,1,13,5,,,,,,,229.69272689999997,None,,,,,,,,,,,,230.76041809999998,None,a,1,0.3543693000000303,230.76041809999998,None,,,,,12,001,2022_Oct_10_1205,Version4,2021.2.0,239.2825352465829,
blue_incongruent,0,a,right,blue,0.6,,,,,,,,,2,2,14,2,,,,,,,231.1276006,None,,,,,,,,,,,,232.33729810000006,None,a,1,0.39380979999998544,232.33729810000006,None,,,,,12,001,2022_Oct_10_1205,Version4,2021.2.0,239.2825352465829,
red_congruent,1,k,right,red,0.6,,,,,,,,,2,3,15,1,,,,,,,232.7459925,None,,,,,,,,,,,,233.8181298,None,k,1,0.6332649000000856,233.8181298,None,,,,,12,001,2022_Oct_10_1205,Version4,2021.2.0,239.2825352465829,
red_incongruent,0,k,left,red,-0.6,,,,,,,,,2,4,16,3,,,,,,,234.46455150000003,None,,,,,,,,,,,,235.5823198,None,k,1,0.50109980000002,235.5823198,None,,,,,12,001,2022_Oct_10_1205,Version4,2021.2.0,239.2825352465829,
blue_congruent,1,a,left,blue,-0.6,,,,,,,,,2,5,17,0,,,,,,,236.0953811,None,,,,,,,,,,,,237.21321289999997,None,a,1,0.4544223000000329,237.21321289999997,None,,,,,12,001,2022_Oct_10_1205,Version4,2021.2.0,239.2825352465829,
red_congruent,1,k,right,red,0.6,,,,,,,,,3,0,18,1,,,,,,,237.6802396,None,,,,,,,,,,,,238.82743640000007,None,k,1,0.5444736999999122,238.82743640000007,None,,,,,12,001,2022_Oct_10_1205,Version4,2021.2.0,239.2825352465829,
red_neutral,0,k,middle,red,0,,,,,,,,,3,1,19,4,,,,,,,239.38653170000003,None,,,,,,,,,,,,240.44170709999997,None,k,1,0.5625625999999784,240.44170709999997,None,,,,,12,001,2022_Oct_10_1205,Version4,2021.2.0,239.2825352465829,
red_congruent,1,k,right,red,0.6,,,,,,,,,3,2,20,1,,,,,,,241.01726750000006,None,,,,,,,,,,,,242.15601429999998,None,k,1,0.36830699999995886,242.15601429999998,None,,,,,12,001,2022_Oct_10_1205,Version4,2021.2.0,239.2825352465829,
blue_incongruent,0,a,right,blue,0.6,,,,,,,,,3,3,21,2,,,,,,,242.5395904,None,,,,,,,,,,,,243.62833989999996,None,a,1,0.4481844000000592,243.62833989999996,None,,,,,12,001,2022_Oct_10_1205,Version4,2021.2.0,239.2825352465829,
red_congruent,1,k,right,red,0.6,,,,,,,,,3,4,22,1,,,,,,,244.09551949999997,None,,,,,,,,,,,,245.22989990000002,None,k,1,0.3188802999999325,245.22989990000002,None,,,,,12,001,2022_Oct_10_1205,Version4,2021.2.0,239.2825352465829,
red_incongruent,0,k,left,red,-0.6,,,,,,,,,3,5,23,3,,,,,,,245.56376949999998,None,,,,,,,,,,,,246.81521749999996,None,k,1,0.517892399999937,246.81521749999996,None,,,,,12,001,2022_Oct_10_1205,Version4,2021.2.0,239.2825352465829,
blue_neutral,0,a,middle,blue,0,,,,,,,,,4,0,24,5,,,,,,,247.34900829999998,None,,,,,,,,,,,,248.52105,None,a,1,0.4122869999999921,248.52105,None,,,,,12,001,2022_Oct_10_1205,Version4,2021.2.0,239.2825352465829,
red_neutral,0,k,middle,red,0,,,,,,,,,4,1,25,4,,,,,,,248.95072899999997,None,,,,,,,,,,,,250.03521259999997,None,k,1,0.4103929000000335,250.03521259999997,None,,,,,12,001,2022_Oct_10_1205,Version4,2021.2.0,239.2825352465829,
red_neutral,0,k,middle,red,0,,,,,,,,,4,2,26,4,,,,,,,250.4606104,None,,,,,,,,,,,,251.58262740000004,None,k,1,0.4309781000000612,251.58262740000004,None,,,,,12,001,2022_Oct_10_1205,Version4,2021.2.0,239.2825352465829,
blue_incongruent,0,a,right,blue,0.6,,,,,,,,,4,3,27,2,,,,,,,252.02480570000006,None,,,,,,,,,,,,253.23853839999998,None,a,1,0.4552915000000439,253.23853839999998,None,,,,,12,001,2022_Oct_10_1205,Version4,2021.2.0,239.2825352465829,
red_neutral,0,k,middle,red,0,,,,,,,,,4,4,28,4,,,,,,,253.70571639999997,None,,,,,,,,,,,,254.78170849999998,None,k,1,0.4883506999999554,254.78170849999998,None,,,,,12,001,2022_Oct_10_1205,Version4,2021.2.0,239.2825352465829,
blue_incongruent,0,a,right,blue,0.6,,,,,,,,,4,5,29,2,,,,,,,255.28656860000007,None,,,,,,,,,,,,256.3836234,None,a,1,0.4788598000000093,256.3836234,None,,,,,12,001,2022_Oct_10_1205,Version4,2021.2.0,239.2825352465829,
red_neutral,0,k,middle,red,0,,,,,,,,,5,0,30,4,,,,,,,256.8717502,None,,,,,,,,,,,,257.99761830000006,None,k,1,0.4968589999999722,257.99761830000006,None,,,,,12,001,2022_Oct_10_1205,Version4,2021.2.0,239.2825352465829,
blue_neutral,0,a,middle,blue,0,,,,,,,,,5,1,31,5,,,,,,,258.50664220000004,None,,,,,,,,,,,,259.7619907,None,a,1,0.7169506000000183,259.7619907,None,,,,,12,001,2022_Oct_10_1205,Version4,2021.2.0,239.2825352465829,
red_incongruent,0,k,left,red,-0.6,,,,,,,,,5,2,32,3,,,,,,,260.4962427,None,,,,,,,,,,,,261.5764202,None,k,1,0.43052670000008675,261.5764202,None,,,,,12,001,2022_Oct_10_1205,Version4,2021.2.0,239.2825352465829,
red_incongruent,0,k,left,red,-0.6,,,,,,,,,5,3,33,3,,,,,,,262.0187288,None,,,,,,,,,,,,263.073832,None,k,1,0.5093408999999838,263.073832,None,,,,,12,001,2022_Oct_10_1205,Version4,2021.2.0,239.2825352465829,
blue_congruent,1,a,left,blue,-0.6,,,,,,,,,5,4,34,0,,,,,,,263.59945650000003,None,,,,,,,,,,,,264.76312590000003,None,k,0,0.4522723000000042,264.76312590000003,None,,,,,12,001,2022_Oct_10_1205,Version4,2021.2.0,239.2825352465829,
red_congruent,1,k,right,red,0.6,,,,,,,,,5,5,35,1,,,,,,,265.2305843,None,,,,,,,,,,,,266.3565594,None,k,1,0.6270749999999907,266.3565594,None,,,,,12,001,2022_Oct_10_1205,Version4,2021.2.0,239.2825352465829,
red_neutral,0,k,middle,red,0,,,,,,,,,6,0,36,4,,,,,,,266.9991366,None,,,,,,,,,,,,268.0791469,None,k,1,0.4246984999999768,268.0791469,None,,,,,12,001,2022_Oct_10_1205,Version4,2021.2.0,239.2825352465829,
red_congruent,1,k,right,red,0.6,,,,,,,,,6,1,37,1,,,,,,,268.51723940000005,None,,,,,,,,,,,,269.5353886,None,k,1,0.40864959999998973,269.5353886,None,,,,,12,001,2022_Oct_10_1205,Version4,2021.2.0,239.2825352465829,
blue_congruent,1,a,left,blue,-0.6,,,,,,,,,6,2,38,0,,,,,,,269.9604781,None,,,,,,,,,,,,271.01147910000003,None,a,1,1.884967999999958,271.01147910000003,None,,,,,12,001,2022_Oct_10_1205,Version4,2021.2.0,239.2825352465829,
blue_neutral,0,a,middle,blue,0,,,,,,,,,6,3,39,5,,,,,,,272.9135805,None,,,,,,,,,,,,274.02728300000007,None,a,1,0.48567000000002736,274.02728300000007,None,,,,,12,001,2022_Oct_10_1205,Version4,2021.2.0,239.2825352465829,
blue_congruent,1,a,left,blue,-0.6,,,,,,,,,6,4,40,0,,,,,,,274.52777810000003,None,,,,,,,,,,,,275.69984560000006,None,a,1,0.35716309999997975,275.69984560000006,None,,,,,12,001,2022_Oct_10_1205,Version4,2021.2.0,239.2825352465829,
red_neutral,0,k,middle,red,0,,,,,,,,,6,5,41,4,,,,,,,276.0752806,None,,,,,,,,,,,,277.18041880000004,None,k,1,0.43680110000002514,277.18041880000004,None,,,,,12,001,2022_Oct_10_1205,Version4,2021.2.0,239.2825352465829,
blue_congruent,1,a,left,blue,-0.6,,,,,,,,,7,0,42,0,,,,,,,277.6353635,None,,,,,,,,,,,,278.71969229999996,None,a,1,0.4256401000000096,278.71969229999996,None,,,,,12,001,2022_Oct_10_1205,Version4,2021.2.0,239.2825352465829,
red_incongruent,0,k,left,red,-0.6,,,,,,,,,7,1,43,3,,,,,,,279.15767420000003,None,,,,,,,,,,,,280.3130349,None,k,1,0.504630499999962,280.3130349,None,,,,,12,001,2022_Oct_10_1205,Version4,2021.2.0,239.2825352465829,
red_incongruent,0,k,left,red,-0.6,,,,,,,,,7,2,44,3,,,,,,,280.83445409999996,None,,,,,,,,,,,,281.8812714,None,k,1,0.392447099999913,281.8812714,None,,,,,12,001,2022_Oct_10_1205,Version4,2021.2.0,239.2825352465829,
blue_neutral,0,a,middle,blue,0,,,,,,,,,7,3,45,5,,,,,,,282.28599330000003,None,,,,,,,,,,,,283.4247602,None,a,1,0.36114050000003317,283.4247602,None,,,,,12,001,2022_Oct_10_1205,Version4,2021.2.0,239.2825352465829,
red_congruent,1,k,right,red,0.6,,,,,,,,,7,4,46,1,,,,,,,283.8000883,None,,,,,,,,,,,,284.86382040000007,None,k,1,0.4423019999999269,284.86382040000007,None,,,,,12,001,2022_Oct_10_1205,Version4,2021.2.0,239.2825352465829,
blue_incongruent,0,a,right,blue,0.6,,,,,,,,,7,5,47,2,,,,,,,285.32256910000007,None,,,,,,,,,,,,286.4906091,None,a,1,0.5197425999999723,286.4906091,None,,,,,12,001,2022_Oct_10_1205,Version4,2021.2.0,239.2825352465829,
,,,,,,,,,,,,,,,,,,,,,,,,,,,,,,,,,,,,,,,,,,,,space,41.571275499999956,,,12,001,2022_Oct_10_1205,Version4,2021.2.0,239.2825352465829,
red_neutral,0,k,middle,red,0,,,,,,,,,,,,,0,0,0,4,,,328.6309997,None,,,,,,,,,,,,329.75709939999996,None,k,1,0.35505160000002434,329.75709939999996,None,,,,,12,001,2022_Oct_10_1205,Version4,2021.2.0,239.2825352465829,
red_incongruent,0,k,left,red,-0.6,,,,,,,,,,,,,0,1,1,3,,,330.1242662,None,,,,,,,,,,,,331.3379303,None,k,1,0.5024670999999898,331.3379303,None,,,,,12,001,2022_Oct_10_1205,Version4,2021.2.0,239.2825352465829,
blue_congruent,1,a,left,blue,-0.6,,,,,,,,,,,,,0,2,2,0,,,331.85941829999996,None,,,,,,,,,,,,332.87706310000004,None,a,1,0.38752149999993435,332.87706310000004,None,,,,,12,001,2022_Oct_10_1205,Version4,2021.2.0,239.2825352465829,
red_neutral,0,k,middle,red,0,,,,,,,,,,,,,0,3,3,4,,,333.2773675,None,,,,,,,,,,,,334.4702947,None,k,1,0.4746827999999823,334.4702947,None,,,,,12,001,2022_Oct_10_1205,Version4,2021.2.0,239.2825352465829,
red_incongruent,0,k,left,red,-0.6,,,,,,,,,,,,,0,4,4,3,,,334.95842350000004,None,,,,,,,,,,,,336.02197500000005,None,k,1,0.4111831999999822,336.02197500000005,None,,,,,12,001,2022_Oct_10_1205,Version4,2021.2.0,239.2825352465829,
red_congruent,1,k,right,red,0.6,,,,,,,,,,,,,0,5,5,1,,,336.44753140000006,None,,,,,,,,,,,,337.4944545,None,k,1,0.29890679999994063,337.4944545,None,,,,,12,001,2022_Oct_10_1205,Version4,2021.2.0,239.2825352465829,
blue_neutral,0,a,middle,blue,0,,,,,,,,,,,,,1,0,6,5,,,337.8115175,None,,,,,,,,,,,,338.8626371,None,a,1,0.4667633999999907,338.8626371,None,,,,,12,001,2022_Oct_10_1205,Version4,2021.2.0,239.2825352465829,
red_neutral,0,k,middle,red,0,,,,,,,,,,,,,1,1,7,4,,,339.34232679999997,None,,,,,,,,,,,,340.5228245,None,k,1,0.454768999999942,340.5228245,None,,,,,12,001,2022_Oct_10_1205,Version4,2021.2.0,239.2825352465829,
red_neutral,0,k,middle,red,0,,,,,,,,,,,,,1,2,8,4,,,340.9898804,None,,,,,,,,,,,,342.1452118,None,k,1,0.28061509999997725,342.1452118,None,,,,,12,001,2022_Oct_10_1205,Version4,2021.2.0,239.2825352465829,
blue_incongruent,0,a,right,blue,0.6,,,,,,,,,,,,,1,3,9,2,,,342.4455548,None,,,,,,,,,,,,343.51769670000004,None,a,1,0.4446435999999494,343.51769670000004,None,,,,,12,001,2022_Oct_10_1205,Version4,2021.2.0,239.2825352465829,
blue_incongruent,0,a,right,blue,0.6,,,,,,,,,,,,,1,4,10,2,,,343.9763307,None,,,,,,,,,,,,345.18592960000007,None,a,1,0.472340299999928,345.18592960000007,None,,,,,12,001,2022_Oct_10_1205,Version4,2021.2.0,239.2825352465829,
blue_congruent,1,a,left,blue,-0.6,,,,,,,,,,,,,1,5,11,0,,,345.6696669,None,,,,,,,,,,,,346.8377655,None,a,1,0.3006884999999784,346.8377655,None,,,,,12,001,2022_Oct_10_1205,Version4,2021.2.0,239.2825352465829,
red_neutral,0,k,middle,red,0,,,,,,,,,,,,,2,0,12,4,,,347.15038499999997,None,,,,,,,,,,,,348.20164700000004,None,k,1,0.3611528999999791,348.20164700000004,None,,,,,12,001,2022_Oct_10_1205,Version4,2021.2.0,239.2825352465829,
red_congruent,1,k,right,red,0.6,,,,,,,,,,,,,2,1,13,1,,,348.5770518,None,,,,,,,,,,,,349.69088930000004,None,k,1,0.3921036000000413,349.69088930000004,None,,,,,12,001,2022_Oct_10_1205,Version4,2021.2.0,239.2825352465829,
red_incongruent,0,k,left,red,-0.6,,,,,,,,,,,,,2,2,14,3,,,350.0994936,None,,,,,,,,,,,,351.17991509999996,None,k,1,0.46315579999998135,351.17991509999996,None,,,,,12,001,2022_Oct_10_1205,Version4,2021.2.0,239.2825352465829,
blue_neutral,0,a,middle,blue,0,,,,,,,,,,,,,2,3,15,5,,,351.6553158,None,,,,,,,,,,,,352.81500280000006,None,a,1,0.37230380000005425,352.81500280000006,None,,,,,12,001,2022_Oct_10_1205,Version4,2021.2.0,239.2825352465829,
blue_neutral,0,a,middle,blue,0,,,,,,,,,,,,,2,4,16,5,,,353.2069521,None,,,,,,,,,,,,354.2748062,None,k,0,0.2966310000000476,354.2748062,None,,,,,12,001,2022_Oct_10_1205,Version4,2021.2.0,239.2825352465829,
blue_incongruent,0,a,right,blue,0.6,,,,,,,,,,,,,2,5,17,2,,,354.5834855,None,,,,,,,,,,,,355.65137139999996,None,a,1,0.4803243000000066,355.65137139999996,None,,,,,12,001,2022_Oct_10_1205,Version4,2021.2.0,239.2825352465829,
blue_incongruent,0,a,right,blue,0.6,,,,,,,,,,,,,3,0,18,2,,,356.14344209999996,None,,,,,,,,,,,,357.29466800000006,None,a,1,0.5574001999999609,357.29466800000006,None,,,,,12,001,2022_Oct_10_1205,Version4,2021.2.0,239.2825352465829,
red_congruent,1,k,right,red,0.6,,,,,,,,,,,,,3,1,19,1,,,357.87031670000005,None,,,,,,,,,,,,358.98806210000004,None,k,1,0.4323862999999619,358.98806210000004,None,,,,,12,001,2022_Oct_10_1205,Version4,2021.2.0,239.2825352465829,
red_incongruent,0,k,left,red,-0.6,,,,,,,,,,,,,3,2,20,3,,,359.4385507,None,,,,,,,,,,,,360.52288960000004,None,k,1,0.4254384000000755,360.52288960000004,None,,,,,12,001,2022_Oct_10_1205,Version4,2021.2.0,239.2825352465829,
red_neutral,0,k,middle,red,0,,,,,,,,,,,,,3,3,21,4,,,360.9610094,None,,,,,,,,,,,,361.9870755,None,k,1,0.4576279999999997,361.9870755,None,,,,,12,001,2022_Oct_10_1205,Version4,2021.2.0,239.2825352465829,
blue_neutral,0,a,middle,blue,0,,,,,,,,,,,,,3,4,22,5,,,362.45842150000004,None,,,,,,,,,,,,363.6263161,None,a,1,0.4826059999999188,363.6263161,None,,,,,12,001,2022_Oct_10_1205,Version4,2021.2.0,239.2825352465829,
red_congruent,1,k,right,red,0.6,,,,,,,,,,,,,3,5,23,1,,,364.1268309,None,,,,,,,,,,,,365.22370870000003,None,k,1,0.3575657000000092,365.22370870000003,None,,,,,12,001,2022_Oct_10_1205,Version4,2021.2.0,239.2825352465829,
red_congruent,1,k,right,red,0.6,,,,,,,,,,,,,4,0,24,1,,,365.59506460000006,None,,,,,,,,,,,,366.69621120000005,None,k,1,0.3410892999999078,366.69621120000005,None,,,,,12,001,2022_Oct_10_1205,Version4,2021.2.0,239.2825352465829,
blue_congruent,1,a,left,blue,-0.6,,,,,,,,,,,,,4,1,25,0,,,367.0507686,None,,,,,,,,,,,,368.2104069,None,a,1,0.32293860000004315,368.2104069,None,,,,,12,001,2022_Oct_10_1205,Version4,2021.2.0,239.2825352465829,
blue_congruent,1,a,left,blue,-0.6,,,,,,,,,,,,,4,2,26,0,,,368.55224960000004,None,,,,,,,,,,,,369.7079644,None,a,1,0.3136004000000412,369.7079644,None,,,,,12,001,2022_Oct_10_1205,Version4,2021.2.0,239.2825352465829,
blue_congruent,1,a,left,blue,-0.6,,,,,,,,,,,,,4,3,27,0,,,370.0331065,None,,,,,,,,,,,,371.2511279,None,a,1,0.36263210000004165,371.2511279,None,,,,,12,001,2022_Oct_10_1205,Version4,2021.2.0,239.2825352465829,
blue_incongruent,0,a,right,blue,0.6,,,,,,,,,,,,,4,4,28,2,,,371.6264501,None,,,,,,,,,,,,372.7485962,None,a,1,0.49743180000007214,372.7485962,None,,,,,12,001,2022_Oct_10_1205,Version4,2021.2.0,239.2825352465829,
blue_neutral,0,a,middle,blue,0,,,,,,,,,,,,,4,5,29,5,,,373.26152300000007,None,,,,,,,,,,,,374.3587226,None,a,1,0.35179599999992206,374.3587226,None,,,,,12,001,2022_Oct_10_1205,Version4,2021.2.0,239.2825352465829,
red_neutral,0,k,middle,red,0,,,,,,,,,,,,,5,0,30,4,,,374.7256084,None,,,,,,,,,,,,375.85183220000005,None,k,1,0.41871930000002067,375.85183220000005,None,,,,,12,001,2022_Oct_10_1205,Version4,2021.2.0,239.2825352465829,
blue_neutral,0,a,middle,blue,0,,,,,,,,,,,,,5,1,31,5,,,376.28555520000003,None,,,,,,,,,,,,377.3406895,None,a,1,0.3782145999999784,377.3406895,None,,,,,12,001,2022_Oct_10_1205,Version4,2021.2.0,239.2825352465829,
blue_incongruent,0,a,right,blue,0.6,,,,,,,,,,,,,5,2,32,2,,,377.73292599999996,None,,,,,,,,,,,,378.83004250000005,None,a,1,0.3849239999999554,378.83004250000005,None,,,,,12,001,2022_Oct_10_1205,Version4,2021.2.0,239.2825352465829,
red_incongruent,0,k,left,red,-0.6,,,,,,,,,,,,,5,3,33,3,,,379.23033560000005,None,,,,,,,,,,,,380.38155910000006,None,k,1,0.4177955000000111,380.38155910000006,None,,,,,12,001,2022_Oct_10_1205,Version4,2021.2.0,239.2825352465829,
blue_congruent,1,a,left,blue,-0.6,,,,,,,,,,,,,5,4,34,0,,,380.8153743,None,,,,,,,,,,,,381.987415,None,k,0,0.5960300000000416,381.987415,None,,,,,12,001,2022_Oct_10_1205,Version4,2021.2.0,239.2825352465829,
blue_congruent,1,a,left,blue,-0.6,,,,,,,,,,,,,5,5,35,0,,,382.5964089,None,,,,,,,,,,,,383.69348040000006,None,a,1,0.6900231999999278,383.69348040000006,None,,,,,12,001,2022_Oct_10_1205,Version4,2021.2.0,239.2825352465829,
red_incongruent,0,k,left,red,-0.6,,,,,,,,,,,,,6,0,36,3,,,384.40249320000004,None,,,,,,,,,,,,385.5036406,None,k,1,0.4480636000000686,385.5036406,None,,,,,12,001,2022_Oct_10_1205,Version4,2021.2.0,239.2825352465829,
red_incongruent,0,k,left,red,-0.6,,,,,,,,,,,,,6,1,37,3,,,385.9708694,None,,,,,,,,,,,,387.10124690000004,None,k,1,0.5226854999999659,387.10124690000004,None,,,,,12,001,2022_Oct_10_1205,Version4,2021.2.0,239.2825352465829,
red_congruent,1,k,right,red,0.6,,,,,,,,,,,,,6,2,38,1,,,387.6350699,None,,,,,,,,,,,,388.723717,None,k,1,0.41247889999999643,388.723717,None,,,,,12,001,2022_Oct_10_1205,Version4,2021.2.0,239.2825352465829,
red_congruent,1,k,right,red,0.6,,,,,,,,,,,,,6,3,39,1,,,389.14926670000006,None,,,,,,,,,,,,390.29205070000006,None,k,1,0.37230010000007496,390.29205070000006,None,,,,,12,001,2022_Oct_10_1205,Version4,2021.2.0,239.2825352465829,
red_congruent,1,k,right,red,0.6,,,,,,,,,,,,,6,4,40,1,,,390.67578929999996,None,,,,,,,,,,,,391.9355406,None,k,1,0.29700690000004215,391.9355406,None,,,,,12,001,2022_Oct_10_1205,Version4,2021.2.0,239.2825352465829,
blue_congruent,1,a,left,blue,-0.6,,,,,,,,,,,,,6,5,41,0,,,392.24414440000004,None,,,,,,,,,,,,393.26604360000005,None,a,1,0.5190439000000424,393.26604360000005,None,,,,,12,001,2022_Oct_10_1205,Version4,2021.2.0,239.2825352465829,
red_incongruent,0,k,left,red,-0.6,,,,,,,,,,,,,7,0,42,3,,,393.7957343,None,,,,,,,,,,,,394.9094376,None,k,1,0.5238623999999845,394.9094376,None,,,,,12,001,2022_Oct_10_1205,Version4,2021.2.0,239.2825352465829,
blue_neutral,0,a,middle,blue,0,,,,,,,,,,,,,7,1,43,5,,,395.45168860000007,None,,,,,,,,,,,,396.5445007,None,a,1,0.5690740000000005,396.5445007,None,,,,,12,001,2022_Oct_10_1205,Version4,2021.2.0,239.2825352465829,
red_neutral,0,k,middle,red,0,,,,,,,,,,,,,7,2,44,4,,,397.1284741,None,,,,,,,,,,,,398.22553569999997,None,k,1,0.48788149999995767,398.22553569999997,None,,,,,12,001,2022_Oct_10_1205,Version4,2021.2.0,239.2825352465829,
blue_incongruent,0,a,right,blue,0.6,,,,,,,,,,,,,7,3,45,2,,,398.7260759,None,,,,,,,,,,,,399.8730122,None,a,1,0.41684589999999844,399.8730122,None,,,,,12,001,2022_Oct_10_1205,Version4,2021.2.0,239.2825352465829,
blue_neutral,0,a,middle,blue,0,,,,,,,,,,,,,7,4,46,5,,,400.3068189,None,,,,,,,,,,,,401.5330466,None,a,1,0.36481259999993654,401.5330466,None,,,,,12,001,2022_Oct_10_1205,Version4,2021.2.0,239.2825352465829,
blue_incongruent,0,a,right,blue,0.6,,,,,,,,,,,,,7,5,47,2,,,401.9126839,None,,,,,,,,,,,,403.06398440000004,None,a,1,0.4742540000000872,403.06398440000004,None,,,,,12,001,2022_Oct_10_1205,Version4,2021.2.0,239.2825352465829,
,,,,,,,,,,,,,,,,,,,,,,,,,,,,,,,,,,,,,,,,,,,,space,9.526903000000061,,,12,001,2022_Oct_10_1205,Version4,2021.2.0,239.2825352465829,
,,,,,,,,,,,,,,,,,,,,,,,,,,,,,,,,,,,,,,,,,,,,,,space,4.320220000000063,12,001,2022_Oct_10_1205,Version4,2021.2.0,239.2825352465829,
