images,congruentcy,corrAns,box_pos,box_color,box_x,pract.thisRepN,pract.thisTrialN,pract.thisN,pract.thisIndex,trials.thisRepN,trials.thisTrialN,trials.thisN,trials.thisIndex,trials_2.thisRepN,trials_2.thisTrialN,trials_2.thisN,trials_2.thisIndex,trials_3.thisRepN,trials_3.thisTrialN,trials_3.thisN,trials_3.thisIndex,key_resp_instr.keys,key_resp_instr.rt,FixCross.started,FixCross.stopped,Box_p.started,Box_p.stopped,key_resp_P.keys,key_resp_P.corr,key_resp_P.rt,key_resp_P.started,key_resp_P.stopped,text_3.started,text_3.stopped,key_resp_2.keys,key_resp_2.rt,Box.started,Box.stopped,key_resp.keys,key_resp.corr,key_resp.rt,key_resp.started,key_resp.stopped,key_resp_3.keys,key_resp_3.rt,key_resp_4.keys,key_resp_4.rt,participant,session,date,expName,psychopyVersion,frameRate,
,,,,,,,,,,,,,,,,,,,,,,space,35.73671289999038,,,,,,,,,,,,,,,,,,,,,,,,,14,001,2022_Oct_13_1104,Version4,2021.2.0,239.2230035606401,
blue_neutral,0,a,middle,blue,0,0,0,0,5,,,,,,,,,,,,,,,48.02615540000261,None,49.0729541000037,None,a,1,1.1942563999909908,49.0729541000037,None,,,,,,,,,,,,,,,,14,001,2022_Oct_13_1104,Version4,2021.2.0,239.2230035606401,
red_neutral,0,k,middle,red,0,0,1,1,4,,,,,,,,,,,,,,,51.28353970000171,None,52.3552747000067,None,k,1,0.4402434999938123,52.3552747000067,None,,,,,,,,,,,,,,,,14,001,2022_Oct_13_1104,Version4,2021.2.0,239.2230035606401,
blue_incongruent,0,a,right,blue,0.6,0,2,2,2,,,,,,,,,,,,,,,53.819307800004026,None,54.90796730000875,None,a,1,1.1200036999944132,54.90796730000875,None,,,,,,,,,,,,,,,,14,001,2022_Oct_13_1104,Version4,2021.2.0,239.2230035606401,
blue_incongruent,0,a,right,blue,0.6,0,3,3,2,,,,,,,,,,,,,,,57.04791500000283,None,58.19070720000309,None,a,1,0.6776291999849491,58.19070720000309,None,,,,,,,,,,,,,,,,14,001,2022_Oct_13_1104,Version4,2021.2.0,239.2230035606401,
red_neutral,0,k,middle,red,0,0,4,4,4,,,,,,,,,,,,,,,59.884243300009985,None,60.96022790001007,None,k,1,0.5086166999826673,60.96022790001007,None,,,,,,,,,,,,,,,,14,001,2022_Oct_13_1104,Version4,2021.2.0,239.2230035606401,
red_incongruent,0,k,left,red,-0.6,0,5,5,3,,,,,,,,,,,,,,,62.49100380000891,None,63.738259400008246,None,k,1,0.7228253999783192,63.738259400008246,None,,,,,,,,,,,,,,,,14,001,2022_Oct_13_1104,Version4,2021.2.0,239.2230035606401,
red_congruent,1,k,right,red,0.6,1,0,6,1,,,,,,,,,,,,,,,65.48182210000232,None,66.5663086999848,None,k,1,0.6391696000064258,66.5663086999848,None,,,,,,,,,,,,,,,,14,001,2022_Oct_13_1104,Version4,2021.2.0,239.2230035606401,
red_incongruent,0,k,left,red,-0.6,1,1,7,3,,,,,,,,,,,,,,,68.2180847999989,None,69.28998760000104,None,k,1,0.6359987999894656,69.28998760000104,None,,,,,,,,,,,,,,,,14,001,2022_Oct_13_1104,Version4,2021.2.0,239.2230035606401,
red_congruent,1,k,right,red,0.6,1,2,8,1,,,,,,,,,,,,,,,70.94163009998738,None,72.05114070000127,None,k,1,0.611080700007733,72.05114070000127,None,,,,,,,,,,,,,,,,14,001,2022_Oct_13_1104,Version4,2021.2.0,239.2230035606401,
blue_congruent,1,a,left,blue,-0.6,1,3,9,0,,,,,,,,,,,,,,,73.68225139999413,None,74.7665175999864,None,a,1,0.4560481999942567,74.7665175999864,None,,,,,,,,,,,,,,,,14,001,2022_Oct_13_1104,Version4,2021.2.0,239.2230035606401,
red_congruent,1,k,right,red,0.6,1,4,10,1,,,,,,,,,,,,,,,76.23891159999766,None,77.34425940000801,None,k,1,0.606671199988341,77.34425940000801,None,,,,,,,,,,,,,,,,14,001,2022_Oct_13_1104,Version4,2021.2.0,239.2230035606401,
red_incongruent,0,k,left,red,-0.6,1,5,11,3,,,,,,,,,,,,,,,78.96681459998945,None,80.02627539998502,None,a,0,0.5490189999982249,80.02627539998502,None,,,,,,,,,,,,,,,,14,001,2022_Oct_13_1104,Version4,2021.2.0,239.2230035606401,
red_congruent,1,k,right,red,0.6,2,0,12,1,,,,,,,,,,,,,,,81.59908769998583,None,82.69585729998653,None,k,1,0.7758270000049379,82.69585729998653,None,,,,,,,,,,,,,,,,14,001,2022_Oct_13_1104,Version4,2021.2.0,239.2230035606401,
blue_incongruent,0,a,right,blue,0.6,2,1,13,2,,,,,,,,,,,,,,,84.48955399999977,None,85.5989115999837,None,a,1,0.7212908000219613,85.5989115999837,None,,,,,,,,,,,,,,,,14,001,2022_Oct_13_1104,Version4,2021.2.0,239.2230035606401,
red_neutral,0,k,middle,red,0,2,2,14,4,,,,,,,,,,,,,,,87.3423458999896,None,88.46854179998627,None,k,1,1.5080164000100922,88.46854179998627,None,,,,,,,,,,,,,,,,14,001,2022_Oct_13_1104,Version4,2021.2.0,239.2230035606401,
blue_congruent,1,a,left,blue,-0.6,2,3,15,0,,,,,,,,,,,,,,,90.99206109999795,None,92.12660729998606,None,a,1,0.7383862000133377,92.12660729998606,None,,,,,,,,,,,,,,,,14,001,2022_Oct_13_1104,Version4,2021.2.0,239.2230035606401,
blue_congruent,1,a,left,blue,-0.6,2,4,16,0,,,,,,,,,,,,,,,93.87860629998613,None,95.00464369999827,None,a,1,0.6206974000087939,95.00464369999827,None,,,,,,,,,,,,,,,,14,001,2022_Oct_13_1104,Version4,2021.2.0,239.2230035606401,
blue_neutral,0,a,middle,blue,0,2,5,17,5,,,,,,,,,,,,,,,96.64387070000521,None,97.7158514999901,None,a,1,0.6938676999998279,97.7158514999901,None,,,,,,,,,,,,,,,,14,001,2022_Oct_13_1104,Version4,2021.2.0,239.2230035606401,
blue_neutral,0,a,middle,blue,0,3,0,18,5,,,,,,,,,,,,,,,99.42598430000362,None,100.49380419999943,None,a,1,0.5002562000008766,100.49380419999943,None,,,,,,,,,,,,,,,,14,001,2022_Oct_13_1104,Version4,2021.2.0,239.2230035606401,
red_incongruent,0,k,left,red,-0.6,3,1,19,3,,,,,,,,,,,,,,,102.01624709999305,None,103.0506875999854,None,k,1,0.5997596000088379,103.0506875999854,None,,,,,,,,,,,,,,,,14,001,2022_Oct_13_1104,Version4,2021.2.0,239.2230035606401,
blue_congruent,1,a,left,blue,-0.6,3,2,20,0,,,,,,,,,,,,,,,104.66491749999113,None,105.69523059998755,None,a,1,1.2836549000057857,105.69523059998755,None,,,,,,,,,,,,,,,,14,001,2022_Oct_13_1104,Version4,2021.2.0,239.2230035606401,
red_neutral,0,k,middle,red,0,3,3,21,4,,,,,,,,,,,,,,,108.00192609999795,None,109.1112543999916,None,k,1,0.7000126999919303,109.1112543999916,None,,,,,,,,,,,,,,,,14,001,2022_Oct_13_1104,Version4,2021.2.0,239.2230035606401,
blue_neutral,0,a,middle,blue,0,3,4,22,5,,,,,,,,,,,,,,,110.82556349999504,None,111.92676740000024,None,a,1,0.7572338999889325,111.92676740000024,None,,,,,,,,,,,,,,,,14,001,2022_Oct_13_1104,Version4,2021.2.0,239.2230035606401,
blue_incongruent,0,a,right,blue,0.6,3,5,23,2,,,,,,,,,,,,,,,113.70373519998975,None,114.93835549999494,None,a,1,0.849743300001137,114.93835549999494,None,,,,,,,,,,,,,,,,14,001,2022_Oct_13_1104,Version4,2021.2.0,239.2230035606401,
,,,,,,,,,,,,,,,,,,,,,,,,,,,,,,,,,116.82386440000846,None,space,2.659774900006596,,,,,,,,,,,,14,001,2022_Oct_13_1104,Version4,2021.2.0,239.2230035606401,
red_congruent,1,k,right,red,0.6,,,,,0,0,0,1,,,,,,,,,,,121.49132319999626,None,,,,,,,,,,,,122.63396360000479,None,k,1,1.467261799989501,122.63396360000479,None,,,,,14,001,2022_Oct_13_1104,Version4,2021.2.0,239.2230035606401,
red_congruent,1,k,right,red,0.6,,,,,0,1,1,1,,,,,,,,,,,124.11890460000723,None,,,,,,,,,,,,125.22419859998627,None,k,1,0.6452639999915846,125.22419859998627,None,,,,,14,001,2022_Oct_13_1104,Version4,2021.2.0,239.2230035606401,
blue_congruent,1,a,left,blue,-0.6,,,,,0,2,2,0,,,,,,,,,,,125.88323879998643,None,,,,,,,,,,,,126.97187730000587,None,a,1,0.5538305999943987,126.97187730000587,None,,,,,14,001,2022_Oct_13_1104,Version4,2021.2.0,239.2230035606401,
red_incongruent,0,k,left,red,-0.6,,,,,0,3,3,3,,,,,,,,,,,127.53928880000603,None,,,,,,,,,,,,128.5819102000096,None,k,1,0.6240054999943823,128.5819102000096,None,,,,,14,001,2022_Oct_13_1104,Version4,2021.2.0,239.2230035606401,
blue_incongruent,0,a,right,blue,0.6,,,,,0,4,4,2,,,,,,,,,,,129.224421299994,None,,,,,,,,,,,,130.3045853000076,None,a,1,0.9736119999724906,130.3045853000076,None,,,,,14,001,2022_Oct_13_1104,Version4,2021.2.0,239.2230035606401,
blue_neutral,0,a,middle,blue,0,,,,,0,5,5,5,,,,,,,,,,,131.2891118999978,None,,,,,,,,,,,,132.43613980000373,None,a,1,0.6102957999974024,132.43613980000373,None,,,,,14,001,2022_Oct_13_1104,Version4,2021.2.0,239.2230035606401,
red_neutral,0,k,middle,red,0,,,,,1,0,6,4,,,,,,,,,,,133.0616761999845,None,,,,,,,,,,,,134.20879400000558,None,k,1,0.6298746000102255,134.20879400000558,None,,,,,14,001,2022_Oct_13_1104,Version4,2021.2.0,239.2230035606401,
red_incongruent,0,k,left,red,-0.6,,,,,1,1,7,3,,,,,,,,,,,134.85526869999012,None,,,,,,,,,,,,135.91899879998527,None,k,1,0.7921238999988418,135.91899879998527,None,,,,,14,001,2022_Oct_13_1104,Version4,2021.2.0,239.2230035606401,
red_neutral,0,k,middle,red,0,,,,,1,2,8,4,,,,,,,,,,,136.72805780000635,None,,,,,,,,,,,,137.8252867999836,None,k,1,0.6298585000040475,137.8252867999836,None,,,,,14,001,2022_Oct_13_1104,Version4,2021.2.0,239.2230035606401,
red_neutral,0,k,middle,red,0,,,,,1,3,9,4,,,,,,,,,,,138.46344809999573,None,,,,,,,,,,,,139.581071099994,None,k,1,0.562462100002449,139.581071099994,None,,,,,14,001,2022_Oct_13_1104,Version4,2021.2.0,239.2230035606401,
blue_congruent,1,a,left,blue,-0.6,,,,,1,4,10,0,,,,,,,,,,,140.16085939999903,None,,,,,,,,,,,,141.20376669999678,None,a,1,0.5798488000000361,141.20376669999678,None,,,,,14,001,2022_Oct_13_1104,Version4,2021.2.0,239.2230035606401,
blue_congruent,1,a,left,blue,-0.6,,,,,1,5,11,0,,,,,,,,,,,141.7960696000082,None,,,,,,,,,,,,142.94712009999785,None,a,1,0.6928120999946259,142.94712009999785,None,,,,,14,001,2022_Oct_13_1104,Version4,2021.2.0,239.2230035606401,
blue_incongruent,0,a,right,blue,0.6,,,,,2,0,12,2,,,,,,,,,,,143.65624650000245,None,,,,,,,,,,,,144.83247870000196,None,a,1,0.5756261000060476,144.83247870000196,None,,,,,14,001,2022_Oct_13_1104,Version4,2021.2.0,239.2230035606401,
blue_incongruent,0,a,right,blue,0.6,,,,,2,1,13,2,,,,,,,,,,,145.42061739999917,None,,,,,,,,,,,,146.5093990000023,None,a,1,0.683195199992042,146.5093990000023,None,,,,,14,001,2022_Oct_13_1104,Version4,2021.2.0,239.2230035606401,
blue_congruent,1,a,left,blue,-0.6,,,,,2,2,14,0,,,,,,,,,,,147.2100102000113,None,,,,,,,,,,,,148.2696014000103,None,a,1,0.8032990999927279,148.2696014000103,None,,,,,14,001,2022_Oct_13_1104,Version4,2021.2.0,239.2230035606401,
red_incongruent,0,k,left,red,-0.6,,,,,2,3,15,3,,,,,,,,,,,149.08712489999016,None,,,,,,,,,,,,150.24239540001145,None,k,1,0.7104636000003666,150.24239540001145,None,,,,,14,001,2022_Oct_13_1104,Version4,2021.2.0,239.2230035606401,
blue_incongruent,0,a,right,blue,0.6,,,,,2,4,16,2,,,,,,,,,,,150.97245999998995,None,,,,,,,,,,,,152.11521250000806,None,a,1,0.7978806999744847,152.11521250000806,None,,,,,14,001,2022_Oct_13_1104,Version4,2021.2.0,239.2230035606401,
red_incongruent,0,k,left,red,-0.6,,,,,2,5,17,3,,,,,,,,,,,152.92456529999617,None,,,,,,,,,,,,154.11731780000264,None,k,1,1.0281231999979354,154.11731780000264,None,,,,,14,001,2022_Oct_13_1104,Version4,2021.2.0,239.2230035606401,
blue_neutral,0,a,middle,blue,0,,,,,3,0,18,5,,,,,,,,,,,155.16441219998524,None,,,,,,,,,,,,156.2321302999917,None,a,1,0.889552900014678,156.2321302999917,None,,,,,14,001,2022_Oct_13_1104,Version4,2021.2.0,239.2230035606401,
blue_neutral,0,a,middle,blue,0,,,,,3,1,19,5,,,,,,,,,,,157.13302589999512,None,,,,,,,,,,,,158.2258232999884,None,a,1,0.5681433000136167,158.2258232999884,None,,,,,14,001,2022_Oct_13_1104,Version4,2021.2.0,239.2230035606401,
blue_congruent,1,a,left,blue,-0.6,,,,,3,2,20,0,,,,,,,,,,,158.8097748,None,,,,,,,,,,,,159.8859206000052,None,a,1,0.5802391000033822,159.8859206000052,None,,,,,14,001,2022_Oct_13_1104,Version4,2021.2.0,239.2230035606401,
red_neutral,0,k,middle,red,0,,,,,3,3,21,4,,,,,,,,,,,160.47821979998844,None,,,,,,,,,,,,161.59188880000147,None,k,1,0.5465021999843884,161.59188880000147,None,,,,,14,001,2022_Oct_13_1104,Version4,2021.2.0,239.2230035606401,
red_incongruent,0,k,left,red,-0.6,,,,,3,4,22,3,,,,,,,,,,,162.1508232000051,None,,,,,,,,,,,,163.20609900000272,None,k,1,0.7805228999932297,163.20609900000272,None,,,,,14,001,2022_Oct_13_1104,Version4,2021.2.0,239.2230035606401,
blue_incongruent,0,a,right,blue,0.6,,,,,3,5,23,2,,,,,,,,,,,163.99863069999265,None,,,,,,,,,,,,165.003970699996,None,a,1,0.7268878000031691,165.003970699996,None,,,,,14,001,2022_Oct_13_1104,Version4,2021.2.0,239.2230035606401,
red_congruent,1,k,right,red,0.6,,,,,4,0,24,1,,,,,,,,,,,165.74628659998416,None,,,,,,,,,,,,166.83078509999905,None,k,1,0.6363330000021961,166.83078509999905,None,,,,,14,001,2022_Oct_13_1104,Version4,2021.2.0,239.2230035606401,
blue_neutral,0,a,middle,blue,0,,,,,4,1,25,5,,,,,,,,,,,167.48148519999813,None,,,,,,,,,,,,168.60370179999154,None,a,1,0.9598487000039313,168.60370179999154,None,,,,,14,001,2022_Oct_13_1104,Version4,2021.2.0,239.2230035606401,
blue_incongruent,0,a,right,blue,0.6,,,,,4,2,26,2,,,,,,,,,,,169.57978020000155,None,,,,,,,,,,,,170.6560055000009,None,a,1,0.6918971999839414,170.6560055000009,None,,,,,14,001,2022_Oct_13_1104,Version4,2021.2.0,239.2230035606401,
red_congruent,1,k,right,red,0.6,,,,,4,3,27,1,,,,,,,,,,,171.36478460000944,None,,,,,,,,,,,,172.43681199999992,None,k,1,0.7430835999839474,172.43681199999992,None,,,,,14,001,2022_Oct_13_1104,Version4,2021.2.0,239.2230035606401,
blue_congruent,1,a,left,blue,-0.6,,,,,4,4,28,0,,,,,,,,,,,173.19588539999677,None,,,,,,,,,,,,174.43893299999763,None,a,1,0.88524299999699,174.43893299999763,None,,,,,14,001,2022_Oct_13_1104,Version4,2021.2.0,239.2230035606401,
red_neutral,0,k,middle,red,0,,,,,4,5,29,4,,,,,,,,,,,175.33981750000385,None,,,,,,,,,,,,176.37842029999592,None,k,1,0.6899563999904785,176.37842029999592,None,,,,,14,001,2022_Oct_13_1104,Version4,2021.2.0,239.2230035606401,
red_incongruent,0,k,left,red,-0.6,,,,,5,0,30,3,,,,,,,,,,,177.083354900009,None,,,,,,,,,,,,178.2096029999957,None,k,1,0.6191038000106346,178.2096029999957,None,,,,,14,001,2022_Oct_13_1104,Version4,2021.2.0,239.2230035606401,
red_congruent,1,k,right,red,0.6,,,,,5,1,31,1,,,,,,,,,,,178.84355679998407,None,,,,,,,,,,,,179.9656784000108,None,k,1,0.5274419999914244,179.9656784000108,None,,,,,14,001,2022_Oct_13_1104,Version4,2021.2.0,239.2230035606401,
red_incongruent,0,k,left,red,-0.6,,,,,5,2,32,3,,,,,,,,,,,180.51213980000466,None,,,,,,,,,,,,181.60074850000092,None,k,1,0.5483402999816462,181.60074850000092,None,,,,,14,001,2022_Oct_13_1104,Version4,2021.2.0,239.2230035606401,
red_neutral,0,k,middle,red,0,,,,,5,3,33,4,,,,,,,,,,,182.16803349999827,None,,,,,,,,,,,,183.231517600012,None,k,1,0.5177693000005092,183.231517600012,None,,,,,14,001,2022_Oct_13_1104,Version4,2021.2.0,239.2230035606401,
red_congruent,1,k,right,red,0.6,,,,,5,4,34,1,,,,,,,,,,,183.7613723000104,None,,,,,,,,,,,,184.87940050000907,None,k,1,0.670321999990847,184.87940050000907,None,,,,,14,001,2022_Oct_13_1104,Version4,2021.2.0,239.2230035606401,
red_congruent,1,k,right,red,0.6,,,,,5,5,35,1,,,,,,,,,,,185.56328609999036,None,,,,,,,,,,,,186.68122420000145,None,k,1,0.5166777999838814,186.68122420000145,None,,,,,14,001,2022_Oct_13_1104,Version4,2021.2.0,239.2230035606401,
red_neutral,0,k,middle,red,0,,,,,6,0,36,4,,,,,,,,,,,187.2109480999934,None,,,,,,,,,,,,188.3120740999875,None,k,1,0.5339261000044644,188.3120740999875,None,,,,,14,001,2022_Oct_13_1104,Version4,2021.2.0,239.2230035606401,
blue_congruent,1,a,left,blue,-0.6,,,,,6,1,37,0,,,,,,,,,,,188.86261300000479,None,,,,,,,,,,,,189.9304118999862,None,a,1,0.6278119000198785,189.9304118999862,None,,,,,14,001,2022_Oct_13_1104,Version4,2021.2.0,239.2230035606401,
blue_congruent,1,a,left,blue,-0.6,,,,,6,2,38,0,,,,,,,,,,,190.5728439000086,None,,,,,,,,,,,,191.6698284999875,None,a,1,0.5287744000088423,191.6698284999875,None,,,,,14,001,2022_Oct_13_1104,Version4,2021.2.0,239.2230035606401,
blue_incongruent,0,a,right,blue,0.6,,,,,6,3,39,2,,,,,,,,,,,192.2078072000004,None,,,,,,,,,,,,193.32137679998414,None,a,1,0.5172826000198256,193.32137679998414,None,,,,,14,001,2022_Oct_13_1104,Version4,2021.2.0,239.2230035606401,
red_congruent,1,k,right,red,0.6,,,,,6,4,40,1,,,,,,,,,,,193.85542179999175,None,,,,,,,,,,,,194.94392900000094,None,k,1,0.7030077000090387,194.94392900000094,None,,,,,14,001,2022_Oct_13_1104,Version4,2021.2.0,239.2230035606401,
blue_neutral,0,a,middle,blue,0,,,,,6,5,41,5,,,,,,,,,,,195.65738729998702,None,,,,,,,,,,,,196.7458525999973,None,a,1,0.877744099998381,196.7458525999973,None,,,,,14,001,2022_Oct_13_1104,Version4,2021.2.0,239.2230035606401,
red_neutral,0,k,middle,red,0,,,,,7,0,42,4,,,,,,,,,,,197.63846109999577,None,,,,,,,,,,,,198.72711079998408,None,k,1,0.8005885000166018,198.72711079998408,None,,,,,14,001,2022_Oct_13_1104,Version4,2021.2.0,239.2230035606401,
blue_neutral,0,a,middle,blue,0,,,,,7,1,43,5,,,,,,,,,,,199.54500499999267,None,,,,,,,,,,,,200.62913560000015,None,a,1,0.666568599990569,200.62913560000015,None,,,,,14,001,2022_Oct_13_1104,Version4,2021.2.0,239.2230035606401,
blue_neutral,0,a,middle,blue,0,,,,,7,2,44,5,,,,,,,,,,,201.31349629999022,None,,,,,,,,,,,,202.4019038999977,None,a,1,0.5100288999965414,202.4019038999977,None,,,,,14,001,2022_Oct_13_1104,Version4,2021.2.0,239.2230035606401,
red_incongruent,0,k,left,red,-0.6,,,,,7,3,45,3,,,,,,,,,,,202.927463,None,,,,,,,,,,,,204.08278319999226,None,k,1,0.7013626999978442,204.08278319999226,None,,,,,14,001,2022_Oct_13_1104,Version4,2021.2.0,239.2230035606401,
blue_neutral,0,a,middle,blue,0,,,,,7,4,46,5,,,,,,,,,,,204.7962383000122,None,,,,,,,,,,,,205.8596406999859,None,a,1,0.7727907000225969,205.8596406999859,None,,,,,14,001,2022_Oct_13_1104,Version4,2021.2.0,239.2230035606401,
blue_incongruent,0,a,right,blue,0.6,,,,,7,5,47,2,,,,,,,,,,,206.64384340000106,None,,,,,,,,,,,,207.76585080000223,None,a,1,0.6909712000051513,207.76585080000223,None,,,,,14,001,2022_Oct_13_1104,Version4,2021.2.0,239.2230035606401,
,,,,,,,,,,,,,,,,,,,,,,,,,,,,,,,,,,,,,,,,,,,,space,3.0416191999975126,,,14,001,2022_Oct_13_1104,Version4,2021.2.0,239.2230035606401,
blue_incongruent,0,a,right,blue,0.6,,,,,,,,,0,0,0,2,,,,,,,211.54899690000457,None,,,,,,,,,,,,212.74611489998642,None,a,1,0.90351340000052,212.74611489998642,None,,,,,14,001,2022_Oct_13_1104,Version4,2021.2.0,239.2230035606401,
red_neutral,0,k,middle,red,0,,,,,,,,,0,1,1,4,,,,,,,213.6681224000058,None,,,,,,,,,,,,214.76072879999992,None,k,1,0.576863800000865,214.76072879999992,None,,,,,14,001,2022_Oct_13_1104,Version4,2021.2.0,239.2230035606401,
blue_neutral,0,a,middle,blue,0,,,,,,,,,0,2,2,5,,,,,,,215.3488992000057,None,,,,,,,,,,,,216.508436300006,None,a,1,0.9094159999804106,216.508436300006,None,,,,,14,001,2022_Oct_13_1104,Version4,2021.2.0,239.2230035606401,
blue_incongruent,0,a,right,blue,0.6,,,,,,,,,0,3,3,2,,,,,,,217.4344928000064,None,,,,,,,,,,,,218.54816310000024,None,a,1,0.8623495000065304,218.54816310000024,None,,,,,14,001,2022_Oct_13_1104,Version4,2021.2.0,239.2230035606401,
red_incongruent,0,k,left,red,-0.6,,,,,,,,,0,4,4,3,,,,,,,219.42423889998463,None,,,,,,,,,,,,220.73806810000679,None,k,1,0.5603119999868795,220.73806810000679,None,,,,,14,001,2022_Oct_13_1104,Version4,2021.2.0,239.2230035606401,
blue_congruent,1,a,left,blue,-0.6,,,,,,,,,0,5,5,0,,,,,,,221.31784830000834,None,,,,,,,,,,,,222.49840969999786,None,a,1,0.6804096999985632,222.49840969999786,None,,,,,14,001,2022_Oct_13_1104,Version4,2021.2.0,239.2230035606401,
blue_congruent,1,a,left,blue,-0.6,,,,,,,,,1,0,6,0,,,,,,,223.194851200009,None,,,,,,,,,,,,224.2626270999899,None,a,1,0.7723381000105292,224.2626270999899,None,,,,,14,001,2022_Oct_13_1104,Version4,2021.2.0,239.2230035606401,
blue_incongruent,0,a,right,blue,0.6,,,,,,,,,1,1,7,2,,,,,,,225.05088470000192,None,,,,,,,,,,,,226.19789680000395,None,a,1,0.629240199981723,226.19789680000395,None,,,,,14,001,2022_Oct_13_1104,Version4,2021.2.0,239.2230035606401,
red_neutral,0,k,middle,red,0,,,,,,,,,1,2,8,4,,,,,,,226.84464850000222,None,,,,,,,,,,,,227.87049589998787,None,k,1,0.46881439999560826,227.87049589998787,None,,,,,14,001,2022_Oct_13_1104,Version4,2021.2.0,239.2230035606401,
blue_incongruent,0,a,right,blue,0.6,,,,,,,,,1,3,9,2,,,,,,,228.3501879000105,None,,,,,,,,,,,,229.43882189999567,None,a,1,0.6128942999930587,229.43882189999567,None,,,,,14,001,2022_Oct_13_1104,Version4,2021.2.0,239.2230035606401,
red_incongruent,0,k,left,red,-0.6,,,,,,,,,1,4,10,3,,,,,,,230.06887300001108,None,,,,,,,,,,,,231.09513299999526,None,k,1,0.6846889000153169,231.09513299999526,None,,,,,14,001,2022_Oct_13_1104,Version4,2021.2.0,239.2230035606401,
blue_congruent,1,a,left,blue,-0.6,,,,,,,,,1,5,11,0,,,,,,,231.79549620000762,None,,,,,,,,,,,,232.92585719999624,None,a,1,0.8062101000105031,232.92585719999624,None,,,,,14,001,2022_Oct_13_1104,Version4,2021.2.0,239.2230035606401,
blue_incongruent,0,a,right,blue,0.6,,,,,,,,,2,0,12,2,,,,,,,233.74340450001182,None,,,,,,,,,,,,234.81131600000663,None,a,1,0.6490164999850094,234.81131600000663,None,,,,,14,001,2022_Oct_13_1104,Version4,2021.2.0,239.2230035606401,
red_incongruent,0,k,left,red,-0.6,,,,,,,,,2,1,13,3,,,,,,,235.47868110000854,None,,,,,,,,,,,,236.71333649998996,None,k,1,0.5075369999976829,236.71333649998996,None,,,,,14,001,2022_Oct_13_1104,Version4,2021.2.0,239.2230035606401,
blue_neutral,0,a,middle,blue,0,,,,,,,,,2,2,14,5,,,,,,,237.23894029998337,None,,,,,,,,,,,,238.35275170000386,None,a,1,0.5480117999832146,238.35275170000386,None,,,,,14,001,2022_Oct_13_1104,Version4,2021.2.0,239.2230035606401,
blue_incongruent,0,a,right,blue,0.6,,,,,,,,,2,3,15,2,,,,,,,238.91155099999742,None,,,,,,,,,,,,239.95845000000554,None,a,1,0.6465947999968193,239.95845000000554,None,,,,,14,001,2022_Oct_13_1104,Version4,2021.2.0,239.2230035606401,
red_neutral,0,k,middle,red,0,,,,,,,,,2,4,16,4,,,,,,,240.61747639998794,None,,,,,,,,,,,,241.69361529999878,None,k,1,0.5278782999957912,241.69361529999878,None,,,,,14,001,2022_Oct_13_1104,Version4,2021.2.0,239.2230035606401,
red_neutral,0,k,middle,red,0,,,,,,,,,2,5,17,4,,,,,,,242.2361159999855,None,,,,,,,,,,,,243.33284009998897,None,k,1,0.5607123000081629,243.33284009998897,None,,,,,14,001,2022_Oct_13_1104,Version4,2021.2.0,239.2230035606401,
blue_incongruent,0,a,right,blue,0.6,,,,,,,,,3,0,18,2,,,,,,,243.90829429999576,None,,,,,,,,,,,,245.06816110000364,None,a,1,0.6735689000051934,245.06816110000364,None,,,,,14,001,2022_Oct_13_1104,Version4,2021.2.0,239.2230035606401,
red_incongruent,0,k,left,red,-0.6,,,,,,,,,3,1,19,3,,,,,,,245.76048789999913,None,,,,,,,,,,,,246.93250299998908,None,k,1,0.7054514000192285,246.93250299998908,None,,,,,14,001,2022_Oct_13_1104,Version4,2021.2.0,239.2230035606401,
blue_congruent,1,a,left,blue,-0.6,,,,,,,,,3,2,20,0,,,,,,,247.64979619998485,None,,,,,,,,,,,,248.76360859998385,None,a,1,1.0747974000114482,248.76360859998385,None,,,,,14,001,2022_Oct_13_1104,Version4,2021.2.0,239.2230035606401,
red_neutral,0,k,middle,red,0,,,,,,,,,3,3,21,4,,,,,,,249.85642219998408,None,,,,,,,,,,,,251.0077203999972,None,k,1,0.43872480001300573,251.0077203999972,None,,,,,14,001,2022_Oct_13_1104,Version4,2021.2.0,239.2230035606401,
blue_neutral,0,a,middle,blue,0,,,,,,,,,3,4,22,5,,,,,,,251.45798040000955,None,,,,,,,,,,,,252.55100810001022,None,a,1,0.6477117999747861,252.55100810001022,None,,,,,14,001,2022_Oct_13_1104,Version4,2021.2.0,239.2230035606401,
red_incongruent,0,k,left,red,-0.6,,,,,,,,,3,5,23,3,,,,,,,253.21832149999682,None,,,,,,,,,,,,254.26929279998876,None,k,1,0.5936616000253707,254.26929279998876,None,,,,,14,001,2022_Oct_13_1104,Version4,2021.2.0,239.2230035606401,
red_congruent,1,k,right,red,0.6,,,,,,,,,4,0,24,1,,,,,,,254.87840159999905,None,,,,,,,,,,,,255.92938190000132,None,k,1,0.7179634000058286,255.92938190000132,None,,,,,14,001,2022_Oct_13_1104,Version4,2021.2.0,239.2230035606401,
blue_congruent,1,a,left,blue,-0.6,,,,,,,,,4,1,25,0,,,,,,,256.66368130000774,None,,,,,,,,,,,,257.75653119999333,None,a,1,0.5228815999871586,257.75653119999333,None,,,,,14,001,2022_Oct_13_1104,Version4,2021.2.0,239.2230035606401,
blue_neutral,0,a,middle,blue,0,,,,,,,,,4,2,26,5,,,,,,,258.29870670000673,None,,,,,,,,,,,,259.43741220000084,None,a,1,0.6102132000087295,259.43741220000084,None,,,,,14,001,2022_Oct_13_1104,Version4,2021.2.0,239.2230035606401,
red_congruent,1,k,right,red,0.6,,,,,,,,,4,3,27,1,,,,,,,260.0629317999992,None,,,,,,,,,,,,261.27670089999447,None,k,1,0.5712117000075523,261.27670089999447,None,,,,,14,001,2022_Oct_13_1104,Version4,2021.2.0,239.2230035606401,
red_congruent,1,k,right,red,0.6,,,,,,,,,4,4,28,1,,,,,,,261.86097949999385,None,,,,,,,,,,,,263.0077687999874,None,k,1,0.6245439000194892,263.0077687999874,None,,,,,14,001,2022_Oct_13_1104,Version4,2021.2.0,239.2230035606401,
blue_neutral,0,a,middle,blue,0,,,,,,,,,4,5,29,5,,,,,,,263.64611070000683,None,,,,,,,,,,,,264.7054765000066,None,a,1,0.6788978999829851,264.7054765000066,None,,,,,14,001,2022_Oct_13_1104,Version4,2021.2.0,239.2230035606401,
red_congruent,1,k,right,red,0.6,,,,,,,,,5,0,30,1,,,,,,,265.3979212999984,None,,,,,,,,,,,,266.5199014999962,None,k,1,0.7447395999915898,266.5199014999962,None,,,,,14,001,2022_Oct_13_1104,Version4,2021.2.0,239.2230035606401,
blue_neutral,0,a,middle,blue,0,,,,,,,,,5,1,31,5,,,,,,,267.27910009998595,None,,,,,,,,,,,,268.4512359999935,None,a,1,0.8136470000026748,268.4512359999935,None,,,,,14,001,2022_Oct_13_1104,Version4,2021.2.0,239.2230035606401,
blue_congruent,1,a,left,blue,-0.6,,,,,,,,,5,2,32,0,,,,,,,269.27699929999653,None,,,,,,,,,,,,270.30726219998905,None,a,1,0.6779010000173002,270.30726219998905,None,,,,,14,001,2022_Oct_13_1104,Version4,2021.2.0,239.2230035606401,
red_congruent,1,k,right,red,0.6,,,,,,,,,5,3,33,1,,,,,,,270.9995084000111,None,,,,,,,,,,,,272.1008988000103,None,k,1,0.78850410002633,272.1008988000103,None,,,,,14,001,2022_Oct_13_1104,Version4,2021.2.0,239.2230035606401,
blue_congruent,1,a,left,blue,-0.6,,,,,,,,,5,4,34,0,,,,,,,272.9058659999864,None,,,,,,,,,,,,274.0195221999893,None,a,1,1.302367600001162,274.0195221999893,None,,,,,14,001,2022_Oct_13_1104,Version4,2021.2.0,239.2230035606401,
red_incongruent,0,k,left,red,-0.6,,,,,,,,,5,5,35,3,,,,,,,275.33743439998943,None,,,,,,,,,,,,276.42205880000256,None,k,1,0.7239194999856409,276.42205880000256,None,,,,,14,001,2022_Oct_13_1104,Version4,2021.2.0,239.2230035606401,
red_congruent,1,k,right,red,0.6,,,,,,,,,6,0,36,1,,,,,,,277.160223999992,None,,,,,,,,,,,,278.2989755999879,None,k,1,0.6312523999949917,278.2989755999879,None,,,,,14,001,2022_Oct_13_1104,Version4,2021.2.0,239.2230035606401,
red_incongruent,0,k,left,red,-0.6,,,,,,,,,6,1,37,3,,,,,,,278.94142660000944,None,,,,,,,,,,,,280.03828079998493,None,k,1,0.6681891000189353,280.03828079998493,None,,,,,14,001,2022_Oct_13_1104,Version4,2021.2.0,239.2230035606401,
red_congruent,1,k,right,red,0.6,,,,,,,,,6,2,38,1,,,,,,,280.72234569999273,None,,,,,,,,,,,,281.7860501999967,None,k,1,0.8327821000129916,281.7860501999967,None,,,,,14,001,2022_Oct_13_1104,Version4,2021.2.0,239.2230035606401,
red_neutral,0,k,middle,red,0,,,,,,,,,6,3,39,4,,,,,,,282.63687719998416,None,,,,,,,,,,,,283.7839187000063,None,k,1,0.5791408999939449,283.7839187000063,None,,,,,14,001,2022_Oct_13_1104,Version4,2021.2.0,239.2230035606401,
red_congruent,1,k,right,red,0.6,,,,,,,,,6,4,40,1,,,,,,,284.3757595999923,None,,,,,,,,,,,,285.49822529999074,None,k,1,0.5211395000224002,285.49822529999074,None,,,,,14,001,2022_Oct_13_1104,Version4,2021.2.0,239.2230035606401,
blue_neutral,0,a,middle,blue,0,,,,,,,,,6,5,41,5,,,,,,,286.03654810000444,None,,,,,,,,,,,,287.14162800001213,None,a,1,0.549807100003818,287.14162800001213,None,,,,,14,001,2022_Oct_13_1104,Version4,2021.2.0,239.2230035606401,
red_neutral,0,k,middle,red,0,,,,,,,,,7,0,42,4,,,,,,,287.7047467000084,None,,,,,,,,,,,,288.7726055000094,None,k,1,0.871085699996911,288.7726055000094,None,,,,,14,001,2022_Oct_13_1104,Version4,2021.2.0,239.2230035606401,
red_neutral,0,k,middle,red,0,,,,,,,,,7,1,43,4,,,,,,,289.6570528000011,None,,,,,,,,,,,,290.8164439999964,None,k,1,0.523469700012356,290.8164439999964,None,,,,,14,001,2022_Oct_13_1104,Version4,2021.2.0,239.2230035606401,
blue_neutral,0,a,middle,blue,0,,,,,,,,,7,2,44,5,,,,,,,291.3545984000084,None,,,,,,,,,,,,292.40555470000254,None,a,1,0.4706960000039544,292.40555470000254,None,,,,,14,001,2022_Oct_13_1104,Version4,2021.2.0,239.2230035606401,
blue_congruent,1,a,left,blue,-0.6,,,,,,,,,7,3,45,0,,,,,,,292.88954309999826,None,,,,,,,,,,,,294.0991100000101,None,a,1,0.7692481999984011,294.0991100000101,None,,,,,14,001,2022_Oct_13_1104,Version4,2021.2.0,239.2230035606401,
blue_incongruent,0,a,right,blue,0.6,,,,,,,,,7,4,46,2,,,,,,,294.8790650999872,None,,,,,,,,,,,,296.0428197000001,None,a,1,0.5777709000103641,296.0428197000001,None,,,,,14,001,2022_Oct_13_1104,Version4,2021.2.0,239.2230035606401,
red_incongruent,0,k,left,red,-0.6,,,,,,,,,7,5,47,3,,,,,,,296.63938330000383,None,,,,,,,,,,,,297.79876770000556,None,k,1,0.9181308999832254,297.79876770000556,None,,,,,14,001,2022_Oct_13_1104,Version4,2021.2.0,239.2230035606401,
,,,,,,,,,,,,,,,,,,,,,,,,,,,,,,,,,,,,,,,,,,,,space,1.611540200014133,,,14,001,2022_Oct_13_1104,Version4,2021.2.0,239.2230035606401,
blue_neutral,0,a,middle,blue,0,,,,,,,,,,,,,0,0,0,5,,,300.38067479999154,None,,,,,,,,,,,,301.5697011000011,None,a,1,0.8758510999905411,301.5697011000011,None,,,,,14,001,2022_Oct_13_1104,Version4,2021.2.0,239.2230035606401,
red_neutral,0,k,middle,red,0,,,,,,,,,,,,,0,1,1,4,,,302.4622439999948,None,,,,,,,,,,,,303.5715472000011,None,k,1,0.5302605000033509,303.5715472000011,None,,,,,14,001,2022_Oct_13_1104,Version4,2021.2.0,239.2230035606401,
red_incongruent,0,k,left,red,-0.6,,,,,,,,,,,,,0,2,2,3,,,304.11807399999816,None,,,,,,,,,,,,305.14009450000594,None,k,1,0.5459025999880396,305.14009450000594,None,,,,,14,001,2022_Oct_13_1104,Version4,2021.2.0,239.2230035606401,
red_incongruent,0,k,left,red,-0.6,,,,,,,,,,,,,0,3,3,3,,,305.69892940000864,None,,,,,,,,,,,,306.82512990001123,None,k,1,0.6129338999744505,306.82512990001123,None,,,,,14,001,2022_Oct_13_1104,Version4,2021.2.0,239.2230035606401,
blue_congruent,1,a,left,blue,-0.6,,,,,,,,,,,,,0,4,4,0,,,307.4506290999998,None,,,,,,,,,,,,308.5559829999984,None,a,1,0.52265100000659,308.5559829999984,None,,,,,14,001,2022_Oct_13_1104,Version4,2021.2.0,239.2230035606401,
red_congruent,1,k,right,red,0.6,,,,,,,,,,,,,0,5,5,1,,,309.0941964999947,None,,,,,,,,,,,,310.20798300000024,None,k,1,0.5827892000088468,310.20798300000024,None,,,,,14,001,2022_Oct_13_1104,Version4,2021.2.0,239.2230035606401,
red_congruent,1,k,right,red,0.6,,,,,,,,,,,,,1,0,6,1,,,310.80849249998573,None,,,,,,,,,,,,311.90551740000956,None,k,1,0.557418799988227,311.90551740000956,None,,,,,14,001,2022_Oct_13_1104,Version4,2021.2.0,239.2230035606401,
red_congruent,1,k,right,red,0.6,,,,,,,,,,,,,1,1,7,1,,,312.4812407999998,None,,,,,,,,,,,,313.5738032000081,None,k,1,0.6574544000031892,313.5738032000081,None,,,,,14,001,2022_Oct_13_1104,Version4,2021.2.0,239.2230035606401,
red_congruent,1,k,right,red,0.6,,,,,,,,,,,,,1,2,8,1,,,314.2495118000079,None,,,,,,,,,,,,315.3298327999946,None,k,1,0.4696911000064574,315.3298327999946,None,,,,,14,001,2022_Oct_13_1104,Version4,2021.2.0,239.2230035606401,
blue_incongruent,0,a,right,blue,0.6,,,,,,,,,,,,,1,3,9,2,,,315.8181809000089,None,,,,,,,,,,,,316.93152769998414,None,a,1,0.7162079999980051,316.93152769998414,None,,,,,14,001,2022_Oct_13_1104,Version4,2021.2.0,239.2230035606401,
red_congruent,1,k,right,red,0.6,,,,,,,,,,,,,1,4,10,1,,,317.6610179999843,None,,,,,,,,,,,,318.7251040999836,None,k,1,0.49883180001052096,318.7251040999836,None,,,,,14,001,2022_Oct_13_1104,Version4,2021.2.0,239.2230035606401,
blue_neutral,0,a,middle,blue,0,,,,,,,,,,,,,1,5,11,5,,,319.24246579999453,None,,,,,,,,,,,,320.42279849998886,None,a,1,0.6011514000128955,320.42279849998886,None,,,,,14,001,2022_Oct_13_1104,Version4,2021.2.0,239.2230035606401,
blue_congruent,1,a,left,blue,-0.6,,,,,,,,,,,,,2,0,12,0,,,321.0360311999975,None,,,,,,,,,,,,322.1288305000053,None,a,1,0.5914119000080973,322.1288305000053,None,,,,,14,001,2022_Oct_13_1104,Version4,2021.2.0,239.2230035606401,
blue_congruent,1,a,left,blue,-0.6,,,,,,,,,,,,,2,1,13,0,,,322.7336270000087,None,,,,,,,,,,,,323.92654640000546,None,a,1,0.6420059999800287,323.92654640000546,None,,,,,14,001,2022_Oct_13_1104,Version4,2021.2.0,239.2230035606401,
red_neutral,0,k,middle,red,0,,,,,,,,,,,,,2,2,14,4,,,324.58560150000267,None,,,,,,,,,,,,325.7992433999898,None,k,1,0.569415800011484,325.7992433999898,None,,,,,14,001,2022_Oct_13_1104,Version4,2021.2.0,239.2230035606401,
blue_congruent,1,a,left,blue,-0.6,,,,,,,,,,,,,2,3,15,0,,,326.3832148000074,None,,,,,,,,,,,,327.49292910000077,None,a,1,1.0041663000010885,327.49292910000077,None,,,,,14,001,2022_Oct_13_1104,Version4,2021.2.0,239.2230035606401,
blue_incongruent,0,a,right,blue,0.6,,,,,,,,,,,,,2,4,16,2,,,328.5107694999897,None,,,,,,,,,,,,329.7036022999964,None,k,0,0.7376671000092756,329.7036022999964,None,,,,,14,001,2022_Oct_13_1104,Version4,2021.2.0,239.2230035606401,
red_congruent,1,k,right,red,0.6,,,,,,,,,,,,,2,5,17,1,,,330.4543340000091,None,,,,,,,,,,,,331.53462369999033,None,k,1,2.5550605000171345,331.53462369999033,None,,,,,14,001,2022_Oct_13_1104,Version4,2021.2.0,239.2230035606401,
red_neutral,0,k,middle,red,0,,,,,,,,,,,,,3,0,18,4,,,334.1039613999892,None,,,,,,,,,,,,335.3094781000109,None,k,1,0.7166275999916252,335.3094781000109,None,,,,,14,001,2022_Oct_13_1104,Version4,2021.2.0,239.2230035606401,
blue_incongruent,0,a,right,blue,0.6,,,,,,,,,,,,,3,1,19,2,,,336.04363070000545,None,,,,,,,,,,,,337.14483800000744,None,a,1,0.6334801999910269,337.14483800000744,None,,,,,14,001,2022_Oct_13_1104,Version4,2021.2.0,239.2230035606401,
red_neutral,0,k,middle,red,0,,,,,,,,,,,,,3,2,20,4,,,337.7954427000077,None,,,,,,,,,,,,338.9216739000112,None,k,1,0.7208378999785054,338.9216739000112,None,,,,,14,001,2022_Oct_13_1104,Version4,2021.2.0,239.2230035606401,
blue_congruent,1,a,left,blue,-0.6,,,,,,,,,,,,,3,3,21,0,,,339.6556175999867,None,,,,,,,,,,,,340.84036679999554,None,a,1,1.0983844000147656,340.84036679999554,None,,,,,14,001,2022_Oct_13_1104,Version4,2021.2.0,239.2230035606401,
blue_incongruent,0,a,right,blue,0.6,,,,,,,,,,,,,3,4,22,2,,,341.9540022999863,None,,,,,,,,,,,,343.1219695000036,None,a,1,0.7610713999893051,343.1219695000036,None,,,,,14,001,2022_Oct_13_1104,Version4,2021.2.0,239.2230035606401,
red_incongruent,0,k,left,red,-0.6,,,,,,,,,,,,,3,5,23,3,,,343.8977402999881,None,,,,,,,,,,,,345.0365232999902,None,k,1,1.0707425000146031,345.0365232999902,None,,,,,14,001,2022_Oct_13_1104,Version4,2021.2.0,239.2230035606401,
blue_neutral,0,a,middle,blue,0,,,,,,,,,,,,,4,0,24,5,,,346.1208581000101,None,,,,,,,,,,,,347.2512940999877,None,a,1,0.7683036999951582,347.2512940999877,None,,,,,14,001,2022_Oct_13_1104,Version4,2021.2.0,239.2230035606401,
blue_congruent,1,a,left,blue,-0.6,,,,,,,,,,,,,4,1,25,0,,,348.03548829999636,None,,,,,,,,,,,,349.2032140000083,None,a,1,0.6966479999828152,349.2032140000083,None,,,,,14,001,2022_Oct_13_1104,Version4,2021.2.0,239.2230035606401,
red_neutral,0,k,middle,red,0,,,,,,,,,,,,,4,2,26,4,,,349.9164738999971,None,,,,,,,,,,,,351.0762451000046,None,k,1,0.6798144000058528,351.0762451000046,None,,,,,14,001,2022_Oct_13_1104,Version4,2021.2.0,239.2230035606401,
blue_incongruent,0,a,right,blue,0.6,,,,,,,,,,,,,4,3,27,2,,,351.7685999000096,None,,,,,,,,,,,,352.8655606000102,None,a,1,0.7788234999752603,352.8655606000102,None,,,,,14,001,2022_Oct_13_1104,Version4,2021.2.0,239.2230035606401,
blue_congruent,1,a,left,blue,-0.6,,,,,,,,,,,,,4,4,28,0,,,353.65796320000663,None,,,,,,,,,,,,354.738277299999,None,a,1,0.8425025999895297,354.738277299999,None,,,,,14,001,2022_Oct_13_1104,Version4,2021.2.0,239.2230035606401,
red_incongruent,0,k,left,red,-0.6,,,,,,,,,,,,,4,5,29,3,,,355.5975192000042,None,,,,,,,,,,,,356.7698027000006,None,k,1,0.7150243000069167,356.7698027000006,None,,,,,14,001,2022_Oct_13_1104,Version4,2021.2.0,239.2230035606401,
red_neutral,0,k,middle,red,0,,,,,,,,,,,,,5,0,30,4,,,357.4997158999904,None,,,,,,,,,,,,358.65094779999345,None,k,1,0.5862747000064701,358.65094779999345,None,,,,,14,001,2022_Oct_13_1104,Version4,2021.2.0,239.2230035606401,
red_incongruent,0,k,left,red,-0.6,,,,,,,,,,,,,5,1,31,3,,,359.25151339999866,None,,,,,,,,,,,,360.3444674999919,None,k,1,0.668881199992029,360.3444674999919,None,,,,,14,001,2022_Oct_13_1104,Version4,2021.2.0,239.2230035606401,
blue_neutral,0,a,middle,blue,0,,,,,,,,,,,,,5,2,32,5,,,361.02845250000246,None,,,,,,,,,,,,362.07117290000315,None,a,1,0.6866187999839894,362.07117290000315,None,,,,,14,001,2022_Oct_13_1104,Version4,2021.2.0,239.2230035606401,
red_incongruent,0,k,left,red,-0.6,,,,,,,,,,,,,5,3,33,3,,,362.77616360000684,None,,,,,,,,,,,,363.852286999987,None,k,1,2.3137266999983694,363.852286999987,None,,,,,14,001,2022_Oct_13_1104,Version4,2021.2.0,239.2230035606401,
red_congruent,1,k,right,red,0.6,,,,,,,,,,,,,5,4,34,1,,,366.17972509999527,None,,,,,,,,,,,,367.28493829999934,None,k,1,0.8412996999977622,367.28493829999934,None,,,,,14,001,2022_Oct_13_1104,Version4,2021.2.0,239.2230035606401,
red_incongruent,0,k,left,red,-0.6,,,,,,,,,,,,,5,5,35,3,,,368.14436969999224,None,,,,,,,,,,,,369.27056420000736,None,k,1,0.6879706000036094,369.27056420000736,None,,,,,14,001,2022_Oct_13_1104,Version4,2021.2.0,239.2230035606401,
blue_incongruent,0,a,right,blue,0.6,,,,,,,,,,,,,6,0,36,2,,,369.9710466999968,None,,,,,,,,,,,,371.0765354000032,None,a,1,0.6582568000012543,371.0765354000032,None,,,,,14,001,2022_Oct_13_1104,Version4,2021.2.0,239.2230035606401,
red_incongruent,0,k,left,red,-0.6,,,,,,,,,,,,,6,1,37,3,,,371.75212920000195,None,,,,,,,,,,,,372.8325743000023,None,k,1,1.3265550000069197,372.8325743000023,None,,,,,14,001,2022_Oct_13_1104,Version4,2021.2.0,239.2230035606401,
blue_neutral,0,a,middle,blue,0,,,,,,,,,,,,,6,2,38,5,,,374.17155949998414,None,,,,,,,,,,,,375.2308020000055,None,a,1,0.7526239999860991,375.2308020000055,None,,,,,14,001,2022_Oct_13_1104,Version4,2021.2.0,239.2230035606401,
blue_neutral,0,a,middle,blue,0,,,,,,,,,,,,,6,3,39,5,,,375.9984688000113,None,,,,,,,,,,,,377.10778990000836,None,a,1,1.396057000005385,377.10778990000836,None,,,,,14,001,2022_Oct_13_1104,Version4,2021.2.0,239.2230035606401,
red_neutral,0,k,middle,red,0,,,,,,,,,,,,,6,4,40,4,,,378.5219208000053,None,,,,,,,,,,,,379.54392019999796,None,k,1,1.864167499996256,379.54392019999796,None,,,,,14,001,2022_Oct_13_1104,Version4,2021.2.0,239.2230035606401,
red_neutral,0,k,middle,red,0,,,,,,,,,,,,,6,5,41,4,,,381.420835900004,None,,,,,,,,,,,,382.5595791999949,None,k,1,0.5847593999933451,382.5595791999949,None,,,,,14,001,2022_Oct_13_1104,Version4,2021.2.0,239.2230035606401,
blue_neutral,0,a,middle,blue,0,,,,,,,,,,,,,7,0,42,5,,,383.160020100011,None,,,,,,,,,,,,384.2446620000119,None,a,1,0.5718635999946855,384.2446620000119,None,,,,,14,001,2022_Oct_13_1104,Version4,2021.2.0,239.2230035606401,
blue_incongruent,0,a,right,blue,0.6,,,,,,,,,,,,,7,1,43,2,,,384.82860380000784,None,,,,,,,,,,,,385.92994070000714,None,a,1,0.7510143999825232,385.92994070000714,None,,,,,14,001,2022_Oct_13_1104,Version4,2021.2.0,239.2230035606401,
red_congruent,1,k,right,red,0.6,,,,,,,,,,,,,7,2,44,1,,,386.6972739000048,None,,,,,,,,,,,,387.86516230000416,None,k,1,0.5039918999827933,387.86516230000416,None,,,,,14,001,2022_Oct_13_1104,Version4,2021.2.0,239.2230035606401,
blue_neutral,0,a,middle,blue,0,,,,,,,,,,,,,7,3,45,5,,,388.38646710000467,None,,,,,,,,,,,,389.500183199998,None,a,1,1.0131897999963257,389.500183199998,None,,,,,14,001,2022_Oct_13_1104,Version4,2021.2.0,239.2230035606401,
blue_congruent,1,a,left,blue,-0.6,,,,,,,,,,,,,7,4,46,0,,,390.5263311000017,None,,,,,,,,,,,,391.6565566000063,None,a,1,1.3611415999766905,391.6565566000063,None,,,,,14,001,2022_Oct_13_1104,Version4,2021.2.0,239.2230035606401,
blue_incongruent,0,a,right,blue,0.6,,,,,,,,,,,,,7,5,47,2,,,393.03335929999594,None,,,,,,,,,,,,394.09676710001077,None,a,1,0.7614640999818221,394.09676710001077,None,,,,,14,001,2022_Oct_13_1104,Version4,2021.2.0,239.2230035606401,
,,,,,,,,,,,,,,,,,,,,,,,,,,,,,,,,,,,,,,,,,,,,space,2.461274200002663,,,14,001,2022_Oct_13_1104,Version4,2021.2.0,239.2230035606401,
,,,,,,,,,,,,,,,,,,,,,,,,,,,,,,,,,,,,,,,,,,,,,,space,13.937360199983232,14,001,2022_Oct_13_1104,Version4,2021.2.0,239.2230035606401,
