images,congruentcy,corrAns,box_pos,box_color,box_x,pract.thisRepN,pract.thisTrialN,pract.thisN,pract.thisIndex,trials.thisRepN,trials.thisTrialN,trials.thisN,trials.thisIndex,trials_2.thisRepN,trials_2.thisTrialN,trials_2.thisN,trials_2.thisIndex,trials_3.thisRepN,trials_3.thisTrialN,trials_3.thisN,trials_3.thisIndex,key_resp_instr.keys,key_resp_instr.rt,FixCross.started,FixCross.stopped,Box_p.started,Box_p.stopped,key_resp_P.keys,key_resp_P.corr,key_resp_P.rt,key_resp_P.started,key_resp_P.stopped,text_3.started,text_3.stopped,key_resp_2.keys,key_resp_2.rt,Box.started,Box.stopped,key_resp.keys,key_resp.corr,key_resp.rt,key_resp.started,key_resp.stopped,key_resp_3.keys,key_resp_3.rt,key_resp_4.keys,key_resp_4.rt,participant,session,date,expName,psychopyVersion,frameRate,
,,,,,,,,,,,,,,,,,,,,,,space,10.946653000000424,,,,,,,,,,,,,,,,,,,,,,,,,15,001,2022_Oct_19_1259,Version4,2021.2.0,241.9667053798833,
red_congruent,1,k,right,red,0.6,0,0,0,1,,,,,,,,,,,,,,,21.276201800000308,None,22.28980790000014,None,k,1,0.7300642999998672,22.28980790000014,None,,,,,,,,,,,,,,,,15,001,2022_Oct_19_1259,Version4,2021.2.0,241.9667053798833,
red_neutral,0,k,middle,red,0,0,1,1,4,,,,,,,,,,,,,,,24.037722099999883,None,25.117743600000267,None,k,1,1.1024962000001324,25.117743600000267,None,,,,,,,,,,,,,,,,15,001,2022_Oct_19_1259,Version4,2021.2.0,241.9667053798833,
red_incongruent,0,k,left,red,-0.6,0,2,2,3,,,,,,,,,,,,,,,27.23666800000001,None,28.287763499999983,None,k,1,0.6371400000002723,28.287763499999983,None,,,,,,,,,,,,,,,,15,001,2022_Oct_19_1259,Version4,2021.2.0,241.9667053798833,
blue_congruent,1,a,left,blue,-0.6,0,3,3,0,,,,,,,,,,,,,,,29.947852700000112,None,31.074069000000236,None,a,1,0.5469000000002779,31.074069000000236,None,,,,,,,,,,,,,,,,15,001,2022_Oct_19_1259,Version4,2021.2.0,241.9667053798833,
blue_neutral,0,a,middle,blue,0,0,4,4,5,,,,,,,,,,,,,,,32.63820979999991,None,33.72279770000023,None,a,1,0.49054389999992054,33.72279770000023,None,,,,,,,,,,,,,,,,15,001,2022_Oct_19_1259,Version4,2021.2.0,241.9667053798833,
red_incongruent,0,k,left,red,-0.6,0,5,5,3,,,,,,,,,,,,,,,35.23680259999992,None,36.31297549999999,None,k,1,0.5887190000003102,36.31297549999999,None,,,,,,,,,,,,,,,,15,001,2022_Oct_19_1259,Version4,2021.2.0,241.9667053798833,
blue_congruent,1,a,left,blue,-0.6,1,0,6,0,,,,,,,,,,,,,,,37.91465160000007,None,39.032592999999906,None,a,1,0.2934643000003234,39.032592999999906,None,,,,,,,,,,,,,,,,15,001,2022_Oct_19_1259,Version4,2021.2.0,241.9667053798833,
blue_congruent,1,a,left,blue,-0.6,1,1,7,0,,,,,,,,,,,,,,,40.346669999999904,None,41.47703929999989,None,a,1,0.5293980999999803,41.47703929999989,None,,,,,,,,,,,,,,,,15,001,2022_Oct_19_1259,Version4,2021.2.0,241.9667053798833,
blue_neutral,0,a,middle,blue,0,1,2,8,5,,,,,,,,,,,,,,,43.020063700000264,None,44.17972000000009,None,k,0,0.515059199999996,44.17972000000009,None,,,,,,,,,,,,,,,,15,001,2022_Oct_19_1259,Version4,2021.2.0,241.9667053798833,
blue_incongruent,0,a,right,blue,0.6,1,3,9,2,,,,,,,,,,,,,,,45.718920600000274,None,46.7865898,None,a,1,0.7966207999998005,46.7865898,None,,,,,,,,,,,,,,,,15,001,2022_Oct_19_1259,Version4,2021.2.0,241.9667053798833,
red_neutral,0,k,middle,red,0,1,4,10,4,,,,,,,,,,,,,,,48.60102860000006,None,49.718859500000235,None,k,1,0.3446982999998909,49.718859500000235,None,,,,,,,,,,,,,,,,15,001,2022_Oct_19_1259,Version4,2021.2.0,241.9667053798833,
red_neutral,0,k,middle,red,0,1,5,11,4,,,,,,,,,,,,,,,51.08310080000001,None,52.14231440000003,None,a,0,0.9456507999998394,52.14231440000003,None,,,,,,,,,,,,,,,,15,001,2022_Oct_19_1259,Version4,2021.2.0,241.9667053798833,
red_incongruent,0,k,left,red,-0.6,2,0,12,3,,,,,,,,,,,,,,,54.10699700000032,None,55.27502860000004,None,k,1,1.5733961999999337,55.27502860000004,None,,,,,,,,,,,,,,,,15,001,2022_Oct_19_1259,Version4,2021.2.0,241.9667053798833,
blue_congruent,1,a,left,blue,-0.6,2,1,13,0,,,,,,,,,,,,,,,57.86100310000029,None,58.991536200000155,None,a,1,0.36124930000005406,58.991536200000155,None,,,,,,,,,,,,,,,,15,001,2022_Oct_19_1259,Version4,2021.2.0,241.9667053798833,
red_incongruent,0,k,left,red,-0.6,2,2,14,3,,,,,,,,,,,,,,,60.37630190000027,None,61.431652700000086,None,k,1,0.6177926999998817,61.431652700000086,None,,,,,,,,,,,,,,,,15,001,2022_Oct_19_1259,Version4,2021.2.0,241.9667053798833,
red_neutral,0,k,middle,red,0,2,3,15,4,,,,,,,,,,,,,,,63.0663555000001,None,64.1967236999999,None,k,1,0.6048304999999345,64.1967236999999,None,,,,,,,,,,,,,,,,15,001,2022_Oct_19_1259,Version4,2021.2.0,241.9667053798833,
blue_incongruent,0,a,right,blue,0.6,2,4,16,2,,,,,,,,,,,,,,,65.81926250000015,None,67.06668300000001,None,a,1,0.7592965999997432,67.06668300000001,None,,,,,,,,,,,,,,,,15,001,2022_Oct_19_1259,Version4,2021.2.0,241.9667053798833,
red_congruent,1,k,right,red,0.6,2,5,17,1,,,,,,,,,,,,,,,68.84365130000015,None,69.98214340000004,None,k,1,0.46814949999998134,69.98214340000004,None,,,,,,,,,,,,,,,,15,001,2022_Oct_19_1259,Version4,2021.2.0,241.9667053798833,
blue_incongruent,0,a,right,blue,0.6,3,0,18,2,,,,,,,,,,,,,,,71.4711029,None,72.58477630000016,None,a,1,0.6579093000000285,72.58477630000016,None,,,,,,,,,,,,,,,,15,001,2022_Oct_19_1259,Version4,2021.2.0,241.9667053798833,
blue_neutral,0,a,middle,blue,0,3,1,19,5,,,,,,,,,,,,,,,74.2615581,None,75.40444400000024,None,a,1,0.6226023999997778,75.40444400000024,None,,,,,,,,,,,,,,,,15,001,2022_Oct_19_1259,Version4,2021.2.0,241.9667053798833,
red_congruent,1,k,right,red,0.6,3,2,20,1,,,,,,,,,,,,,,,77.04392970000026,None,78.11573720000024,None,k,1,0.39185330000009344,78.11573720000024,None,,,,,,,,,,,,,,,,15,001,2022_Oct_19_1259,Version4,2021.2.0,241.9667053798833,
red_congruent,1,k,right,red,0.6,3,3,21,1,,,,,,,,,,,,,,,79.52992459999996,None,80.6100236000002,None,k,1,0.8097896999997829,80.6100236000002,None,,,,,,,,,,,,,,,,15,001,2022_Oct_19_1259,Version4,2021.2.0,241.9667053798833,
blue_neutral,0,a,middle,blue,0,3,4,22,5,,,,,,,,,,,,,,,82.44135159999996,None,83.54224759999988,None,a,1,0.26218169999992824,83.54224759999988,None,,,,,,,,,,,,,,,,15,001,2022_Oct_19_1259,Version4,2021.2.0,241.9667053798833,
blue_incongruent,0,a,right,blue,0.6,3,5,23,2,,,,,,,,,,,,,,,84.82277310000018,None,85.8572024,None,a,1,0.6273052999999891,85.8572024,None,,,,,,,,,,,,,,,,15,001,2022_Oct_19_1259,Version4,2021.2.0,241.9667053798833,
,,,,,,,,,,,,,,,,,,,,,,,,,,,,,,,,,87.5090325000001,None,space,4.914696100000128,,,,,,,,,,,,15,001,2022_Oct_19_1259,Version4,2021.2.0,241.9667053798833,
blue_neutral,0,a,middle,blue,0,,,,,0,0,0,5,,,,,,,,,,,94.4414085000003,None,,,,,,,,,,,,95.48834080000006,None,a,1,0.5094657999998162,95.48834080000006,None,,,,,15,001,2022_Oct_19_1259,Version4,2021.2.0,241.9667053798833,
red_incongruent,0,k,left,red,-0.6,,,,,0,1,1,3,,,,,,,,,,,96.01409349999994,None,,,,,,,,,,,,97.20675770000025,None,k,1,0.799613700000009,97.20675770000025,None,,,,,15,001,2022_Oct_19_1259,Version4,2021.2.0,241.9667053798833,
red_incongruent,0,k,left,red,-0.6,,,,,0,2,2,3,,,,,,,,,,,98.02461410000024,None,,,,,,,,,,,,99.15047910000021,None,k,1,0.4238252999998622,99.15047910000021,None,,,,,15,001,2022_Oct_19_1259,Version4,2021.2.0,241.9667053798833,
blue_incongruent,0,a,right,blue,0.6,,,,,0,3,3,2,,,,,,,,,,,99.5887646000001,None,,,,,,,,,,,,100.66876060000004,None,a,1,0.6497659999999996,100.66876060000004,None,,,,,15,001,2022_Oct_19_1259,Version4,2021.2.0,241.9667053798833,
blue_neutral,0,a,middle,blue,0,,,,,0,4,4,5,,,,,,,,,,,101.33226160000004,None,,,,,,,,,,,,102.38316740000027,None,a,1,0.41556130000026315,102.38316740000027,None,,,,,15,001,2022_Oct_19_1259,Version4,2021.2.0,241.9667053798833,
red_neutral,0,k,middle,red,0,,,,,0,5,5,4,,,,,,,,,,,102.81279829999994,None,,,,,,,,,,,,103.9472496000003,None,k,1,0.37166000000024724,103.9472496000003,None,,,,,15,001,2022_Oct_19_1259,Version4,2021.2.0,241.9667053798833,
red_neutral,0,k,middle,red,0,,,,,1,0,6,4,,,,,,,,,,,104.33128710000028,None,,,,,,,,,,,,105.37800070000003,None,k,1,0.40515060000006997,105.37800070000003,None,,,,,15,001,2022_Oct_19_1259,Version4,2021.2.0,241.9667053798833,
blue_congruent,1,a,left,blue,-0.6,,,,,1,1,7,0,,,,,,,,,,,105.79946560000008,None,,,,,,,,,,,,107.02966800000013,None,a,1,0.3936988999998903,107.02966800000013,None,,,,,15,001,2022_Oct_19_1259,Version4,2021.2.0,241.9667053798833,
red_neutral,0,k,middle,red,0,,,,,1,2,8,4,,,,,,,,,,,107.43873780000013,None,,,,,,,,,,,,108.50624830000015,None,k,1,0.43736489999992045,108.50624830000015,None,,,,,15,001,2022_Oct_19_1259,Version4,2021.2.0,241.9667053798833,
blue_congruent,1,a,left,blue,-0.6,,,,,1,3,9,0,,,,,,,,,,,108.95671459999994,None,,,,,,,,,,,,110.0537220000001,None,a,1,0.378071799999816,110.0537220000001,None,,,,,15,001,2022_Oct_19_1259,Version4,2021.2.0,241.9667053798833,
blue_congruent,1,a,left,blue,-0.6,,,,,1,4,10,0,,,,,,,,,,,110.44173940000019,None,,,,,,,,,,,,111.51778349999995,None,a,1,0.39419090000001233,111.51778349999995,None,,,,,15,001,2022_Oct_19_1259,Version4,2021.2.0,241.9667053798833,
red_neutral,0,k,middle,red,0,,,,,1,5,11,4,,,,,,,,,,,111.92661980000003,None,,,,,,,,,,,,113.06942530000015,None,k,1,0.33074729999998453,113.06942530000015,None,,,,,15,001,2022_Oct_19_1259,Version4,2021.2.0,241.9667053798833,
red_congruent,1,k,right,red,0.6,,,,,2,0,12,1,,,,,,,,,,,113.42006190000029,None,,,,,,,,,,,,114.54189159999987,None,k,1,0.3785245999997642,114.54189159999987,None,,,,,15,001,2022_Oct_19_1259,Version4,2021.2.0,241.9667053798833,
red_incongruent,0,k,left,red,-0.6,,,,,2,1,13,3,,,,,,,,,,,114.93418939999992,None,,,,,,,,,,,,116.08103000000028,None,k,1,0.3435832999998638,116.08103000000028,None,,,,,15,001,2022_Oct_19_1259,Version4,2021.2.0,241.9667053798833,
blue_neutral,0,a,middle,blue,0,,,,,2,2,14,5,,,,,,,,,,,116.43965350000008,None,,,,,,,,,,,,117.52413969999998,None,a,1,0.5886666999999761,117.52413969999998,None,,,,,15,001,2022_Oct_19_1259,Version4,2021.2.0,241.9667053798833,
blue_congruent,1,a,left,blue,-0.6,,,,,2,3,15,0,,,,,,,,,,,118.1250872999999,None,,,,,,,,,,,,119.23428240000021,None,a,1,0.7347774999998364,119.23428240000021,None,,,,,15,001,2022_Oct_19_1259,Version4,2021.2.0,241.9667053798833,
red_incongruent,0,k,left,red,-0.6,,,,,2,4,16,3,,,,,,,,,,,119.97685460000002,None,,,,,,,,,,,,121.0282715000003,None,a,0,0.3969976000003044,121.0282715000003,None,,,,,15,001,2022_Oct_19_1259,Version4,2021.2.0,241.9667053798833,
blue_incongruent,0,a,right,blue,0.6,,,,,2,5,17,2,,,,,,,,,,,121.43695950000028,None,,,,,,,,,,,,122.4502064000003,None,a,1,0.8233415999998215,122.4502064000003,None,,,,,15,001,2022_Oct_19_1259,Version4,2021.2.0,241.9667053798833,
red_incongruent,0,k,left,red,-0.6,,,,,3,0,18,3,,,,,,,,,,,123.29291300000023,None,,,,,,,,,,,,124.43148289999999,None,k,1,0.3462704999997186,124.43148289999999,None,,,,,15,001,2022_Oct_19_1259,Version4,2021.2.0,241.9667053798833,
red_congruent,1,k,right,red,0.6,,,,,3,1,19,1,,,,,,,,,,,124.79436720000012,None,,,,,,,,,,,,125.89136749999989,None,k,1,0.3105722999998761,125.89136749999989,None,,,,,15,001,2022_Oct_19_1259,Version4,2021.2.0,241.9667053798833,
red_congruent,1,k,right,red,0.6,,,,,3,2,20,1,,,,,,,,,,,126.21703250000019,None,,,,,,,,,,,,127.26811989999987,None,k,1,0.34229259999983697,127.26811989999987,None,,,,,15,001,2022_Oct_19_1259,Version4,2021.2.0,241.9667053798833,
blue_incongruent,0,a,right,blue,0.6,,,,,3,3,21,2,,,,,,,,,,,127.62671099999989,None,,,,,,,,,,,,128.71132650000027,None,a,1,0.46723359999987224,128.71132650000027,None,,,,,15,001,2022_Oct_19_1259,Version4,2021.2.0,241.9667053798833,
blue_incongruent,0,a,right,blue,0.6,,,,,3,4,22,2,,,,,,,,,,,129.19505290000006,None,,,,,,,,,,,,130.36729100000002,None,a,1,0.41929890000028536,130.36729100000002,None,,,,,15,001,2022_Oct_19_1259,Version4,2021.2.0,241.9667053798833,
blue_incongruent,0,a,right,blue,0.6,,,,,3,5,23,2,,,,,,,,,,,130.80090500000006,None,,,,,,,,,,,,131.95642610000004,None,a,1,0.3585958999997274,131.95642610000004,None,,,,,15,001,2022_Oct_19_1259,Version4,2021.2.0,241.9667053798833,
blue_neutral,0,a,middle,blue,0,,,,,4,0,24,5,,,,,,,,,,,132.3317035,None,,,,,,,,,,,,133.40377770000032,None,a,1,0.3591965999999047,133.40377770000032,None,,,,,15,001,2022_Oct_19_1259,Version4,2021.2.0,241.9667053798833,
blue_congruent,1,a,left,blue,-0.6,,,,,4,1,25,0,,,,,,,,,,,133.77917860000025,None,,,,,,,,,,,,135.03055200000017,None,a,1,0.38863009999977294,135.03055200000017,None,,,,,15,001,2022_Oct_19_1259,Version4,2021.2.0,241.9667053798833,
red_neutral,0,k,middle,red,0,,,,,4,2,26,4,,,,,,,,,,,135.43068029999995,None,,,,,,,,,,,,136.59885160000022,None,k,1,0.8448956000001999,136.59885160000022,None,,,,,15,001,2022_Oct_19_1259,Version4,2021.2.0,241.9667053798833,
blue_incongruent,0,a,right,blue,0.6,,,,,4,3,27,2,,,,,,,,,,,137.45363670000006,None,,,,,,,,,,,,138.50058720000015,None,a,1,0.5754612000000634,138.50058720000015,None,,,,,15,001,2022_Oct_19_1259,Version4,2021.2.0,241.9667053798833,
blue_congruent,1,a,left,blue,-0.6,,,,,4,4,28,0,,,,,,,,,,,139.0890432000001,None,,,,,,,,,,,,140.31534809999994,None,a,1,0.3605949000002511,140.31534809999994,None,,,,,15,001,2022_Oct_19_1259,Version4,2021.2.0,241.9667053798833,
blue_neutral,0,a,middle,blue,0,,,,,4,5,29,5,,,,,,,,,,,140.69070910000028,None,,,,,,,,,,,,141.75831900000003,None,a,1,0.6058150999997451,141.75831900000003,None,,,,,15,001,2022_Oct_19_1259,Version4,2021.2.0,241.9667053798833,
blue_congruent,1,a,left,blue,-0.6,,,,,5,0,30,0,,,,,,,,,,,142.3759159000001,None,,,,,,,,,,,,143.41830179999988,None,a,1,0.41805959999965125,143.41830179999988,None,,,,,15,001,2022_Oct_19_1259,Version4,2021.2.0,241.9667053798833,
red_congruent,1,k,right,red,0.6,,,,,5,1,31,1,,,,,,,,,,,143.85237180000013,None,,,,,,,,,,,,144.91988720000018,None,k,1,0.3489510999997947,144.91988720000018,None,,,,,15,001,2022_Oct_19_1259,Version4,2021.2.0,241.9667053798833,
blue_congruent,1,a,left,blue,-0.6,,,,,5,2,32,0,,,,,,,,,,,145.28726890000007,None,,,,,,,,,,,,146.34225229999993,None,a,1,0.44648559999995996,146.34225229999993,None,,,,,15,001,2022_Oct_19_1259,Version4,2021.2.0,241.9667053798833,
blue_incongruent,0,a,right,blue,0.6,,,,,5,3,33,2,,,,,,,,,,,146.80131570000003,None,,,,,,,,,,,,148.02743880000025,None,a,1,0.3935574000001907,148.02743880000025,None,,,,,15,001,2022_Oct_19_1259,Version4,2021.2.0,241.9667053798833,
blue_neutral,0,a,middle,blue,0,,,,,5,4,34,5,,,,,,,,,,,148.43619100000024,None,,,,,,,,,,,,149.63738020000028,None,a,1,0.34380319999991116,149.63738020000028,None,,,,,15,001,2022_Oct_19_1259,Version4,2021.2.0,241.9667053798833,
red_incongruent,0,k,left,red,-0.6,,,,,5,5,35,3,,,,,,,,,,,149.99194380000017,None,,,,,,,,,,,,151.05973100000028,None,k,1,0.42563509999990856,151.05973100000028,None,,,,,15,001,2022_Oct_19_1259,Version4,2021.2.0,241.9667053798833,
red_neutral,0,k,middle,red,0,,,,,6,0,36,4,,,,,,,,,,,151.49804730000005,None,,,,,,,,,,,,152.6489360999999,None,k,1,0.5246834000004128,152.6489360999999,None,,,,,15,001,2022_Oct_19_1259,Version4,2021.2.0,241.9667053798833,
blue_neutral,0,a,middle,blue,0,,,,,6,1,37,5,,,,,,,,,,,153.18709020000006,None,,,,,,,,,,,,154.37584000000015,None,a,1,0.38199059999988094,154.37584000000015,None,,,,,15,001,2022_Oct_19_1259,Version4,2021.2.0,241.9667053798833,
red_neutral,0,k,middle,red,0,,,,,6,2,38,4,,,,,,,,,,,154.77652369999987,None,,,,,,,,,,,,155.9440910000003,None,k,1,0.397955599999932,155.9440910000003,None,,,,,15,001,2022_Oct_19_1259,Version4,2021.2.0,241.9667053798833,
blue_incongruent,0,a,right,blue,0.6,,,,,6,3,39,2,,,,,,,,,,,156.3531197000002,None,,,,,,,,,,,,157.44569550000006,None,a,1,0.44057010000005903,157.44569550000006,None,,,,,15,001,2022_Oct_19_1259,Version4,2021.2.0,241.9667053798833,
red_congruent,1,k,right,red,0.6,,,,,6,4,40,1,,,,,,,,,,,157.90488559999994,None,,,,,,,,,,,,158.98897990000023,None,k,1,0.7615300000002208,158.98897990000023,None,,,,,15,001,2022_Oct_19_1259,Version4,2021.2.0,241.9667053798833,
red_congruent,1,k,right,red,0.6,,,,,6,5,41,1,,,,,,,,,,,159.76481560000002,None,,,,,,,,,,,,160.86182420000023,None,k,1,0.32106629999998404,160.86182420000023,None,,,,,15,001,2022_Oct_19_1259,Version4,2021.2.0,241.9667053798833,
blue_neutral,0,a,middle,blue,0,,,,,7,0,42,5,,,,,,,,,,,161.1999711000003,None,,,,,,,,,,,,162.35923580000008,None,a,1,0.2961387000000286,162.35923580000008,None,,,,,15,001,2022_Oct_19_1259,Version4,2021.2.0,241.9667053798833,
red_incongruent,0,k,left,red,-0.6,,,,,7,1,43,3,,,,,,,,,,,162.6720731999999,None,,,,,,,,,,,,163.79827250000017,None,k,1,0.4331741000000875,163.79827250000017,None,,,,,15,001,2022_Oct_19_1259,Version4,2021.2.0,241.9667053798833,
red_neutral,0,k,middle,red,0,,,,,7,2,44,4,,,,,,,,,,,164.2488085,None,,,,,,,,,,,,165.38336370000025,None,k,1,0.68003680000038,165.38336370000025,None,,,,,15,001,2022_Oct_19_1259,Version4,2021.2.0,241.9667053798833,
red_congruent,1,k,right,red,0.6,,,,,7,3,45,1,,,,,,,,,,,166.0759747000002,None,,,,,,,,,,,,167.18102910000016,None,k,1,0.5145727999997689,167.18102910000016,None,,,,,15,001,2022_Oct_19_1259,Version4,2021.2.0,241.9667053798833,
red_congruent,1,k,right,red,0.6,,,,,7,4,46,1,,,,,,,,,,,167.7065673000002,None,,,,,,,,,,,,168.81608649999998,None,k,1,0.38371820000020307,168.81608649999998,None,,,,,15,001,2022_Oct_19_1259,Version4,2021.2.0,241.9667053798833,
red_incongruent,0,k,left,red,-0.6,,,,,7,5,47,3,,,,,,,,,,,169.2123391,None,,,,,,,,,,,,170.25928629999999,None,k,1,0.4447301000000152,170.25928629999999,None,,,,,15,001,2022_Oct_19_1259,Version4,2021.2.0,241.9667053798833,
,,,,,,,,,,,,,,,,,,,,,,,,,,,,,,,,,,,,,,,,,,,,space,4.385471399999915,,,15,001,2022_Oct_19_1259,Version4,2021.2.0,241.9667053798833,
blue_neutral,0,a,middle,blue,0,,,,,,,,,0,0,0,5,,,,,,,175.14816659999997,None,,,,,,,,,,,,176.21560529999988,None,a,1,0.7452721999998175,176.21560529999988,None,,,,,15,001,2022_Oct_19_1259,Version4,2021.2.0,241.9667053798833,
red_incongruent,0,k,left,red,-0.6,,,,,,,,,0,1,1,3,,,,,,,176.97475600000007,None,,,,,,,,,,,,178.0467908999999,None,k,1,0.35428670000010243,178.0467908999999,None,,,,,15,001,2022_Oct_19_1259,Version4,2021.2.0,241.9667053798833,
red_neutral,0,k,middle,red,0,,,,,,,,,0,2,2,4,,,,,,,178.41379180000013,None,,,,,,,,,,,,179.52335799999992,None,k,1,0.9820060000001831,179.52335799999992,None,,,,,15,001,2022_Oct_19_1259,Version4,2021.2.0,241.9667053798833,
red_incongruent,0,k,left,red,-0.6,,,,,,,,,0,3,3,3,,,,,,,180.52436480000006,None,,,,,,,,,,,,181.63394370000015,None,k,1,0.31163169999990714,181.63394370000015,None,,,,,15,001,2022_Oct_19_1259,Version4,2021.2.0,241.9667053798833,
red_incongruent,0,k,left,red,-0.6,,,,,,,,,0,4,4,3,,,,,,,181.95929520000027,None,,,,,,,,,,,,183.01866120000022,None,k,1,0.35106439999981376,183.01866120000022,None,,,,,15,001,2022_Oct_19_1259,Version4,2021.2.0,241.9667053798833,
blue_incongruent,0,a,right,blue,0.6,,,,,,,,,0,5,5,2,,,,,,,183.3818811000001,None,,,,,,,,,,,,184.42016160000003,None,a,1,0.4379468999995879,184.42016160000003,None,,,,,15,001,2022_Oct_19_1259,Version4,2021.2.0,241.9667053798833,
blue_incongruent,0,a,right,blue,0.6,,,,,,,,,1,0,6,2,,,,,,,184.8748925,None,,,,,,,,,,,,185.91339490000018,None,a,1,0.3527435000000878,185.91339490000018,None,,,,,15,001,2022_Oct_19_1259,Version4,2021.2.0,241.9667053798833,
blue_neutral,0,a,middle,blue,0,,,,,,,,,1,1,7,5,,,,,,,186.28463199999987,None,,,,,,,,,,,,187.37329380000028,None,a,1,0.3090273000002526,187.37329380000028,None,,,,,15,001,2022_Oct_19_1259,Version4,2021.2.0,241.9667053798833,
blue_neutral,0,a,middle,blue,0,,,,,,,,,1,2,8,5,,,,,,,187.69908510000005,None,,,,,,,,,,,,188.79562250000026,None,a,1,0.3269234999997934,188.79562250000026,None,,,,,15,001,2022_Oct_19_1259,Version4,2021.2.0,241.9667053798833,
blue_congruent,1,a,left,blue,-0.6,,,,,,,,,1,3,9,0,,,,,,,189.1330395,None,,,,,,,,,,,,190.2221611,None,a,1,0.3965856999998323,190.2221611,None,,,,,15,001,2022_Oct_19_1259,Version4,2021.2.0,241.9667053798833,
blue_congruent,1,a,left,blue,-0.6,,,,,,,,,1,4,10,0,,,,,,,190.63103030000002,None,,,,,,,,,,,,191.8075091999999,None,a,1,0.3874922999998489,191.8075091999999,None,,,,,15,001,2022_Oct_19_1259,Version4,2021.2.0,241.9667053798833,
red_congruent,1,k,right,red,0.6,,,,,,,,,1,5,11,1,,,,,,,192.2075878999999,None,,,,,,,,,,,,193.37549760000002,None,k,1,0.3556669999998121,193.37549760000002,None,,,,,15,001,2022_Oct_19_1259,Version4,2021.2.0,241.9667053798833,
blue_congruent,1,a,left,blue,-0.6,,,,,,,,,2,0,12,0,,,,,,,193.74284360000001,None,,,,,,,,,,,,194.83954089999997,None,a,1,0.43586910000021817,194.83954089999997,None,,,,,15,001,2022_Oct_19_1259,Version4,2021.2.0,241.9667053798833,
red_neutral,0,k,middle,red,0,,,,,,,,,2,1,13,4,,,,,,,195.2859513000003,None,,,,,,,,,,,,196.4579265000002,None,k,1,0.46610999999984415,196.4579265000002,None,,,,,15,001,2022_Oct_19_1259,Version4,2021.2.0,241.9667053798833,
red_incongruent,0,k,left,red,-0.6,,,,,,,,,2,2,14,3,,,,,,,196.9420798000001,None,,,,,,,,,,,,198.04712120000022,None,k,1,0.4207191000000421,198.04712120000022,None,,,,,15,001,2022_Oct_19_1259,Version4,2021.2.0,241.9667053798833,
blue_incongruent,0,a,right,blue,0.6,,,,,,,,,2,3,15,2,,,,,,,198.4850833999999,None,,,,,,,,,,,,199.57793140000012,None,a,1,0.4900927999997293,199.57793140000012,None,,,,,15,001,2022_Oct_19_1259,Version4,2021.2.0,241.9667053798833,
blue_congruent,1,a,left,blue,-0.6,,,,,,,,,2,4,16,0,,,,,,,200.0870488999999,None,,,,,,,,,,,,201.20463250000012,None,a,1,1.0960033999999723,201.20463250000012,None,,,,,15,001,2022_Oct_19_1259,Version4,2021.2.0,241.9667053798833,
blue_incongruent,0,a,right,blue,0.6,,,,,,,,,2,5,17,2,,,,,,,202.31422479999992,None,,,,,,,,,,,,203.41114199999993,None,a,1,0.4014385000000402,203.41114199999993,None,,,,,15,001,2022_Oct_19_1259,Version4,2021.2.0,241.9667053798833,
red_incongruent,0,k,left,red,-0.6,,,,,,,,,3,0,18,3,,,,,,,203.82469410000022,None,,,,,,,,,,,,204.8710318000003,None,k,1,0.47775410000031115,204.8710318000003,None,,,,,15,001,2022_Oct_19_1259,Version4,2021.2.0,241.9667053798833,
blue_congruent,1,a,left,blue,-0.6,,,,,,,,,3,1,19,0,,,,,,,205.36359820000007,None,,,,,,,,,,,,206.46440470000016,None,k,0,0.4125721999998859,206.46440470000016,None,,,,,15,001,2022_Oct_19_1259,Version4,2021.2.0,241.9667053798833,
red_congruent,1,k,right,red,0.6,,,,,,,,,3,2,20,1,,,,,,,206.89023159999988,None,,,,,,,,,,,,207.9621044999999,None,a,0,0.4914917000000969,207.9621044999999,None,,,,,15,001,2022_Oct_19_1259,Version4,2021.2.0,241.9667053798833,
red_incongruent,0,k,left,red,-0.6,,,,,,,,,3,3,21,3,,,,,,,208.47072530000014,None,,,,,,,,,,,,209.58028550000017,None,k,1,0.5771660000000338,209.58028550000017,None,,,,,15,001,2022_Oct_19_1259,Version4,2021.2.0,241.9667053798833,
red_neutral,0,k,middle,red,0,,,,,,,,,3,4,22,4,,,,,,,210.17278440000018,None,,,,,,,,,,,,211.2904142000002,None,k,1,0.3952102999996896,211.2904142000002,None,,,,,15,001,2022_Oct_19_1259,Version4,2021.2.0,241.9667053798833,
red_congruent,1,k,right,red,0.6,,,,,,,,,3,5,23,1,,,,,,,211.69938750000028,None,,,,,,,,,,,,212.78358900000012,None,k,1,0.37456550000024436,212.78358900000012,None,,,,,15,001,2022_Oct_19_1259,Version4,2021.2.0,241.9667053798833,
blue_incongruent,0,a,right,blue,0.6,,,,,,,,,4,0,24,2,,,,,,,213.17567610000015,None,,,,,,,,,,,,214.2142776999999,None,a,1,0.4637305000001106,214.2142776999999,None,,,,,15,001,2022_Oct_19_1259,Version4,2021.2.0,241.9667053798833,
red_neutral,0,k,middle,red,0,,,,,,,,,4,1,25,4,,,,,,,214.69004760000007,None,,,,,,,,,,,,215.7742613999999,None,k,1,0.5359988999998677,215.7742613999999,None,,,,,15,001,2022_Oct_19_1259,Version4,2021.2.0,241.9667053798833,
blue_incongruent,0,a,right,blue,0.6,,,,,,,,,4,2,26,2,,,,,,,216.3248679000003,None,,,,,,,,,,,,217.50110170000016,None,a,1,0.45763529999976527,217.50110170000016,None,,,,,15,001,2022_Oct_19_1259,Version4,2021.2.0,241.9667053798833,
blue_congruent,1,a,left,blue,-0.6,,,,,,,,,4,3,27,0,,,,,,,217.97660470000028,None,,,,,,,,,,,,219.0822889000001,None,k,0,0.4604076000000532,219.0822889000001,None,,,,,15,001,2022_Oct_19_1259,Version4,2021.2.0,241.9667053798833,
red_congruent,1,k,right,red,0.6,,,,,,,,,4,4,28,1,,,,,,,219.5533559999999,None,,,,,,,,,,,,220.62524250000024,None,k,1,0.533667400000013,220.62524250000024,None,,,,,15,001,2022_Oct_19_1259,Version4,2021.2.0,241.9667053798833,
blue_neutral,0,a,middle,blue,0,,,,,,,,,4,5,29,5,,,,,,,221.1719637000001,None,,,,,,,,,,,,222.26039750000018,None,a,1,0.7387585000001309,222.26039750000018,None,,,,,15,001,2022_Oct_19_1259,Version4,2021.2.0,241.9667053798833,
blue_neutral,0,a,middle,blue,0,,,,,,,,,5,0,30,5,,,,,,,223.01123929999994,None,,,,,,,,,,,,224.0956331000002,None,a,1,0.4317391000004136,224.0956331000002,None,,,,,15,001,2022_Oct_19_1259,Version4,2021.2.0,241.9667053798833,
blue_neutral,0,a,middle,blue,0,,,,,,,,,5,1,31,5,,,,,,,224.54608310000003,None,,,,,,,,,,,,225.65558529999998,None,a,1,0.34400460000006206,225.65558529999998,None,,,,,15,001,2022_Oct_19_1259,Version4,2021.2.0,241.9667053798833,
blue_congruent,1,a,left,blue,-0.6,,,,,,,,,5,2,32,0,,,,,,,226.01458030000003,None,,,,,,,,,,,,227.1321796000002,None,a,1,0.4756203999995705,227.1321796000002,None,,,,,15,001,2022_Oct_19_1259,Version4,2021.2.0,241.9667053798833,
blue_congruent,1,a,left,blue,-0.6,,,,,,,,,5,3,33,0,,,,,,,227.62020600000005,None,,,,,,,,,,,,228.72558419999996,None,a,1,0.2827237999999852,228.72558419999996,None,,,,,15,001,2022_Oct_19_1259,Version4,2021.2.0,241.9667053798833,
red_incongruent,0,k,left,red,-0.6,,,,,,,,,5,4,34,3,,,,,,,229.02611389999993,None,,,,,,,,,,,,230.2562883999999,None,k,1,0.4559272999999848,230.2562883999999,None,,,,,15,001,2022_Oct_19_1259,Version4,2021.2.0,241.9667053798833,
red_neutral,0,k,middle,red,0,,,,,,,,,5,5,35,4,,,,,,,230.72763480000003,None,,,,,,,,,,,,231.8080129,None,a,0,0.6004823000002943,231.8080129,None,,,,,15,001,2022_Oct_19_1259,Version4,2021.2.0,241.9667053798833,
blue_incongruent,0,a,right,blue,0.6,,,,,,,,,6,0,36,2,,,,,,,232.42551860000003,None,,,,,,,,,,,,233.4597186000001,None,k,0,0.5253182999999808,233.4597186000001,None,,,,,15,001,2022_Oct_19_1259,Version4,2021.2.0,241.9667053798833,
blue_incongruent,0,a,right,blue,0.6,,,,,,,,,6,1,37,2,,,,,,,234.0023556000001,None,,,,,,,,,,,,235.02812070000027,None,a,1,0.7572715000001153,235.02812070000027,None,,,,,15,001,2022_Oct_19_1259,Version4,2021.2.0,241.9667053798833,
red_neutral,0,k,middle,red,0,,,,,,,,,6,2,38,4,,,,,,,235.80417970000008,None,,,,,,,,,,,,236.88863170000013,None,k,1,0.5126961999999367,236.88863170000013,None,,,,,15,001,2022_Oct_19_1259,Version4,2021.2.0,241.9667053798833,
blue_neutral,0,a,middle,blue,0,,,,,,,,,6,3,39,5,,,,,,,237.41406039999993,None,,,,,,,,,,,,238.63637569999992,None,a,1,0.525128599999789,238.63637569999992,None,,,,,15,001,2022_Oct_19_1259,Version4,2021.2.0,241.9667053798833,
blue_neutral,0,a,middle,blue,0,,,,,,,,,6,4,40,5,,,,,,,239.17426969999997,None,,,,,,,,,,,,240.2798026999999,None,a,1,0.3857879000001958,240.2798026999999,None,,,,,15,001,2022_Oct_19_1259,Version4,2021.2.0,241.9667053798833,
red_neutral,0,k,middle,red,0,,,,,,,,,6,5,41,4,,,,,,,240.68000740000025,None,,,,,,,,,,,,241.7518643000003,None,k,1,0.3859136999999464,241.7518643000003,None,,,,,15,001,2022_Oct_19_1259,Version4,2021.2.0,241.9667053798833,
red_congruent,1,k,right,red,0.6,,,,,,,,,7,0,42,1,,,,,,,242.15648120000014,None,,,,,,,,,,,,243.2200729000001,None,k,1,0.9179756000003181,243.2200729000001,None,,,,,15,001,2022_Oct_19_1259,Version4,2021.2.0,241.9667053798833,
red_congruent,1,k,right,red,0.6,,,,,,,,,7,1,43,1,,,,,,,244.1502749000001,None,,,,,,,,,,,,245.28067060000012,None,k,1,0.4496613999999681,245.28067060000012,None,,,,,15,001,2022_Oct_19_1259,Version4,2021.2.0,241.9667053798833,
red_neutral,0,k,middle,red,0,,,,,,,,,7,2,44,4,,,,,,,245.7435988000002,None,,,,,,,,,,,,246.8906554,None,k,1,0.7679088999998385,246.8906554,None,,,,,15,001,2022_Oct_19_1259,Version4,2021.2.0,241.9667053798833,
red_congruent,1,k,right,red,0.6,,,,,,,,,7,3,45,1,,,,,,,247.67505250000022,None,,,,,,,,,,,,248.81769910000003,None,k,1,0.4170743000004222,248.81769910000003,None,,,,,15,001,2022_Oct_19_1259,Version4,2021.2.0,241.9667053798833,
red_incongruent,0,k,left,red,-0.6,,,,,,,,,7,4,46,3,,,,,,,249.2475770000001,None,,,,,,,,,,,,250.4278072000002,None,k,1,0.6312017000000196,250.4278072000002,None,,,,,15,001,2022_Oct_19_1259,Version4,2021.2.0,241.9667053798833,
red_congruent,1,k,right,red,0.6,,,,,,,,,7,5,47,1,,,,,,,251.07003600000007,None,,,,,,,,,,,,252.1758437000003,None,k,1,0.507571299999654,252.1758437000003,None,,,,,15,001,2022_Oct_19_1259,Version4,2021.2.0,241.9667053798833,
,,,,,,,,,,,,,,,,,,,,,,,,,,,,,,,,,,,,,,,,,,,,space,7.090878299999986,,,15,001,2022_Oct_19_1259,Version4,2021.2.0,241.9667053798833,
red_congruent,1,k,right,red,0.6,,,,,,,,,,,,,0,0,0,1,,,259.8255122999999,None,,,,,,,,,,,,260.8932818000003,None,k,1,0.5511713999999301,260.8932818000003,None,,,,,15,001,2022_Oct_19_1259,Version4,2021.2.0,241.9667053798833,
red_neutral,0,k,middle,red,0,,,,,,,,,,,,,0,1,1,4,,,261.4604324000002,None,,,,,,,,,,,,262.6368053000001,None,k,1,0.34401630000002115,262.6368053000001,None,,,,,15,001,2022_Oct_19_1259,Version4,2021.2.0,241.9667053798833,
blue_congruent,1,a,left,blue,-0.6,,,,,,,,,,,,,0,2,2,0,,,262.99537310000005,None,,,,,,,,,,,,264.1342029000002,None,a,1,0.38292790000014065,264.1342029000002,None,,,,,15,001,2022_Oct_19_1259,Version4,2021.2.0,241.9667053798833,
blue_congruent,1,a,left,blue,-0.6,,,,,,,,,,,,,0,3,3,0,,,264.5303512999999,None,,,,,,,,,,,,265.6774607000002,None,a,1,0.3920317000001887,265.6774607000002,None,,,,,15,001,2022_Oct_19_1259,Version4,2021.2.0,241.9667053798833,
blue_congruent,1,a,left,blue,-0.6,,,,,,,,,,,,,0,4,4,0,,,266.0862027000003,None,,,,,,,,,,,,267.12079010000025,None,a,1,0.3644678999999087,267.12079010000025,None,,,,,15,001,2022_Oct_19_1259,Version4,2021.2.0,241.9667053798833,
blue_incongruent,0,a,right,blue,0.6,,,,,,,,,,,,,0,5,5,2,,,267.5044455000002,None,,,,,,,,,,,,268.5680723999999,None,a,1,0.5654186000001573,268.5680723999999,None,,,,,15,001,2022_Oct_19_1259,Version4,2021.2.0,241.9667053798833,
red_neutral,0,k,middle,red,0,,,,,,,,,,,,,1,0,6,4,,,269.1520319000001,None,,,,,,,,,,,,270.16974849999997,None,k,1,0.37221390000013344,270.16974849999997,None,,,,,15,001,2022_Oct_19_1259,Version4,2021.2.0,241.9667053798833,
red_congruent,1,k,right,red,0.6,,,,,,,,,,,,,1,1,7,1,,,270.5575724999999,None,,,,,,,,,,,,271.6546942,None,k,1,0.319345500000054,271.6546942,None,,,,,15,001,2022_Oct_19_1259,Version4,2021.2.0,241.9667053798833,
blue_congruent,1,a,left,blue,-0.6,,,,,,,,,,,,,1,2,8,0,,,271.9883660999999,None,,,,,,,,,,,,273.1896391,None,a,1,0.3605038999999124,273.1896391,None,,,,,15,001,2022_Oct_19_1259,Version4,2021.2.0,241.9667053798833,
blue_congruent,1,a,left,blue,-0.6,,,,,,,,,,,,,1,3,9,0,,,273.56495080000013,None,,,,,,,,,,,,274.6119847,None,a,1,0.3062929000002441,274.6119847,None,,,,,15,001,2022_Oct_19_1259,Version4,2021.2.0,241.9667053798833,
red_incongruent,0,k,left,red,-0.6,,,,,,,,,,,,,1,4,10,3,,,274.9373392000002,None,,,,,,,,,,,,276.0093345,None,a,0,0.3255205999998907,276.0093345,None,,,,,15,001,2022_Oct_19_1259,Version4,2021.2.0,241.9667053798833,
blue_congruent,1,a,left,blue,-0.6,,,,,,,,,,,,,1,5,11,0,,,276.3513812000001,None,,,,,,,,,,,,277.51479670000026,None,a,1,0.5559423999998216,277.51479670000026,None,,,,,15,001,2022_Oct_19_1259,Version4,2021.2.0,241.9667053798833,
blue_incongruent,0,a,right,blue,0.6,,,,,,,,,,,,,2,0,12,2,,,278.0824029999999,None,,,,,,,,,,,,279.24617420000004,None,a,1,0.4727463999997781,279.24617420000004,None,,,,,15,001,2022_Oct_19_1259,Version4,2021.2.0,241.9667053798833,
blue_neutral,0,a,middle,blue,0,,,,,,,,,,,,,2,1,13,5,,,279.7298175000001,None,,,,,,,,,,,,280.8228161000002,None,a,1,0.4164790999998331,280.8228161000002,None,,,,,15,001,2022_Oct_19_1259,Version4,2021.2.0,241.9667053798833,
blue_neutral,0,a,middle,blue,0,,,,,,,,,,,,,2,2,14,5,,,281.2564331000003,None,,,,,,,,,,,,282.3785691000003,None,a,1,0.364775500000178,282.3785691000003,None,,,,,15,001,2022_Oct_19_1259,Version4,2021.2.0,241.9667053798833,
red_congruent,1,k,right,red,0.6,,,,,,,,,,,,,2,3,15,1,,,282.76227560000007,None,,,,,,,,,,,,283.91775499999994,None,k,1,0.345788900000116,283.91775499999994,None,,,,,15,001,2022_Oct_19_1259,Version4,2021.2.0,241.9667053798833,
red_neutral,0,k,middle,red,0,,,,,,,,,,,,,2,4,16,4,,,284.2764366000001,None,,,,,,,,,,,,285.2983151000003,None,k,1,0.31750289999990855,285.2983151000003,None,,,,,15,001,2022_Oct_19_1259,Version4,2021.2.0,241.9667053798833,
blue_congruent,1,a,left,blue,-0.6,,,,,,,,,,,,,2,5,17,0,,,285.63183430000026,None,,,,,,,,,,,,286.7165017000002,None,a,1,0.39546199999995224,286.7165017000002,None,,,,,15,001,2022_Oct_19_1259,Version4,2021.2.0,241.9667053798833,
red_neutral,0,k,middle,red,0,,,,,,,,,,,,,3,0,18,4,,,287.12526879999996,None,,,,,,,,,,,,288.3055073999999,None,a,0,0.3749633000002177,288.3055073999999,None,,,,,15,001,2022_Oct_19_1259,Version4,2021.2.0,241.9667053798833,
red_neutral,0,k,middle,red,0,,,,,,,,,,,,,3,1,19,4,,,288.69779659999995,None,,,,,,,,,,,,289.7569506,None,k,1,0.4677111999999397,289.7569506,None,,,,,15,001,2022_Oct_19_1259,Version4,2021.2.0,241.9667053798833,
blue_neutral,0,a,middle,blue,0,,,,,,,,,,,,,3,2,20,5,,,290.2410825000002,None,,,,,,,,,,,,291.3923543000001,None,a,1,0.3762679000001299,291.3923543000001,None,,,,,15,001,2022_Oct_19_1259,Version4,2021.2.0,241.9667053798833,
red_congruent,1,k,right,red,0.6,,,,,,,,,,,,,3,3,21,1,,,291.78442429999996,None,,,,,,,,,,,,292.8143537000001,None,k,1,0.5304182999998375,292.8143537000001,None,,,,,15,001,2022_Oct_19_1259,Version4,2021.2.0,241.9667053798833,
blue_incongruent,0,a,right,blue,0.6,,,,,,,,,,,,,3,4,22,2,,,293.3568835000001,None,,,,,,,,,,,,294.43308750000006,None,a,1,0.5762088000001313,294.43308750000006,None,,,,,15,001,2022_Oct_19_1259,Version4,2021.2.0,241.9667053798833,
blue_incongruent,0,a,right,blue,0.6,,,,,,,,,,,,,3,5,23,2,,,295.0253861000001,None,,,,,,,,,,,,296.0678562000003,None,a,1,0.39765970000007655,296.0678562000003,None,,,,,15,001,2022_Oct_19_1259,Version4,2021.2.0,241.9667053798833,
blue_incongruent,0,a,right,blue,0.6,,,,,,,,,,,,,4,0,24,2,,,296.48089789999995,None,,,,,,,,,,,,297.55717790000017,None,a,1,0.3003977999997005,297.55717790000017,None,,,,,15,001,2022_Oct_19_1259,Version4,2021.2.0,241.9667053798833,
red_neutral,0,k,middle,red,0,,,,,,,,,,,,,4,1,25,4,,,297.8697287,None,,,,,,,,,,,,299.0585648000001,None,k,1,0.4633678999998665,299.0585648000001,None,,,,,15,001,2022_Oct_19_1259,Version4,2021.2.0,241.9667053798833,
red_incongruent,0,k,left,red,-0.6,,,,,,,,,,,,,4,2,26,3,,,299.53842810000015,None,,,,,,,,,,,,300.5895694000001,None,k,1,0.47626390000004903,300.5895694000001,None,,,,,15,001,2022_Oct_19_1259,Version4,2021.2.0,241.9667053798833,
blue_incongruent,0,a,right,blue,0.6,,,,,,,,,,,,,4,3,27,2,,,301.08155320000014,None,,,,,,,,,,,,302.2452167000001,None,a,1,0.4448832999996739,302.2452167000001,None,,,,,15,001,2022_Oct_19_1259,Version4,2021.2.0,241.9667053798833,
blue_incongruent,0,a,right,blue,0.6,,,,,,,,,,,,,4,4,28,2,,,302.7042369999999,None,,,,,,,,,,,,303.85949930000015,None,a,1,0.47119740000016463,303.85949930000015,None,,,,,15,001,2022_Oct_19_1259,Version4,2021.2.0,241.9667053798833,
blue_neutral,0,a,middle,blue,0,,,,,,,,,,,,,4,5,29,5,,,304.34357260000024,None,,,,,,,,,,,,305.3860623999999,None,a,1,0.35242529999959515,305.3860623999999,None,,,,,15,001,2022_Oct_19_1259,Version4,2021.2.0,241.9667053798833,
red_incongruent,0,k,left,red,-0.6,,,,,,,,,,,,,5,0,30,3,,,305.7533871999999,None,,,,,,,,,,,,306.87938810000014,None,k,1,0.9313720999998623,306.87938810000014,None,,,,,15,001,2022_Oct_19_1259,Version4,2021.2.0,241.9667053798833,
blue_congruent,1,a,left,blue,-0.6,,,,,,,,,,,,,5,1,31,0,,,307.8223232,None,,,,,,,,,,,,308.9023560999999,None,a,1,0.3885847999999896,308.9023560999999,None,,,,,15,001,2022_Oct_19_1259,Version4,2021.2.0,241.9667053798833,
red_congruent,1,k,right,red,0.6,,,,,,,,,,,,,5,2,32,1,,,309.3030071000003,None,,,,,,,,,,,,310.3664076,None,k,1,0.3567504000002373,310.3664076,None,,,,,15,001,2022_Oct_19_1259,Version4,2021.2.0,241.9667053798833,
red_neutral,0,k,middle,red,0,,,,,,,,,,,,,5,3,33,4,,,310.7378240000003,None,,,,,,,,,,,,311.8303983999999,None,k,1,0.621024000000034,311.8303983999999,None,,,,,15,001,2022_Oct_19_1259,Version4,2021.2.0,241.9667053798833,
red_congruent,1,k,right,red,0.6,,,,,,,,,,,,,5,4,34,1,,,312.4646207999999,None,,,,,,,,,,,,313.61143790000006,None,k,1,0.3361641999999847,313.61143790000006,None,,,,,15,001,2022_Oct_19_1259,Version4,2021.2.0,241.9667053798833,
red_neutral,0,k,middle,red,0,,,,,,,,,,,,,5,5,35,4,,,313.9577118000002,None,,,,,,,,,,,,315.02551859999994,None,k,1,0.3223006999996869,315.02551859999994,None,,,,,15,001,2022_Oct_19_1259,Version4,2021.2.0,241.9667053798833,
red_incongruent,0,k,left,red,-0.6,,,,,,,,,,,,,6,0,36,3,,,315.36331010000004,None,,,,,,,,,,,,316.5562278000002,None,a,0,0.343797099999847,316.5562278000002,None,,,,,15,001,2022_Oct_19_1259,Version4,2021.2.0,241.9667053798833,
blue_incongruent,0,a,right,blue,0.6,,,,,,,,,,,,,6,1,37,2,,,316.9149560999999,None,,,,,,,,,,,,317.9743986000003,None,a,1,0.9422162000000753,317.9743986000003,None,,,,,15,001,2022_Oct_19_1259,Version4,2021.2.0,241.9667053798833,
red_incongruent,0,k,left,red,-0.6,,,,,,,,,,,,,6,2,38,3,,,318.9296263000001,None,,,,,,,,,,,,319.9935012000001,None,k,1,0.6591543999998066,319.9935012000001,None,,,,,15,001,2022_Oct_19_1259,Version4,2021.2.0,241.9667053798833,
red_congruent,1,k,right,red,0.6,,,,,,,,,,,,,6,3,39,1,,,320.6691559000001,None,,,,,,,,,,,,321.8955651000001,None,k,1,0.973279199999979,321.8955651000001,None,,,,,15,001,2022_Oct_19_1259,Version4,2021.2.0,241.9667053798833,
red_incongruent,0,k,left,red,-0.6,,,,,,,,,,,,,6,4,40,3,,,322.8837748000001,None,,,,,,,,,,,,323.98494800000026,None,k,1,0.37205820000008316,323.98494800000026,None,,,,,15,001,2022_Oct_19_1259,Version4,2021.2.0,241.9667053798833,
blue_neutral,0,a,middle,blue,0,,,,,,,,,,,,,6,5,41,5,,,324.36870480000016,None,,,,,,,,,,,,325.4740221000002,None,a,1,0.5075928000001113,325.4740221000002,None,,,,,15,001,2022_Oct_19_1259,Version4,2021.2.0,241.9667053798833,
blue_neutral,0,a,middle,blue,0,,,,,,,,,,,,,7,0,42,5,,,326.00009690000024,None,,,,,,,,,,,,327.1011896,None,a,1,0.776321199999984,327.1011896,None,,,,,15,001,2022_Oct_19_1259,Version4,2021.2.0,241.9667053798833,
blue_neutral,0,a,middle,blue,0,,,,,,,,,,,,,7,1,43,5,,,327.89367930000026,None,,,,,,,,,,,,328.9276904000003,None,a,1,0.3663104000002022,328.9276904000003,None,,,,,15,001,2022_Oct_19_1259,Version4,2021.2.0,241.9667053798833,
blue_neutral,0,a,middle,blue,0,,,,,,,,,,,,,7,2,44,5,,,329.31170520000023,None,,,,,,,,,,,,330.37505910000027,None,a,1,0.3268409000002066,330.37505910000027,None,,,,,15,001,2022_Oct_19_1259,Version4,2021.2.0,241.9667053798833,
red_congruent,1,k,right,red,0.6,,,,,,,,,,,,,7,3,45,1,,,330.7173544000002,None,,,,,,,,,,,,331.7849793999999,None,k,1,0.33314279999967766,331.7849793999999,None,,,,,15,001,2022_Oct_19_1259,Version4,2021.2.0,241.9667053798833,
red_incongruent,0,k,left,red,-0.6,,,,,,,,,,,,,7,4,46,3,,,332.1312445000003,None,,,,,,,,,,,,333.1947189000002,None,k,1,0.3395669999999882,333.1947189000002,None,,,,,15,001,2022_Oct_19_1259,Version4,2021.2.0,241.9667053798833,
red_incongruent,0,k,left,red,-0.6,,,,,,,,,,,,,7,5,47,3,,,333.55343459999995,None,,,,,,,,,,,,334.68796680000014,None,k,1,0.35053549999975075,334.68796680000014,None,,,,,15,001,2022_Oct_19_1259,Version4,2021.2.0,241.9667053798833,
,,,,,,,,,,,,,,,,,,,,,,,,,,,,,,,,,,,,,,,,,,,,space,4.319932399999743,,,15,001,2022_Oct_19_1259,Version4,2021.2.0,241.9667053798833,
,,,,,,,,,,,,,,,,,,,,,,,,,,,,,,,,,,,,,,,,,,,,,,space,6.1104026000002705,15,001,2022_Oct_19_1259,Version4,2021.2.0,241.9667053798833,
