images,congruentcy,corrAns,box_pos,box_color,box_x,pract.thisRepN,pract.thisTrialN,pract.thisN,pract.thisIndex,trials.thisRepN,trials.thisTrialN,trials.thisN,trials.thisIndex,trials_2.thisRepN,trials_2.thisTrialN,trials_2.thisN,trials_2.thisIndex,trials_3.thisRepN,trials_3.thisTrialN,trials_3.thisN,trials_3.thisIndex,key_resp_instr.keys,key_resp_instr.rt,FixCross.started,FixCross.stopped,Box_p.started,Box_p.stopped,key_resp_P.keys,key_resp_P.corr,key_resp_P.rt,key_resp_P.started,key_resp_P.stopped,text_3.started,text_3.stopped,key_resp_2.keys,key_resp_2.rt,Box.started,Box.stopped,key_resp.keys,key_resp.corr,key_resp.rt,key_resp.started,key_resp.stopped,key_resp_3.keys,key_resp_3.rt,key_resp_4.keys,key_resp_4.rt,participant,session,date,expName,psychopyVersion,frameRate,
,,,,,,,,,,,,,,,,,,,,,,space,66.25751119999995,,,,,,,,,,,,,,,,,,,,,,,,,16,001,2022_Oct_19_1318,Version4,2021.2.0,240.54536444885778,
blue_neutral,0,a,middle,blue,0,0,0,0,5,,,,,,,,,,,,,,,78.98466189999999,None,80.1107462,None,a,1,1.228894599999876,80.1107462,None,,,,,,,,,,,,,,,,16,001,2022_Oct_19_1318,Version4,2021.2.0,240.54536444885778,
red_congruent,1,k,right,red,0.6,0,1,1,1,,,,,,,,,,,,,,,82.3592579000001,None,83.43510809999998,None,k,1,0.7769121000001178,83.43510809999998,None,,,,,,,,,,,,,,,,16,001,2022_Oct_19_1318,Version4,2021.2.0,240.54536444885778,
red_incongruent,0,k,left,red,-0.6,0,2,2,3,,,,,,,,,,,,,,,85.23303450000003,None,86.37572520000003,None,k,1,0.6366782999998577,86.37572520000003,None,,,,,,,,,,,,,,,,16,001,2022_Oct_19_1318,Version4,2021.2.0,240.54536444885778,
red_congruent,1,k,right,red,0.6,0,3,3,1,,,,,,,,,,,,,,,88.0276687999999,None,89.11198509999986,None,k,1,0.4047793999998248,89.11198509999986,None,,,,,,,,,,,,,,,,16,001,2022_Oct_19_1318,Version4,2021.2.0,240.54536444885778,
blue_neutral,0,a,middle,blue,0,0,4,4,5,,,,,,,,,,,,,,,90.53849070000024,None,91.72307480000018,None,a,1,0.338036899999679,91.72307480000018,None,,,,,,,,,,,,,,,,16,001,2022_Oct_19_1318,Version4,2021.2.0,240.54536444885778,
blue_incongruent,0,a,right,blue,0.6,0,5,5,2,,,,,,,,,,,,,,,93.07479680000006,None,94.27168650000021,None,a,1,0.3977503000000979,94.27168650000021,None,,,,,,,,,,,,,,,,16,001,2022_Oct_19_1318,Version4,2021.2.0,240.54536444885778,
blue_neutral,0,a,middle,blue,0,1,0,6,5,,,,,,,,,,,,,,,95.68999080000003,None,96.79512629999999,None,a,1,0.3706834999993589,96.79512629999999,None,,,,,,,,,,,,,,,,16,001,2022_Oct_19_1318,Version4,2021.2.0,240.54536444885778,
blue_incongruent,0,a,right,blue,0.6,1,1,7,2,,,,,,,,,,,,,,,98.1800132000003,None,99.35199160000002,None,a,1,0.44620020000002114,99.35199160000002,None,,,,,,,,,,,,,,,,16,001,2022_Oct_19_1318,Version4,2021.2.0,240.54536444885778,
blue_neutral,0,a,middle,blue,0,1,2,8,5,,,,,,,,,,,,,,,100.8203739000005,None,101.89227309999978,None,a,1,0.2981944000002841,101.89227309999978,None,,,,,,,,,,,,,,,,16,001,2022_Oct_19_1318,Version4,2021.2.0,240.54536444885778,
red_congruent,1,k,right,red,0.6,1,3,9,1,,,,,,,,,,,,,,,103.21473579999974,None,104.30316240000002,None,k,1,0.35964809999950376,104.30316240000002,None,,,,,,,,,,,,,,,,16,001,2022_Oct_19_1318,Version4,2021.2.0,240.54536444885778,
red_incongruent,0,k,left,red,-0.6,1,4,10,3,,,,,,,,,,,,,,,105.67954260000033,None,106.73073650000015,None,k,1,0.3804360000003726,106.73073650000015,None,,,,,,,,,,,,,,,,16,001,2022_Oct_19_1318,Version4,2021.2.0,240.54536444885778,
red_incongruent,0,k,left,red,-0.6,1,5,11,3,,,,,,,,,,,,,,,108.1281100000001,None,109.26669030000039,None,k,1,0.4448492999999871,109.26669030000039,None,,,,,,,,,,,,,,,,16,001,2022_Oct_19_1318,Version4,2021.2.0,240.54536444885778,
red_incongruent,0,k,left,red,-0.6,2,0,12,3,,,,,,,,,,,,,,,110.73075170000038,None,111.80687590000025,None,k,1,0.3929737999997087,111.80687590000025,None,,,,,,,,,,,,,,,,16,001,2022_Oct_19_1318,Version4,2021.2.0,240.54536444885778,
blue_congruent,1,a,left,blue,-0.6,2,1,13,0,,,,,,,,,,,,,,,113.21253190000016,None,114.33873689999973,None,a,1,0.3254477999998926,114.33873689999973,None,,,,,,,,,,,,,,,,16,001,2022_Oct_19_1318,Version4,2021.2.0,240.54536444885778,
red_neutral,0,k,middle,red,0,2,2,14,4,,,,,,,,,,,,,,,115.67767229999981,None,116.77467779999961,None,k,1,0.29782109999996464,116.77467779999961,None,,,,,,,,,,,,,,,,16,001,2022_Oct_19_1318,Version4,2021.2.0,240.54536444885778,
blue_congruent,1,a,left,blue,-0.6,2,3,15,0,,,,,,,,,,,,,,,118.08856390000028,None,119.24437470000021,None,a,1,0.3084993000002214,119.24437470000021,None,,,,,,,,,,,,,,,,16,001,2022_Oct_19_1318,Version4,2021.2.0,240.54536444885778,
blue_incongruent,0,a,right,blue,0.6,2,4,16,2,,,,,,,,,,,,,,,120.5746849000002,None,121.71330309999985,None,a,1,0.46389039999939996,121.71330309999985,None,,,,,,,,,,,,,,,,16,001,2022_Oct_19_1318,Version4,2021.2.0,240.54536444885778,
red_congruent,1,k,right,red,0.6,2,5,17,1,,,,,,,,,,,,,,,123.19421379999994,None,124.25343329999987,None,k,1,0.35609610000028624,124.25343329999987,None,,,,,,,,,,,,,,,,16,001,2022_Oct_19_1318,Version4,2021.2.0,240.54536444885778,
red_neutral,0,k,middle,red,0,3,0,18,4,,,,,,,,,,,,,,,125.63431890000038,None,126.6476518000004,None,k,1,0.4422168999999485,126.6476518000004,None,,,,,,,,,,,,,,,,16,001,2022_Oct_19_1318,Version4,2021.2.0,240.54536444885778,
blue_congruent,1,a,left,blue,-0.6,3,1,19,0,,,,,,,,,,,,,,,128.1075254000002,None,129.23820920000026,None,a,1,0.3080029000002469,129.23820920000026,None,,,,,,,,,,,,,,,,16,001,2022_Oct_19_1318,Version4,2021.2.0,240.54536444885778,
blue_congruent,1,a,left,blue,-0.6,3,2,20,0,,,,,,,,,,,,,,,130.56859889999987,None,131.6445908999999,None,a,1,0.3340377999993507,131.6445908999999,None,,,,,,,,,,,,,,,,16,001,2022_Oct_19_1318,Version4,2021.2.0,240.54536444885778,
red_neutral,0,k,middle,red,0,3,3,21,4,,,,,,,,,,,,,,,132.9918657000003,None,134.09720719999996,None,k,1,0.36167719999957626,134.09720719999996,None,,,,,,,,,,,,,,,,16,001,2022_Oct_19_1318,Version4,2021.2.0,240.54536444885778,
red_neutral,0,k,middle,red,0,3,4,22,4,,,,,,,,,,,,,,,135.47798900000043,None,136.6000140000001,None,k,1,0.3153559000002133,136.6000140000001,None,,,,,,,,,,,,,,,,16,001,2022_Oct_19_1318,Version4,2021.2.0,240.54536444885778,
blue_incongruent,0,a,right,blue,0.6,3,5,23,2,,,,,,,,,,,,,,,137.9389245999996,None,138.99846089999983,None,a,1,0.4131184999996549,138.99846089999983,None,,,,,,,,,,,,,,,,16,001,2022_Oct_19_1318,Version4,2021.2.0,240.54536444885778,
,,,,,,,,,,,,,,,,,,,,,,,,,,,,,,,,,140.4332073999999,None,space,4.962161199999173,,,,,,,,,,,,16,001,2022_Oct_19_1318,Version4,2021.2.0,240.54536444885778,
blue_incongruent,0,a,right,blue,0.6,,,,,0,0,0,2,,,,,,,,,,,147.41137560000016,None,,,,,,,,,,,,148.50834859999986,None,a,1,1.0248380000002726,148.50834859999986,None,,,,,16,001,2022_Oct_19_1318,Version4,2021.2.0,240.54536444885778,
red_congruent,1,k,right,red,0.6,,,,,0,1,1,1,,,,,,,,,,,149.55112640000016,None,,,,,,,,,,,,150.6732304000002,None,k,1,0.9002509000001737,150.6732304000002,None,,,,,16,001,2022_Oct_19_1318,Version4,2021.2.0,240.54536444885778,
blue_neutral,0,a,middle,blue,0,,,,,0,2,2,5,,,,,,,,,,,151.59107480000011,None,,,,,,,,,,,,152.7003883000002,None,a,1,0.9133182000005036,152.7003883000002,None,,,,,16,001,2022_Oct_19_1318,Version4,2021.2.0,240.54536444885778,
red_neutral,0,k,middle,red,0,,,,,0,3,3,4,,,,,,,,,,,153.62628710000035,None,,,,,,,,,,,,154.69847940000045,None,k,1,0.8592821000002004,154.69847940000045,None,,,,,16,001,2022_Oct_19_1318,Version4,2021.2.0,240.54536444885778,
blue_neutral,0,a,middle,blue,0,,,,,0,4,4,5,,,,,,,,,,,155.57419009999967,None,,,,,,,,,,,,156.60892420000027,None,a,1,0.5730818000001818,156.60892420000027,None,,,,,16,001,2022_Oct_19_1318,Version4,2021.2.0,240.54536444885778,
red_congruent,1,k,right,red,0.6,,,,,0,5,5,1,,,,,,,,,,,157.1929014000002,None,,,,,,,,,,,,158.31050430000005,None,k,1,0.4877065999999104,158.31050430000005,None,,,,,16,001,2022_Oct_19_1318,Version4,2021.2.0,240.54536444885778,
red_incongruent,0,k,left,red,-0.6,,,,,1,0,6,3,,,,,,,,,,,158.81117980000045,None,,,,,,,,,,,,159.83296199999995,None,k,1,0.7579284999992524,159.83296199999995,None,,,,,16,001,2022_Oct_19_1318,Version4,2021.2.0,240.54536444885778,
red_neutral,0,k,middle,red,0,,,,,1,1,7,4,,,,,,,,,,,160.60893179999994,None,,,,,,,,,,,,161.65981130000046,None,k,1,0.5228920999998081,161.65981130000046,None,,,,,16,001,2022_Oct_19_1318,Version4,2021.2.0,240.54536444885778,
red_incongruent,0,k,left,red,-0.6,,,,,1,2,8,3,,,,,,,,,,,162.19824199999994,None,,,,,,,,,,,,163.38249049999968,None,k,1,0.5844598000003316,163.38249049999968,None,,,,,16,001,2022_Oct_19_1318,Version4,2021.2.0,240.54536444885778,
blue_congruent,1,a,left,blue,-0.6,,,,,1,3,9,0,,,,,,,,,,,163.98324550000007,None,,,,,,,,,,,,165.05522109999993,None,a,1,0.376041599999553,165.05522109999993,None,,,,,16,001,2022_Oct_19_1318,Version4,2021.2.0,240.54536444885778,
blue_congruent,1,a,left,blue,-0.6,,,,,1,4,10,0,,,,,,,,,,,165.4473525999997,None,,,,,,,,,,,,166.5027359999999,None,a,1,0.5927474000000075,166.5027359999999,None,,,,,16,001,2022_Oct_19_1318,Version4,2021.2.0,240.54536444885778,
blue_neutral,0,a,middle,blue,0,,,,,1,5,11,5,,,,,,,,,,,167.11158819999991,None,,,,,,,,,,,,168.16274850000036,None,a,1,0.42902520000006916,168.16274850000036,None,,,,,16,001,2022_Oct_19_1318,Version4,2021.2.0,240.54536444885778,
red_incongruent,0,k,left,red,-0.6,,,,,2,0,12,3,,,,,,,,,,,168.60492029999978,None,,,,,,,,,,,,169.7310048000004,None,k,1,0.35678330000064307,169.7310048000004,None,,,,,16,001,2022_Oct_19_1318,Version4,2021.2.0,240.54536444885778,
blue_congruent,1,a,left,blue,-0.6,,,,,2,1,13,0,,,,,,,,,,,170.10236300000042,None,,,,,,,,,,,,171.13669030000028,None,a,1,0.4552690000000439,171.13669030000028,None,,,,,16,001,2022_Oct_19_1318,Version4,2021.2.0,240.54536444885778,
red_incongruent,0,k,left,red,-0.6,,,,,2,2,14,3,,,,,,,,,,,171.60406410000041,None,,,,,,,,,,,,172.78841359999979,None,k,1,0.3959393999994063,172.78841359999979,None,,,,,16,001,2022_Oct_19_1318,Version4,2021.2.0,240.54536444885778,
red_neutral,0,k,middle,red,0,,,,,2,3,15,4,,,,,,,,,,,173.20136289999982,None,,,,,,,,,,,,174.28176159999975,None,k,1,0.43084799999996903,174.28176159999975,None,,,,,16,001,2022_Oct_19_1318,Version4,2021.2.0,240.54536444885778,
blue_incongruent,0,a,right,blue,0.6,,,,,2,4,16,2,,,,,,,,,,,174.7279970000004,None,,,,,,,,,,,,175.81246690000035,None,a,1,0.9004408000000694,175.81246690000035,None,,,,,16,001,2022_Oct_19_1318,Version4,2021.2.0,240.54536444885778,
red_incongruent,0,k,left,red,-0.6,,,,,2,5,17,3,,,,,,,,,,,176.73019239999985,None,,,,,,,,,,,,177.83127389999981,None,k,1,0.6258201999999073,177.83127389999981,None,,,,,16,001,2022_Oct_19_1318,Version4,2021.2.0,240.54536444885778,
red_incongruent,0,k,left,red,-0.6,,,,,3,0,18,3,,,,,,,,,,,178.47364270000025,None,,,,,,,,,,,,179.56229790000043,None,k,1,0.39905019999969227,179.56229790000043,None,,,,,16,001,2022_Oct_19_1318,Version4,2021.2.0,240.54536444885778,
blue_neutral,0,a,middle,blue,0,,,,,3,1,19,5,,,,,,,,,,,179.97944750000033,None,,,,,,,,,,,,181.08888239999987,None,a,1,0.6565006000000722,181.08888239999987,None,,,,,16,001,2022_Oct_19_1318,Version4,2021.2.0,240.54536444885778,
blue_neutral,0,a,middle,blue,0,,,,,3,2,20,5,,,,,,,,,,,181.75629150000032,None,,,,,,,,,,,,182.8490222000005,None,a,1,0.3925600000002305,182.8490222000005,None,,,,,16,001,2022_Oct_19_1318,Version4,2021.2.0,240.54536444885778,
blue_neutral,0,a,middle,blue,0,,,,,3,3,21,5,,,,,,,,,,,183.2577114999999,None,,,,,,,,,,,,184.27569640000047,None,a,1,0.2943838000001051,184.27569640000047,None,,,,,16,001,2022_Oct_19_1318,Version4,2021.2.0,240.54536444885778,
blue_incongruent,0,a,right,blue,0.6,,,,,3,4,22,2,,,,,,,,,,,184.5842891999996,None,,,,,,,,,,,,185.66461610000033,None,a,1,0.4013426999999865,185.66461610000033,None,,,,,16,001,2022_Oct_19_1318,Version4,2021.2.0,240.54536444885778,
red_neutral,0,k,middle,red,0,,,,,3,5,23,4,,,,,,,,,,,186.08169700000008,None,,,,,,,,,,,,187.22026899999992,None,k,1,0.4539052999998603,187.22026899999992,None,,,,,16,001,2022_Oct_19_1318,Version4,2021.2.0,240.54536444885778,
blue_incongruent,0,a,right,blue,0.6,,,,,4,0,24,2,,,,,,,,,,,187.68335220000017,None,,,,,,,,,,,,188.8221180000005,None,a,1,0.5322814000001017,188.8221180000005,None,,,,,16,001,2022_Oct_19_1318,Version4,2021.2.0,240.54536444885778,
blue_congruent,1,a,left,blue,-0.6,,,,,4,1,25,0,,,,,,,,,,,189.36838089999992,None,,,,,,,,,,,,190.46120279999968,None,a,1,0.4377486000003046,190.46120279999968,None,,,,,16,001,2022_Oct_19_1318,Version4,2021.2.0,240.54536444885778,
blue_neutral,0,a,middle,blue,0,,,,,4,2,26,5,,,,,,,,,,,190.9118212999997,None,,,,,,,,,,,,191.98363889999973,None,a,1,0.3391451999996207,191.98363889999973,None,,,,,16,001,2022_Oct_19_1318,Version4,2021.2.0,240.54536444885778,
blue_incongruent,0,a,right,blue,0.6,,,,,4,3,27,2,,,,,,,,,,,192.33401830000048,None,,,,,,,,,,,,193.49380359999986,None,a,1,0.3971961999995983,193.49380359999986,None,,,,,16,001,2022_Oct_19_1318,Version4,2021.2.0,240.54536444885778,
red_congruent,1,k,right,red,0.6,,,,,4,4,28,1,,,,,,,,,,,193.9024903000004,None,,,,,,,,,,,,195.0203403999999,None,k,1,0.3428315000001021,195.0203403999999,None,,,,,16,001,2022_Oct_19_1318,Version4,2021.2.0,240.54536444885778,
blue_neutral,0,a,middle,blue,0,,,,,4,5,29,5,,,,,,,,,,,195.37895290000006,None,,,,,,,,,,,,196.70963540000002,None,a,1,0.36596820000067964,196.70963540000002,None,,,,,16,001,2022_Oct_19_1318,Version4,2021.2.0,240.54536444885778,
blue_congruent,1,a,left,blue,-0.6,,,,,5,0,30,0,,,,,,,,,,,197.09337050000022,None,,,,,,,,,,,,198.1987892000002,None,a,1,0.34102099999927304,198.1987892000002,None,,,,,16,001,2022_Oct_19_1318,Version4,2021.2.0,240.54536444885778,
red_neutral,0,k,middle,red,0,,,,,5,1,31,4,,,,,,,,,,,198.5574290999998,None,,,,,,,,,,,,199.6667891000002,None,k,1,0.3611052000005657,199.6667891000002,None,,,,,16,001,2022_Oct_19_1318,Version4,2021.2.0,240.54536444885778,
red_congruent,1,k,right,red,0.6,,,,,5,2,32,1,,,,,,,,,,,200.04196770000044,None,,,,,,,,,,,,201.1934382000004,None,k,1,0.3546494000001985,201.1934382000004,None,,,,,16,001,2022_Oct_19_1318,Version4,2021.2.0,240.54536444885778,
blue_congruent,1,a,left,blue,-0.6,,,,,5,3,33,0,,,,,,,,,,,201.5607219999997,None,,,,,,,,,,,,202.6700033000002,None,a,1,0.34226660000058473,202.6700033000002,None,,,,,16,001,2022_Oct_19_1318,Version4,2021.2.0,240.54536444885778,
red_neutral,0,k,middle,red,0,,,,,5,4,34,4,,,,,,,,,,,203.0288144000001,None,,,,,,,,,,,,204.2049763,None,k,1,0.5118220999993355,204.2049763,None,,,,,16,001,2022_Oct_19_1318,Version4,2021.2.0,240.54536444885778,
blue_incongruent,0,a,right,blue,0.6,,,,,5,5,35,2,,,,,,,,,,,204.7350167999998,None,,,,,,,,,,,,205.7860622000003,None,a,1,0.6346733000000313,205.7860622000003,None,,,,,16,001,2022_Oct_19_1318,Version4,2021.2.0,240.54536444885778,
blue_incongruent,0,a,right,blue,0.6,,,,,6,0,36,2,,,,,,,,,,,206.43683780000038,None,,,,,,,,,,,,207.56302860000005,None,a,1,0.41791790000024776,207.56302860000005,None,,,,,16,001,2022_Oct_19_1318,Version4,2021.2.0,240.54536444885778,
red_neutral,0,k,middle,red,0,,,,,6,1,37,4,,,,,,,,,,,207.99687459999996,None,,,,,,,,,,,,209.23948210000026,None,k,1,0.38195899999936955,209.23948210000026,None,,,,,16,001,2022_Oct_19_1318,Version4,2021.2.0,240.54536444885778,
red_incongruent,0,k,left,red,-0.6,,,,,6,2,38,3,,,,,,,,,,,209.6402039999998,None,,,,,,,,,,,,210.79536729999973,None,k,1,0.40201839999917865,210.79536729999973,None,,,,,16,001,2022_Oct_19_1318,Version4,2021.2.0,240.54536444885778,
blue_congruent,1,a,left,blue,-0.6,,,,,6,3,39,0,,,,,,,,,,,211.20824289999973,None,,,,,,,,,,,,212.2676951999997,None,a,1,0.3058876999994027,212.2676951999997,None,,,,,16,001,2022_Oct_19_1318,Version4,2021.2.0,240.54536444885778,
blue_congruent,1,a,left,blue,-0.6,,,,,6,4,40,0,,,,,,,,,,,212.58887100000038,None,,,,,,,,,,,,213.68169369999987,None,a,1,0.32430229999954463,213.68169369999987,None,,,,,16,001,2022_Oct_19_1318,Version4,2021.2.0,240.54536444885778,
red_congruent,1,k,right,red,0.6,,,,,6,5,41,1,,,,,,,,,,,214.01932520000037,None,,,,,,,,,,,,215.14575339999965,None,k,1,0.3164654000001974,215.14575339999965,None,,,,,16,001,2022_Oct_19_1318,Version4,2021.2.0,240.54536444885778,
red_congruent,1,k,right,red,0.6,,,,,7,0,42,1,,,,,,,,,,,215.47983650000015,None,,,,,,,,,,,,216.5972895,None,k,1,0.3289251999995031,216.5972895,None,,,,,16,001,2022_Oct_19_1318,Version4,2021.2.0,240.54536444885778,
red_congruent,1,k,right,red,0.6,,,,,7,1,43,1,,,,,,,,,,,216.93937810000034,None,,,,,,,,,,,,218.04047539999965,None,k,1,0.33391949999986537,218.04047539999965,None,,,,,16,001,2022_Oct_19_1318,Version4,2021.2.0,240.54536444885778,
red_incongruent,0,k,left,red,-0.6,,,,,7,2,44,3,,,,,,,,,,,218.3908736999997,None,,,,,,,,,,,,219.44645420000006,None,a,0,0.3201248999994277,219.44645420000006,None,,,,,16,001,2022_Oct_19_1318,Version4,2021.2.0,240.54536444885778,
red_congruent,1,k,right,red,0.6,,,,,7,3,45,1,,,,,,,,,,,219.77981279999995,None,,,,,,,,,,,,220.89768440000034,None,k,1,0.4211101000000781,220.89768440000034,None,,,,,16,001,2022_Oct_19_1318,Version4,2021.2.0,240.54536444885778,
blue_incongruent,0,a,right,blue,0.6,,,,,7,4,46,2,,,,,,,,,,,221.3360547999996,None,,,,,,,,,,,,222.4451651000004,None,a,1,0.4578228999998828,222.4451651000004,None,,,,,16,001,2022_Oct_19_1318,Version4,2021.2.0,240.54536444885778,
red_neutral,0,k,middle,red,0,,,,,7,5,47,4,,,,,,,,,,,222.91649910000024,None,,,,,,,,,,,,224.01349140000048,None,k,1,0.5057420000002821,224.01349140000048,None,,,,,16,001,2022_Oct_19_1318,Version4,2021.2.0,240.54536444885778,
,,,,,,,,,,,,,,,,,,,,,,,,,,,,,,,,,,,,,,,,,,,,space,11.133322399999997,,,16,001,2022_Oct_19_1318,Version4,2021.2.0,240.54536444885778,
red_incongruent,0,k,left,red,-0.6,,,,,,,,,0,0,0,3,,,,,,,235.69718969999985,None,,,,,,,,,,,,236.91905460000044,None,k,1,0.8583706999997958,236.91905460000044,None,,,,,16,001,2022_Oct_19_1318,Version4,2021.2.0,240.54536444885778,
blue_neutral,0,a,middle,blue,0,,,,,,,,,0,1,1,5,,,,,,,237.7949980999997,None,,,,,,,,,,,,238.9129009000003,None,a,1,0.6083945000000313,238.9129009000003,None,,,,,16,001,2022_Oct_19_1318,Version4,2021.2.0,240.54536444885778,
red_congruent,1,k,right,red,0.6,,,,,,,,,0,2,2,1,,,,,,,239.5342773999996,None,,,,,,,,,,,,240.63133760000028,None,k,1,0.34614979999969364,240.63133760000028,None,,,,,16,001,2022_Oct_19_1318,Version4,2021.2.0,240.54536444885778,
red_congruent,1,k,right,red,0.6,,,,,,,,,0,3,3,1,,,,,,,240.9941584000003,None,,,,,,,,,,,,242.05778280000004,None,k,1,0.6160751000006712,242.05778280000004,None,,,,,16,001,2022_Oct_19_1318,Version4,2021.2.0,240.54536444885778,
red_congruent,1,k,right,red,0.6,,,,,,,,,0,4,4,1,,,,,,,242.69170259999964,None,,,,,,,,,,,,243.75113050000027,None,k,1,0.6429604000004474,243.75113050000027,None,,,,,16,001,2022_Oct_19_1318,Version4,2021.2.0,240.54536444885778,
blue_incongruent,0,a,right,blue,0.6,,,,,,,,,0,5,5,2,,,,,,,244.4103608999999,None,,,,,,,,,,,,245.42811389999997,None,a,1,0.45412779999969644,245.42811389999997,None,,,,,16,001,2022_Oct_19_1318,Version4,2021.2.0,240.54536444885778,
blue_congruent,1,a,left,blue,-0.6,,,,,,,,,1,0,6,0,,,,,,,245.8951850999997,None,,,,,,,,,,,,247.0295927000002,None,a,1,0.8209686000000147,247.0295927000002,None,,,,,16,001,2022_Oct_19_1318,Version4,2021.2.0,240.54536444885778,
red_incongruent,0,k,left,red,-0.6,,,,,,,,,1,1,7,3,,,,,,,247.86822660000007,None,,,,,,,,,,,,248.89007569999967,None,k,1,0.46482099999957427,248.89007569999967,None,,,,,16,001,2022_Oct_19_1318,Version4,2021.2.0,240.54536444885778,
red_congruent,1,k,right,red,0.6,,,,,,,,,1,2,8,1,,,,,,,249.3697291000003,None,,,,,,,,,,,,250.54188120000026,None,k,1,0.5491184000002249,250.54188120000026,None,,,,,16,001,2022_Oct_19_1318,Version4,2021.2.0,240.54536444885778,
blue_incongruent,0,a,right,blue,0.6,,,,,,,,,1,3,9,2,,,,,,,251.10518309999998,None,,,,,,,,,,,,252.26014410000016,None,a,1,0.46293729999979405,252.26014410000016,None,,,,,16,001,2022_Oct_19_1318,Version4,2021.2.0,240.54536444885778,
blue_congruent,1,a,left,blue,-0.6,,,,,,,,,1,4,10,0,,,,,,,252.73579519999976,None,,,,,,,,,,,,253.81178630000022,None,a,1,0.3437502000006134,253.81178630000022,None,,,,,16,001,2022_Oct_19_1318,Version4,2021.2.0,240.54536444885778,
blue_incongruent,0,a,right,blue,0.6,,,,,,,,,1,5,11,2,,,,,,,254.17065370000046,None,,,,,,,,,,,,255.25511349999988,None,a,1,0.5005324000003384,255.25511349999988,None,,,,,16,001,2022_Oct_19_1318,Version4,2021.2.0,240.54536444885778,
blue_incongruent,0,a,right,blue,0.6,,,,,,,,,2,0,12,2,,,,,,,255.77238629999965,None,,,,,,,,,,,,256.9651356999998,None,a,1,0.49458290000075067,256.9651356999998,None,,,,,16,001,2022_Oct_19_1318,Version4,2021.2.0,240.54536444885778,
red_neutral,0,k,middle,red,0,,,,,,,,,2,1,13,4,,,,,,,257.46990659999983,None,,,,,,,,,,,,258.56265980000035,None,k,1,0.37726740000016434,258.56265980000035,None,,,,,16,001,2022_Oct_19_1318,Version4,2021.2.0,240.54536444885778,
red_congruent,1,k,right,red,0.6,,,,,,,,,2,2,14,1,,,,,,,258.95910460000005,None,,,,,,,,,,,,260.16020549999985,None,k,1,0.3080878999999186,260.16020549999985,None,,,,,16,001,2022_Oct_19_1318,Version4,2021.2.0,240.54536444885778,
blue_neutral,0,a,middle,blue,0,,,,,,,,,2,3,15,5,,,,,,,260.4857563999999,None,,,,,,,,,,,,261.5618000999998,None,a,1,0.4345014999998966,261.5618000999998,None,,,,,16,001,2022_Oct_19_1318,Version4,2021.2.0,240.54536444885778,
red_neutral,0,k,middle,red,0,,,,,,,,,2,4,16,4,,,,,,,262.0122816999997,None,,,,,,,,,,,,263.0467684,None,k,1,0.46979730000020936,263.0467684,None,,,,,16,001,2022_Oct_19_1318,Version4,2021.2.0,240.54536444885778,
red_incongruent,0,k,left,red,-0.6,,,,,,,,,2,5,17,3,,,,,,,263.53473369999983,None,,,,,,,,,,,,264.6986748000004,None,k,1,0.4582572999997865,264.6986748000004,None,,,,,16,001,2022_Oct_19_1318,Version4,2021.2.0,240.54536444885778,
blue_incongruent,0,a,right,blue,0.6,,,,,,,,,3,0,18,2,,,,,,,265.17397670000037,None,,,,,,,,,,,,266.35864919999995,None,a,1,0.4786060999995243,266.35864919999995,None,,,,,16,001,2022_Oct_19_1318,Version4,2021.2.0,240.54536444885778,
red_congruent,1,k,right,red,0.6,,,,,,,,,3,1,19,1,,,,,,,266.8549343999998,None,,,,,,,,,,,,268.10625110000046,None,k,1,0.4511451999997007,268.10625110000046,None,,,,,16,001,2022_Oct_19_1318,Version4,2021.2.0,240.54536444885778,
blue_neutral,0,a,middle,blue,0,,,,,,,,,3,2,20,5,,,,,,,268.57341190000034,None,,,,,,,,,,,,269.67456189999984,None,a,1,0.3870504999995319,269.67456189999984,None,,,,,16,001,2022_Oct_19_1318,Version4,2021.2.0,240.54536444885778,
red_neutral,0,k,middle,red,0,,,,,,,,,3,3,21,4,,,,,,,270.07492539999976,None,,,,,,,,,,,,271.1470916000003,None,k,1,0.4425432999996701,271.1470916000003,None,,,,,16,001,2022_Oct_19_1318,Version4,2021.2.0,240.54536444885778,
red_neutral,0,k,middle,red,0,,,,,,,,,3,4,22,4,,,,,,,271.60578099999975,None,,,,,,,,,,,,272.6984735000001,None,k,1,0.4278129000003901,272.6984735000001,None,,,,,16,001,2022_Oct_19_1318,Version4,2021.2.0,240.54536444885778,
blue_congruent,1,a,left,blue,-0.6,,,,,,,,,3,5,23,0,,,,,,,273.1366745999999,None,,,,,,,,,,,,274.29615739999963,None,a,1,0.3979200000003402,274.29615739999963,None,,,,,16,001,2022_Oct_19_1318,Version4,2021.2.0,240.54536444885778,
red_incongruent,0,k,left,red,-0.6,,,,,,,,,4,0,24,3,,,,,,,274.71328870000025,None,,,,,,,,,,,,275.88520670000025,None,k,1,0.42521379999925557,275.88520670000025,None,,,,,16,001,2022_Oct_19_1318,Version4,2021.2.0,240.54536444885778,
blue_neutral,0,a,middle,blue,0,,,,,,,,,4,1,25,5,,,,,,,276.3275643000002,None,,,,,,,,,,,,277.3994699,None,a,1,0.43104910000056407,277.3994699,None,,,,,16,001,2022_Oct_19_1318,Version4,2021.2.0,240.54536444885778,
red_incongruent,0,k,left,red,-0.6,,,,,,,,,4,2,26,3,,,,,,,277.8499496999998,None,,,,,,,,,,,,279.11398919999965,None,k,1,0.5491040999995676,279.11398919999965,None,,,,,16,001,2022_Oct_19_1318,Version4,2021.2.0,240.54536444885778,
blue_congruent,1,a,left,blue,-0.6,,,,,,,,,4,3,27,0,,,,,,,279.67681180000045,None,,,,,,,,,,,,280.80723270000044,None,a,1,0.35974329999953625,280.80723270000044,None,,,,,16,001,2022_Oct_19_1318,Version4,2021.2.0,240.54536444885778,
red_incongruent,0,k,left,red,-0.6,,,,,,,,,4,4,28,3,,,,,,,281.1828123,None,,,,,,,,,,,,282.2380221999997,None,k,1,0.4492879000008543,282.2380221999997,None,,,,,16,001,2022_Oct_19_1318,Version4,2021.2.0,240.54536444885778,
red_congruent,1,k,right,red,0.6,,,,,,,,,4,5,29,1,,,,,,,282.7050954000001,None,,,,,,,,,,,,283.7897638999998,None,k,1,0.4176038999994489,283.7897638999998,None,,,,,16,001,2022_Oct_19_1318,Version4,2021.2.0,240.54536444885778,
red_neutral,0,k,middle,red,0,,,,,,,,,5,0,30,4,,,,,,,284.2233885999999,None,,,,,,,,,,,,285.34110290000035,None,k,1,0.33045839999977034,285.34110290000035,None,,,,,16,001,2022_Oct_19_1318,Version4,2021.2.0,240.54536444885778,
blue_congruent,1,a,left,blue,-0.6,,,,,,,,,5,1,31,0,,,,,,,285.6832609999997,None,,,,,,,,,,,,286.81354919999967,None,a,1,0.34622979999949166,286.81354919999967,None,,,,,16,001,2022_Oct_19_1318,Version4,2021.2.0,240.54536444885778,
blue_congruent,1,a,left,blue,-0.6,,,,,,,,,5,2,32,0,,,,,,,287.17232829999966,None,,,,,,,,,,,,288.24429029999965,None,a,1,0.3237194000003001,288.24429029999965,None,,,,,16,001,2022_Oct_19_1318,Version4,2021.2.0,240.54536444885778,
red_incongruent,0,k,left,red,-0.6,,,,,,,,,5,3,33,3,,,,,,,288.58632629999966,None,,,,,,,,,,,,289.7459138999998,None,k,1,0.3744261000001643,289.7459138999998,None,,,,,16,001,2022_Oct_19_1318,Version4,2021.2.0,240.54536444885778,
blue_congruent,1,a,left,blue,-0.6,,,,,,,,,5,4,34,0,,,,,,,290.1298319000002,None,,,,,,,,,,,,291.3642721000001,None,a,1,0.3323947999997472,291.3642721000001,None,,,,,16,001,2022_Oct_19_1318,Version4,2021.2.0,240.54536444885778,
blue_neutral,0,a,middle,blue,0,,,,,,,,,5,5,35,5,,,,,,,291.7104961,None,,,,,,,,,,,,292.8199767000001,None,a,1,0.5007838000001357,292.8199767000001,None,,,,,16,001,2022_Oct_19_1318,Version4,2021.2.0,240.54536444885778,
blue_neutral,0,a,middle,blue,0,,,,,,,,,6,0,36,5,,,,,,,293.3372264000004,None,,,,,,,,,,,,294.37983829999985,None,a,1,0.357247500000085,294.37983829999985,None,,,,,16,001,2022_Oct_19_1318,Version4,2021.2.0,240.54536444885778,
red_congruent,1,k,right,red,0.6,,,,,,,,,6,1,37,1,,,,,,,294.7512283000001,None,,,,,,,,,,,,295.7772981000003,None,k,1,0.3756893999998283,295.7772981000003,None,,,,,16,001,2022_Oct_19_1318,Version4,2021.2.0,240.54536444885778,
red_neutral,0,k,middle,red,0,,,,,,,,,6,2,38,4,,,,,,,296.1652511999996,None,,,,,,,,,,,,297.2955700999996,None,k,1,0.36993340000026365,297.2955700999996,None,,,,,16,001,2022_Oct_19_1318,Version4,2021.2.0,240.54536444885778,
blue_incongruent,0,a,right,blue,0.6,,,,,,,,,6,3,39,2,,,,,,,297.6835096,None,,,,,,,,,,,,298.74294280000004,None,a,1,0.4746396000000459,298.74294280000004,None,,,,,16,001,2022_Oct_19_1318,Version4,2021.2.0,240.54536444885778,
blue_incongruent,0,a,right,blue,0.6,,,,,,,,,6,4,40,2,,,,,,,299.2309680000003,None,,,,,,,,,,,,300.36131890000024,None,a,1,0.4724925999998959,300.36131890000024,None,,,,,16,001,2022_Oct_19_1318,Version4,2021.2.0,240.54536444885778,
red_neutral,0,k,middle,red,0,,,,,,,,,6,5,41,4,,,,,,,300.8493642999997,None,,,,,,,,,,,,301.94634799999994,None,k,1,0.43155750000005355,301.94634799999994,None,,,,,16,001,2022_Oct_19_1318,Version4,2021.2.0,240.54536444885778,
blue_neutral,0,a,middle,blue,0,,,,,,,,,7,0,42,5,,,,,,,302.3884817000003,None,,,,,,,,,,,,303.5148621000003,None,a,1,0.4154809000001478,303.5148621000003,None,,,,,16,001,2022_Oct_19_1318,Version4,2021.2.0,240.54536444885778,
red_neutral,0,k,middle,red,0,,,,,,,,,7,1,43,4,,,,,,,303.94839189999993,None,,,,,,,,,,,,305.0914408000003,None,k,1,0.49502660000052856,305.0914408000003,None,,,,,16,001,2022_Oct_19_1318,Version4,2021.2.0,240.54536444885778,
red_incongruent,0,k,left,red,-0.6,,,,,,,,,7,2,44,3,,,,,,,305.5960372000004,None,,,,,,,,,,,,306.7264059000004,None,k,1,0.4841437000004589,306.7264059000004,None,,,,,16,001,2022_Oct_19_1318,Version4,2021.2.0,240.54536444885778,
blue_incongruent,0,a,right,blue,0.6,,,,,,,,,7,3,45,2,,,,,,,307.2269712000002,None,,,,,,,,,,,,308.37824709999995,None,a,1,0.4805210000004081,308.37824709999995,None,,,,,16,001,2022_Oct_19_1318,Version4,2021.2.0,240.54536444885778,
blue_congruent,1,a,left,blue,-0.6,,,,,,,,,7,4,46,0,,,,,,,308.87464729999965,None,,,,,,,,,,,,309.9464935000001,None,a,1,0.5365234999999302,309.9464935000001,None,,,,,16,001,2022_Oct_19_1318,Version4,2021.2.0,240.54536444885778,
blue_neutral,0,a,middle,blue,0,,,,,,,,,7,5,47,5,,,,,,,310.4972922000002,None,,,,,,,,,,,,311.5231762999997,None,a,1,0.32814069999949425,311.5231762999997,None,,,,,16,001,2022_Oct_19_1318,Version4,2021.2.0,240.54536444885778,
,,,,,,,,,,,,,,,,,,,,,,,,,,,,,,,,,,,,,,,,,,,,space,10.902511199999935,,,16,001,2022_Oct_19_1318,Version4,2021.2.0,240.54536444885778,
blue_congruent,1,a,left,blue,-0.6,,,,,,,,,,,,,0,0,0,0,,,322.80604110000013,None,,,,,,,,,,,,323.9405144999996,None,a,1,0.7284372000003714,323.9405144999996,None,,,,,16,001,2022_Oct_19_1318,Version4,2021.2.0,240.54536444885778,
red_incongruent,0,k,left,red,-0.6,,,,,,,,,,,,,0,1,1,3,,,324.6871716999999,None,,,,,,,,,,,,325.82575190000034,None,k,1,0.523363899999822,325.82575190000034,None,,,,,16,001,2022_Oct_19_1318,Version4,2021.2.0,240.54536444885778,
red_congruent,1,k,right,red,0.6,,,,,,,,,,,,,0,2,2,1,,,326.36401739999974,None,,,,,,,,,,,,327.4817645999997,None,k,1,0.4838363999997455,327.4817645999997,None,,,,,16,001,2022_Oct_19_1318,Version4,2021.2.0,240.54536444885778,
blue_incongruent,0,a,right,blue,0.6,,,,,,,,,,,,,0,3,3,2,,,327.98231590000023,None,,,,,,,,,,,,329.15438140000015,None,a,1,0.42719359999955486,329.15438140000015,None,,,,,16,001,2022_Oct_19_1318,Version4,2021.2.0,240.54536444885778,
red_neutral,0,k,middle,red,0,,,,,,,,,,,,,0,4,4,4,,,329.5923346000004,None,,,,,,,,,,,,330.7228089000005,None,k,1,0.42699830000037764,330.7228089000005,None,,,,,16,001,2022_Oct_19_1318,Version4,2021.2.0,240.54536444885778,
red_incongruent,0,k,left,red,-0.6,,,,,,,,,,,,,0,5,5,3,,,331.16054229999963,None,,,,,,,,,,,,332.32449270000006,None,k,1,0.3616495999995095,332.32449270000006,None,,,,,16,001,2022_Oct_19_1318,Version4,2021.2.0,240.54536444885778,
blue_neutral,0,a,middle,blue,0,,,,,,,,,,,,,1,0,6,5,,,332.6997005999997,None,,,,,,,,,,,,333.83851710000044,None,a,1,0.3758917000004658,333.83851710000044,None,,,,,16,001,2022_Oct_19_1318,Version4,2021.2.0,240.54536444885778,
blue_incongruent,0,a,right,blue,0.6,,,,,,,,,,,,,1,1,7,2,,,334.2306837000001,None,,,,,,,,,,,,335.32331269999986,None,a,1,0.739164300000084,335.32331269999986,None,,,,,16,001,2022_Oct_19_1318,Version4,2021.2.0,240.54536444885778,
blue_congruent,1,a,left,blue,-0.6,,,,,,,,,,,,,1,2,8,0,,,336.07409359999974,None,,,,,,,,,,,,337.19639959999995,None,a,1,0.9463396000001012,337.19639959999995,None,,,,,16,001,2022_Oct_19_1318,Version4,2021.2.0,240.54536444885778,
red_incongruent,0,k,left,red,-0.6,,,,,,,,,,,,,1,3,9,3,,,338.15560779999987,None,,,,,,,,,,,,339.22756960000015,None,k,1,0.44337240000004385,339.22756960000015,None,,,,,16,001,2022_Oct_19_1318,Version4,2021.2.0,240.54536444885778,
red_neutral,0,k,middle,red,0,,,,,,,,,,,,,1,4,10,4,,,339.6863916999996,None,,,,,,,,,,,,340.73333890000004,None,k,1,0.3380609000005279,340.73333890000004,None,,,,,16,001,2022_Oct_19_1318,Version4,2021.2.0,240.54536444885778,
blue_neutral,0,a,middle,blue,0,,,,,,,,,,,,,1,5,11,5,,,341.0878894000002,None,,,,,,,,,,,,342.1556856000002,None,a,1,0.58786180000061,342.1556856000002,None,,,,,16,001,2022_Oct_19_1318,Version4,2021.2.0,240.54536444885778,
red_congruent,1,k,right,red,0.6,,,,,,,,,,,,,2,0,12,1,,,342.76049920000014,None,,,,,,,,,,,,343.82822760000045,None,k,1,0.5313673000000563,343.82822760000045,None,,,,,16,001,2022_Oct_19_1318,Version4,2021.2.0,240.54536444885778,
red_incongruent,0,k,left,red,-0.6,,,,,,,,,,,,,2,1,13,3,,,344.37875570000006,None,,,,,,,,,,,,345.4591832000001,None,k,1,0.4766757999996116,345.4591832000001,None,,,,,16,001,2022_Oct_19_1318,Version4,2021.2.0,240.54536444885778,
red_incongruent,0,k,left,red,-0.6,,,,,,,,,,,,,2,2,14,3,,,345.95146129999966,None,,,,,,,,,,,,347.17351889999964,None,k,1,0.39451980000012554,347.17351889999964,None,,,,,16,001,2022_Oct_19_1318,Version4,2021.2.0,240.54536444885778,
blue_neutral,0,a,middle,blue,0,,,,,,,,,,,,,2,3,15,5,,,347.5822691999997,None,,,,,,,,,,,,348.80864489999976,None,a,1,0.3758816999998089,348.80864489999976,None,,,,,16,001,2022_Oct_19_1318,Version4,2021.2.0,240.54536444885778,
red_neutral,0,k,middle,red,0,,,,,,,,,,,,,2,4,16,4,,,349.2006672000002,None,,,,,,,,,,,,350.41022060000023,None,k,1,0.3987318999998024,350.41022060000023,None,,,,,16,001,2022_Oct_19_1318,Version4,2021.2.0,240.54536444885778,
red_congruent,1,k,right,red,0.6,,,,,,,,,,,,,2,5,17,1,,,350.8273892000002,None,,,,,,,,,,,,352.0329136000005,None,k,1,0.3518000000003667,352.0329136000005,None,,,,,16,001,2022_Oct_19_1318,Version4,2021.2.0,240.54536444885778,
red_incongruent,0,k,left,red,-0.6,,,,,,,,,,,,,3,0,18,3,,,352.3958015000003,None,,,,,,,,,,,,353.6428821000004,None,k,1,0.37435889999960636,353.6428821000004,None,,,,,16,001,2022_Oct_19_1318,Version4,2021.2.0,240.54536444885778,
blue_incongruent,0,a,right,blue,0.6,,,,,,,,,,,,,3,1,19,2,,,354.03041559999974,None,,,,,,,,,,,,355.11536430000024,None,a,1,0.40575320000061765,355.11536430000024,None,,,,,16,001,2022_Oct_19_1318,Version4,2021.2.0,240.54536444885778,
blue_incongruent,0,a,right,blue,0.6,,,,,,,,,,,,,3,2,20,2,,,355.54060290000007,None,,,,,,,,,,,,356.6669201999998,None,a,1,0.40647439999975177,356.6669201999998,None,,,,,16,001,2022_Oct_19_1318,Version4,2021.2.0,240.54536444885778,
blue_congruent,1,a,left,blue,-0.6,,,,,,,,,,,,,3,3,21,0,,,357.0881889999996,None,,,,,,,,,,,,358.1977302,None,a,1,0.2999631999991834,358.1977302,None,,,,,16,001,2022_Oct_19_1318,Version4,2021.2.0,240.54536444885778,
blue_incongruent,0,a,right,blue,0.6,,,,,,,,,,,,,3,4,22,2,,,358.51476460000003,None,,,,,,,,,,,,359.6200395000001,None,a,1,0.41372020000017073,359.6200395000001,None,,,,,16,001,2022_Oct_19_1318,Version4,2021.2.0,240.54536444885778,
red_neutral,0,k,middle,red,0,,,,,,,,,,,,,3,5,23,4,,,360.0456396000004,None,,,,,,,,,,,,361.1383318000003,None,k,1,0.3836585999997624,361.1383318000003,None,,,,,16,001,2022_Oct_19_1318,Version4,2021.2.0,240.54536444885778,
red_neutral,0,k,middle,red,0,,,,,,,,,,,,,4,0,24,4,,,361.53461339999967,None,,,,,,,,,,,,362.71084550000023,None,k,1,0.28352499999982683,362.71084550000023,None,,,,,16,001,2022_Oct_19_1318,Version4,2021.2.0,240.54536444885778,
red_neutral,0,k,middle,red,0,,,,,,,,,,,,,4,1,25,4,,,363.01119270000027,None,,,,,,,,,,,,364.1039853999996,None,k,1,0.3543890000000829,364.1039853999996,None,,,,,16,001,2022_Oct_19_1318,Version4,2021.2.0,240.54536444885778,
red_congruent,1,k,right,red,0.6,,,,,,,,,,,,,4,2,26,1,,,364.4710203999998,None,,,,,,,,,,,,365.4929589999997,None,k,1,0.35788640000009764,365.4929589999997,None,,,,,16,001,2022_Oct_19_1318,Version4,2021.2.0,240.54536444885778,
red_congruent,1,k,right,red,0.6,,,,,,,,,,,,,4,3,27,1,,,365.8640197,None,,,,,,,,,,,,367.0279899000002,None,k,1,0.3348113000001831,367.0279899000002,None,,,,,16,001,2022_Oct_19_1318,Version4,2021.2.0,240.54536444885778,
red_congruent,1,k,right,red,0.6,,,,,,,,,,,,,4,4,28,1,,,367.3783070000004,None,,,,,,,,,,,,368.4668611000002,None,k,1,0.31224899999961053,368.4668611000002,None,,,,,16,001,2022_Oct_19_1318,Version4,2021.2.0,240.54536444885778,
blue_neutral,0,a,middle,blue,0,,,,,,,,,,,,,4,5,29,5,,,368.79233799999975,None,,,,,,,,,,,,369.8225416999999,None,a,1,0.3806230999998661,369.8225416999999,None,,,,,16,001,2022_Oct_19_1318,Version4,2021.2.0,240.54536444885778,
blue_incongruent,0,a,right,blue,0.6,,,,,,,,,,,,,5,0,30,2,,,370.21470329999966,None,,,,,,,,,,,,371.4033808999998,None,a,1,0.431991399999788,371.4033808999998,None,,,,,16,001,2022_Oct_19_1318,Version4,2021.2.0,240.54536444885778,
blue_neutral,0,a,middle,blue,0,,,,,,,,,,,,,5,1,31,5,,,371.8497349000004,None,,,,,,,,,,,,372.96763520000013,None,a,1,0.3246454999998605,372.96763520000013,None,,,,,16,001,2022_Oct_19_1318,Version4,2021.2.0,240.54536444885778,
blue_neutral,0,a,middle,blue,0,,,,,,,,,,,,,5,2,32,5,,,373.3096467999999,None,,,,,,,,,,,,374.47316329999967,None,a,1,0.33884149999994406,374.47316329999967,None,,,,,16,001,2022_Oct_19_1318,Version4,2021.2.0,240.54536444885778,
red_neutral,0,k,middle,red,0,,,,,,,,,,,,,5,3,33,4,,,374.82778110000027,None,,,,,,,,,,,,375.88742200000024,None,k,1,0.5005804000002172,375.88742200000024,None,,,,,16,001,2022_Oct_19_1318,Version4,2021.2.0,240.54536444885778,
blue_incongruent,0,a,right,blue,0.6,,,,,,,,,,,,,5,4,34,2,,,376.40022050000016,None,,,,,,,,,,,,377.5307270999997,None,a,1,0.42548570000053587,377.5307270999997,None,,,,,16,001,2022_Oct_19_1318,Version4,2021.2.0,240.54536444885778,
blue_neutral,0,a,middle,blue,0,,,,,,,,,,,,,5,5,35,5,,,377.96871500000043,None,,,,,,,,,,,,379.08239100000037,None,a,1,0.38615349999963655,379.08239100000037,None,,,,,16,001,2022_Oct_19_1318,Version4,2021.2.0,240.54536444885778,
blue_congruent,1,a,left,blue,-0.6,,,,,,,,,,,,,6,0,36,0,,,379.4828631000005,None,,,,,,,,,,,,380.5047977999998,None,a,1,0.3557799000000159,380.5047977999998,None,,,,,16,001,2022_Oct_19_1318,Version4,2021.2.0,240.54536444885778,
blue_congruent,1,a,left,blue,-0.6,,,,,,,,,,,,,6,1,37,0,,,380.8717885000001,None,,,,,,,,,,,,381.91037519999963,None,a,1,0.3343832000000475,381.91037519999963,None,,,,,16,001,2022_Oct_19_1318,Version4,2021.2.0,240.54536444885778,
blue_congruent,1,a,left,blue,-0.6,,,,,,,,,,,,,6,2,38,0,,,382.26076390000026,None,,,,,,,,,,,,383.4912325999999,None,a,1,0.28979570000046806,383.4912325999999,None,,,,,16,001,2022_Oct_19_1318,Version4,2021.2.0,240.54536444885778,
red_incongruent,0,k,left,red,-0.6,,,,,,,,,,,,,6,3,39,3,,,383.79570139999987,None,,,,,,,,,,,,384.8595992000005,None,a,0,0.32959589999973105,384.8595992000005,None,,,,,16,001,2022_Oct_19_1318,Version4,2021.2.0,240.54536444885778,
red_neutral,0,k,middle,red,0,,,,,,,,,,,,,6,4,40,4,,,385.2013702999998,None,,,,,,,,,,,,386.2610387999998,None,k,1,0.4483505999996851,386.2610387999998,None,,,,,16,001,2022_Oct_19_1318,Version4,2021.2.0,240.54536444885778,
blue_congruent,1,a,left,blue,-0.6,,,,,,,,,,,,,6,5,41,0,,,386.72324210000033,None,,,,,,,,,,,,387.82095210000034,None,a,1,0.552987099999882,387.82095210000034,None,,,,,16,001,2022_Oct_19_1318,Version4,2021.2.0,240.54536444885778,
red_incongruent,0,k,left,red,-0.6,,,,,,,,,,,,,7,0,42,3,,,388.3922961000003,None,,,,,,,,,,,,389.54355239999995,None,k,1,0.5504661000004489,389.54355239999995,None,,,,,16,001,2022_Oct_19_1318,Version4,2021.2.0,240.54536444885778,
red_congruent,1,k,right,red,0.6,,,,,,,,,,,,,7,1,43,1,,,390.11079440000003,None,,,,,,,,,,,,391.2036576000005,None,k,1,0.4824275000000853,391.2036576000005,None,,,,,16,001,2022_Oct_19_1318,Version4,2021.2.0,240.54536444885778,
blue_neutral,0,a,middle,blue,0,,,,,,,,,,,,,7,2,44,5,,,391.69993420000037,None,,,,,,,,,,,,392.9178035,None,a,1,0.6247009999997317,392.9178035,None,,,,,16,001,2022_Oct_19_1318,Version4,2021.2.0,240.54536444885778,
red_congruent,1,k,right,red,0.6,,,,,,,,,,,,,7,3,45,1,,,393.5560790000004,None,,,,,,,,,,,,394.6113596,None,k,1,0.8592539999999644,394.6113596,None,,,,,16,001,2022_Oct_19_1318,Version4,2021.2.0,240.54536444885778,
blue_congruent,1,a,left,blue,-0.6,,,,,,,,,,,,,7,4,46,0,,,395.48317629999974,None,,,,,,,,,,,,396.5885930999998,None,a,1,0.3862136999996437,396.5885930999998,None,,,,,16,001,2022_Oct_19_1318,Version4,2021.2.0,240.54536444885778,
blue_incongruent,0,a,right,blue,0.6,,,,,,,,,,,,,7,5,47,2,,,396.9888962,None,,,,,,,,,,,,398.0525061000003,None,a,1,0.7785865000005288,398.0525061000003,None,,,,,16,001,2022_Oct_19_1318,Version4,2021.2.0,240.54536444885778,
,,,,,,,,,,,,,,,,,,,,,,,,,,,,,,,,,,,,,,,,,,,,space,3.3341129000000365,,,16,001,2022_Oct_19_1318,Version4,2021.2.0,240.54536444885778,
,,,,,,,,,,,,,,,,,,,,,,,,,,,,,,,,,,,,,,,,,,,,,,space,5.573649599999953,16,001,2022_Oct_19_1318,Version4,2021.2.0,240.54536444885778,
