images,congruentcy,corrAns,box_pos,box_color,box_x,pract.thisRepN,pract.thisTrialN,pract.thisN,pract.thisIndex,trials.thisRepN,trials.thisTrialN,trials.thisN,trials.thisIndex,trials_2.thisRepN,trials_2.thisTrialN,trials_2.thisN,trials_2.thisIndex,trials_3.thisRepN,trials_3.thisTrialN,trials_3.thisN,trials_3.thisIndex,key_resp_instr.keys,key_resp_instr.rt,FixCross.started,FixCross.stopped,Box_p.started,Box_p.stopped,key_resp_P.keys,key_resp_P.corr,key_resp_P.rt,key_resp_P.started,key_resp_P.stopped,text_3.started,text_3.stopped,key_resp_2.keys,key_resp_2.rt,Box.started,Box.stopped,key_resp.keys,key_resp.corr,key_resp.rt,key_resp.started,key_resp.stopped,key_resp_3.keys,key_resp_3.rt,key_resp_4.keys,key_resp_4.rt,participant,session,date,expName,psychopyVersion,frameRate,
,,,,,,,,,,,,,,,,,,,,,,space,87.88429229999929,,,,,,,,,,,,,,,,,,,,,,,,,17,001,2022_Oct_19_1527,Version4,2021.2.0,241.42518113253604,
blue_incongruent,0,a,right,blue,0.6,0,0,0,2,,,,,,,,,,,,,,,100.63343039999927,None,101.71789759999956,None,a,1,1.0366909999993368,101.71789759999956,None,,,,,,,,,,,,,,,,17,001,2022_Oct_19_1527,Version4,2021.2.0,241.42518113253604,
red_neutral,0,k,middle,red,0,0,1,1,4,,,,,,,,,,,,,,,103.77860490000057,None,104.8461513000002,None,k,1,0.6768862000008085,104.8461513000002,None,,,,,,,,,,,,,,,,17,001,2022_Oct_19_1527,Version4,2021.2.0,241.42518113253604,
red_incongruent,0,k,left,red,-0.6,0,2,2,3,,,,,,,,,,,,,,,106.53984769999988,None,107.59907030000068,None,k,1,0.6123107000003074,107.59907030000068,None,,,,,,,,,,,,,,,,17,001,2022_Oct_19_1527,Version4,2021.2.0,241.42518113253604,
blue_congruent,1,a,left,blue,-0.6,0,3,3,0,,,,,,,,,,,,,,,109.2257996999997,None,110.35617129999991,None,a,1,0.5036932000002707,110.35617129999991,None,,,,,,,,,,,,,,,,17,001,2022_Oct_19_1527,Version4,2021.2.0,241.42518113253604,
red_neutral,0,k,middle,red,0,0,4,4,4,,,,,,,,,,,,,,,111.88300130000061,None,112.93389799999932,None,k,1,0.4382024000005913,112.93389799999932,None,,,,,,,,,,,,,,,,17,001,2022_Oct_19_1527,Version4,2021.2.0,241.42518113253604,
red_neutral,0,k,middle,red,0,0,5,5,4,,,,,,,,,,,,,,,114.38978370000041,None,115.53698690000056,None,k,1,0.4275971999995818,115.53698690000056,None,,,,,,,,,,,,,,,,17,001,2022_Oct_19_1527,Version4,2021.2.0,241.42518113253604,
red_incongruent,0,k,left,red,-0.6,1,0,6,3,,,,,,,,,,,,,,,116.98024310000073,None,118.0312969000006,None,k,1,0.46969159999935073,118.0312969000006,None,,,,,,,,,,,,,,,,17,001,2022_Oct_19_1527,Version4,2021.2.0,241.42518113253604,
blue_neutral,0,a,middle,blue,0,1,1,7,5,,,,,,,,,,,,,,,119.52019269999982,None,120.58807840000009,None,a,1,0.5210167999994155,120.58807840000009,None,,,,,,,,,,,,,,,,17,001,2022_Oct_19_1527,Version4,2021.2.0,241.42518113253604,
blue_congruent,1,a,left,blue,-0.6,1,2,8,0,,,,,,,,,,,,,,,122.12309289999939,None,123.2448432000001,None,a,1,0.5288311000003887,123.2448432000001,None,,,,,,,,,,,,,,,,17,001,2022_Oct_19_1527,Version4,2021.2.0,241.42518113253604,
red_congruent,1,k,right,red,0.6,1,3,9,1,,,,,,,,,,,,,,,124.7968034000005,None,125.84759809999923,None,k,1,0.5022662999999739,125.84759809999923,None,,,,,,,,,,,,,,,,17,001,2022_Oct_19_1527,Version4,2021.2.0,241.42518113253604,
red_incongruent,0,k,left,red,-0.6,1,4,10,3,,,,,,,,,,,,,,,127.37030629999936,None,128.47123350000038,None,a,0,0.4149457999992592,128.47123350000038,None,,,,,,,,,,,,,,,,17,001,2022_Oct_19_1527,Version4,2021.2.0,241.42518113253604,
blue_incongruent,0,a,right,blue,0.6,1,5,11,2,,,,,,,,,,,,,,,129.91062050000073,None,130.99494070000037,None,a,1,0.555762699999832,130.99494070000037,None,,,,,,,,,,,,,,,,17,001,2022_Oct_19_1527,Version4,2021.2.0,241.42518113253604,
blue_neutral,0,a,middle,blue,0,2,0,12,5,,,,,,,,,,,,,,,132.5716167999999,None,133.80209280000054,None,a,1,0.5728273999993689,133.80209280000054,None,,,,,,,,,,,,,,,,17,001,2022_Oct_19_1527,Version4,2021.2.0,241.42518113253604,
blue_incongruent,0,a,right,blue,0.6,2,1,13,2,,,,,,,,,,,,,,,135.39545309999994,None,136.4717380000002,None,a,1,0.567917900001703,136.4717380000002,None,,,,,,,,,,,,,,,,17,001,2022_Oct_19_1527,Version4,2021.2.0,241.42518113253604,
red_neutral,0,k,middle,red,0,2,2,14,4,,,,,,,,,,,,,,,138.06087780000053,None,139.1535184000004,None,k,1,0.3584279999995488,139.1535184000004,None,,,,,,,,,,,,,,,,17,001,2022_Oct_19_1527,Version4,2021.2.0,241.42518113253604,
blue_incongruent,0,a,right,blue,0.6,2,3,15,2,,,,,,,,,,,,,,,140.53424489999998,None,141.78116899999986,None,a,1,0.4828199000003224,141.78116899999986,None,,,,,,,,,,,,,,,,17,001,2022_Oct_19_1527,Version4,2021.2.0,241.42518113253604,
red_congruent,1,k,right,red,0.6,2,4,16,1,,,,,,,,,,,,,,,143.28726060000008,None,144.38399879999997,None,k,1,0.440594499999861,144.38399879999997,None,,,,,,,,,,,,,,,,17,001,2022_Oct_19_1527,Version4,2021.2.0,241.42518113253604,
red_congruent,1,k,right,red,0.6,2,5,17,1,,,,,,,,,,,,,,,145.84815870000057,None,146.89075799999955,None,k,1,0.38189579999925627,146.89075799999955,None,,,,,,,,,,,,,,,,17,001,2022_Oct_19_1527,Version4,2021.2.0,241.42518113253604,
blue_congruent,1,a,left,blue,-0.6,3,0,18,0,,,,,,,,,,,,,,,148.28807050000069,None,149.33092530000067,None,a,1,0.3900680000006105,149.33092530000067,None,,,,,,,,,,,,,,,,17,001,2022_Oct_19_1527,Version4,2021.2.0,241.42518113253604,
blue_congruent,1,a,left,blue,-0.6,3,1,19,0,,,,,,,,,,,,,,,150.74066429999948,None,151.91276490000018,None,a,1,0.5209881999999197,151.91276490000018,None,,,,,,,,,,,,,,,,17,001,2022_Oct_19_1527,Version4,2021.2.0,241.42518113253604,
blue_neutral,0,a,middle,blue,0,3,2,20,5,,,,,,,,,,,,,,,153.45217980000052,None,154.46991340000022,None,a,1,0.4280858000001899,154.46991340000022,None,,,,,,,,,,,,,,,,17,001,2022_Oct_19_1527,Version4,2021.2.0,241.42518113253604,
red_incongruent,0,k,left,red,-0.6,3,3,21,3,,,,,,,,,,,,,,,155.91311599999972,None,157.00591659999918,None,k,1,0.476164499999868,157.00591659999918,None,,,,,,,,,,,,,,,,17,001,2022_Oct_19_1527,Version4,2021.2.0,241.42518113253604,
red_congruent,1,k,right,red,0.6,3,4,22,1,,,,,,,,,,,,,,,158.4991458000004,None,159.64621819999957,None,k,1,0.4284733000004053,159.64621819999957,None,,,,,,,,,,,,,,,,17,001,2022_Oct_19_1527,Version4,2021.2.0,241.42518113253604,
blue_neutral,0,a,middle,blue,0,3,5,23,5,,,,,,,,,,,,,,,161.08940900000016,None,162.11970590000055,None,a,1,0.4753777000005357,162.11970590000055,None,,,,,,,,,,,,,,,,17,001,2022_Oct_19_1527,Version4,2021.2.0,241.42518113253604,
,,,,,,,,,,,,,,,,,,,,,,,,,,,,,,,,,163.62965529999929,None,space,1.82895230000031,,,,,,,,,,,,17,001,2022_Oct_19_1527,Version4,2021.2.0,241.42518113253604,
red_congruent,1,k,right,red,0.6,,,,,0,0,0,1,,,,,,,,,,,167.4626759999992,None,,,,,,,,,,,,168.62666250000075,None,k,1,0.4009456000003411,168.62666250000075,None,,,,,17,001,2022_Oct_19_1527,Version4,2021.2.0,241.42518113253604,
blue_neutral,0,a,middle,blue,0,,,,,0,1,1,5,,,,,,,,,,,169.03959960000066,None,,,,,,,,,,,,170.15736060000017,None,a,1,0.4065035000003263,170.15736060000017,None,,,,,17,001,2022_Oct_19_1527,Version4,2021.2.0,241.42518113253604,
red_neutral,0,k,middle,red,0,,,,,0,2,2,4,,,,,,,,,,,170.58258120000028,None,,,,,,,,,,,,171.6839712000001,None,k,1,0.36832010000034643,171.6839712000001,None,,,,,17,001,2022_Oct_19_1527,Version4,2021.2.0,241.42518113253604,
blue_neutral,0,a,middle,blue,0,,,,,0,3,3,5,,,,,,,,,,,172.06764069999917,None,,,,,,,,,,,,173.14780839999912,None,a,1,0.38441400000010617,173.14780839999912,None,,,,,17,001,2022_Oct_19_1527,Version4,2021.2.0,241.42518113253604,
blue_congruent,1,a,left,blue,-0.6,,,,,0,4,4,0,,,,,,,,,,,173.54436480000004,None,,,,,,,,,,,,174.59516799999983,None,a,1,0.4973322999994707,174.59516799999983,None,,,,,17,001,2022_Oct_19_1527,Version4,2021.2.0,241.42518113253604,
red_neutral,0,k,middle,red,0,,,,,0,5,5,4,,,,,,,,,,,175.1083534999998,None,,,,,,,,,,,,176.31783890000042,None,k,1,0.49488469999960216,176.31783890000042,None,,,,,17,001,2022_Oct_19_1527,Version4,2021.2.0,241.42518113253604,
red_neutral,0,k,middle,red,0,,,,,1,0,6,4,,,,,,,,,,,176.82672140000068,None,,,,,,,,,,,,177.9028462999995,None,k,1,0.4704046999995626,177.9028462999995,None,,,,,17,001,2022_Oct_19_1527,Version4,2021.2.0,241.42518113253604,
blue_congruent,1,a,left,blue,-0.6,,,,,1,1,7,0,,,,,,,,,,,178.39096880000034,None,,,,,,,,,,,,179.50037639999937,None,a,1,0.4327544999996462,179.50037639999937,None,,,,,17,001,2022_Oct_19_1527,Version4,2021.2.0,241.42518113253604,
blue_congruent,1,a,left,blue,-0.6,,,,,1,2,8,0,,,,,,,,,,,179.9468467000006,None,,,,,,,,,,,,180.9977990999996,None,a,1,0.40774749999945925,180.9977990999996,None,,,,,17,001,2022_Oct_19_1527,Version4,2021.2.0,241.42518113253604,
red_incongruent,0,k,left,red,-0.6,,,,,1,3,9,3,,,,,,,,,,,181.4192404000005,None,,,,,,,,,,,,182.54944129999967,None,k,1,0.8721389999991516,182.54944129999967,None,,,,,17,001,2022_Oct_19_1527,Version4,2021.2.0,241.42518113253604,
red_incongruent,0,k,left,red,-0.6,,,,,1,4,10,3,,,,,,,,,,,183.43387059999986,None,,,,,,,,,,,,184.56417449999935,None,k,1,0.6736858000003849,184.56417449999935,None,,,,,17,001,2022_Oct_19_1527,Version4,2021.2.0,241.42518113253604,
blue_neutral,0,a,middle,blue,0,,,,,1,5,11,5,,,,,,,,,,,185.25209170000016,None,,,,,,,,,,,,186.34938890000012,None,a,1,0.44866600000023027,186.34938890000012,None,,,,,17,001,2022_Oct_19_1527,Version4,2021.2.0,241.42518113253604,
red_congruent,1,k,right,red,0.6,,,,,2,0,12,1,,,,,,,,,,,186.8166610999997,None,,,,,,,,,,,,187.8342279999997,None,k,1,1.0280986999987363,187.8342279999997,None,,,,,17,001,2022_Oct_19_1527,Version4,2021.2.0,241.42518113253604,
blue_neutral,0,a,middle,blue,0,,,,,2,1,13,5,,,,,,,,,,,188.87717469999916,None,,,,,,,,,,,,189.93645370000013,None,a,1,0.4941272000014578,189.93645370000013,None,,,,,17,001,2022_Oct_19_1527,Version4,2021.2.0,241.42518113253604,
blue_neutral,0,a,middle,blue,0,,,,,2,2,14,5,,,,,,,,,,,190.44534890000068,None,,,,,,,,,,,,191.6303638999998,None,a,1,0.43257139999877836,191.6303638999998,None,,,,,17,001,2022_Oct_19_1527,Version4,2021.2.0,241.42518113253604,
red_incongruent,0,k,left,red,-0.6,,,,,2,3,15,3,,,,,,,,,,,192.08053909999944,None,,,,,,,,,,,,193.19012470000052,None,k,1,0.672903500000757,193.19012470000052,None,,,,,17,001,2022_Oct_19_1527,Version4,2021.2.0,241.42518113253604,
blue_incongruent,0,a,right,blue,0.6,,,,,2,4,16,2,,,,,,,,,,,193.88245730000017,None,,,,,,,,,,,,194.90010020000045,None,a,1,0.5711692999993829,194.90010020000045,None,,,,,17,001,2022_Oct_19_1527,Version4,2021.2.0,241.42518113253604,
red_incongruent,0,k,left,red,-0.6,,,,,2,5,17,3,,,,,,,,,,,195.4842136999996,None,,,,,,,,,,,,196.6768988999993,None,k,1,0.6668861000016477,196.6768988999993,None,,,,,17,001,2022_Oct_19_1527,Version4,2021.2.0,241.42518113253604,
blue_congruent,1,a,left,blue,-0.6,,,,,3,0,18,0,,,,,,,,,,,197.357097099999,None,,,,,,,,,,,,198.50813329999983,None,a,1,0.4755726000003051,198.50813329999983,None,,,,,17,001,2022_Oct_19_1527,Version4,2021.2.0,241.42518113253604,
red_neutral,0,k,middle,red,0,,,,,3,1,19,4,,,,,,,,,,,198.99635540000054,None,,,,,,,,,,,,200.1266427999999,None,k,1,0.4893295000001672,200.1266427999999,None,,,,,17,001,2022_Oct_19_1527,Version4,2021.2.0,241.42518113253604,
blue_congruent,1,a,left,blue,-0.6,,,,,3,2,20,0,,,,,,,,,,,200.6313496999992,None,,,,,,,,,,,,201.79901260000042,None,a,1,0.4491870000001654,201.79901260000042,None,,,,,17,001,2022_Oct_19_1527,Version4,2021.2.0,241.42518113253604,
blue_incongruent,0,a,right,blue,0.6,,,,,3,3,21,2,,,,,,,,,,,202.26224170000023,None,,,,,,,,,,,,203.37174760000016,None,a,1,0.6127012999986619,203.37174760000016,None,,,,,17,001,2022_Oct_19_1527,Version4,2021.2.0,241.42518113253604,
blue_congruent,1,a,left,blue,-0.6,,,,,3,4,22,0,,,,,,,,,,,203.9974287999994,None,,,,,,,,,,,,205.08605329999955,None,a,1,0.47455140000056417,205.08605329999955,None,,,,,17,001,2022_Oct_19_1527,Version4,2021.2.0,241.42518113253604,
blue_incongruent,0,a,right,blue,0.6,,,,,3,5,23,2,,,,,,,,,,,205.57826580000074,None,,,,,,,,,,,,206.71672469999976,None,a,1,0.5004035999991174,206.71672469999976,None,,,,,17,001,2022_Oct_19_1527,Version4,2021.2.0,241.42518113253604,
red_congruent,1,k,right,red,0.6,,,,,4,0,24,1,,,,,,,,,,,207.22990879999998,None,,,,,,,,,,,,208.3644674999996,None,k,1,0.4286288000002969,208.3644674999996,None,,,,,17,001,2022_Oct_19_1527,Version4,2021.2.0,241.42518113253604,
blue_incongruent,0,a,right,blue,0.6,,,,,4,1,25,2,,,,,,,,,,,208.80234240000027,None,,,,,,,,,,,,209.92013579999912,None,a,1,0.4811528000009275,209.92013579999912,None,,,,,17,001,2022_Oct_19_1527,Version4,2021.2.0,241.42518113253604,
red_incongruent,0,k,left,red,-0.6,,,,,4,2,26,3,,,,,,,,,,,210.4167808000002,None,,,,,,,,,,,,211.5176721000007,None,k,1,0.5798484000006283,211.5176721000007,None,,,,,17,001,2022_Oct_19_1527,Version4,2021.2.0,241.42518113253604,
red_neutral,0,k,middle,red,0,,,,,4,3,27,4,,,,,,,,,,,212.1099673000008,None,,,,,,,,,,,,213.23615059999975,None,k,1,0.5255778000009741,213.23615059999975,None,,,,,17,001,2022_Oct_19_1527,Version4,2021.2.0,241.42518113253604,
red_congruent,1,k,right,red,0.6,,,,,4,4,28,1,,,,,,,,,,,213.77436300000045,None,,,,,,,,,,,,214.95487949999915,None,k,1,0.423065900000438,214.95487949999915,None,,,,,17,001,2022_Oct_19_1527,Version4,2021.2.0,241.42518113253604,
blue_neutral,0,a,middle,blue,0,,,,,4,5,29,5,,,,,,,,,,,215.3926431,None,,,,,,,,,,,,216.56051509999998,None,a,1,0.4499474999993254,216.56051509999998,None,,,,,17,001,2022_Oct_19_1527,Version4,2021.2.0,241.42518113253604,
blue_neutral,0,a,middle,blue,0,,,,,5,0,30,5,,,,,,,,,,,217.02768569999898,None,,,,,,,,,,,,218.15390130000014,None,a,1,0.4485193000000436,218.15390130000014,None,,,,,17,001,2022_Oct_19_1527,Version4,2021.2.0,241.42518113253604,
red_neutral,0,k,middle,red,0,,,,,5,1,31,4,,,,,,,,,,,218.6172358999993,None,,,,,,,,,,,,219.73055229999954,None,k,1,0.5680513999996037,219.73055229999954,None,,,,,17,001,2022_Oct_19_1527,Version4,2021.2.0,241.42518113253604,
red_incongruent,0,k,left,red,-0.6,,,,,5,2,32,3,,,,,,,,,,,220.31057169999985,None,,,,,,,,,,,,221.41151059999902,None,k,1,0.591653800000131,221.41151059999902,None,,,,,17,001,2022_Oct_19_1527,Version4,2021.2.0,241.42518113253604,
red_congruent,1,k,right,red,0.6,,,,,5,3,33,1,,,,,,,,,,,222.02077049999934,None,,,,,,,,,,,,223.15500649999922,None,k,1,0.49631419999968784,223.15500649999922,None,,,,,17,001,2022_Oct_19_1527,Version4,2021.2.0,241.42518113253604,
blue_incongruent,0,a,right,blue,0.6,,,,,5,4,34,2,,,,,,,,,,,223.66395030000058,None,,,,,,,,,,,,224.83188560000053,None,a,1,0.531501900000876,224.83188560000053,None,,,,,17,001,2022_Oct_19_1527,Version4,2021.2.0,241.42518113253604,
red_neutral,0,k,middle,red,0,,,,,5,5,35,4,,,,,,,,,,,225.3782214999992,None,,,,,,,,,,,,226.54636369999935,None,k,1,0.5771758000009868,226.54636369999935,None,,,,,17,001,2022_Oct_19_1527,Version4,2021.2.0,241.42518113253604,
red_incongruent,0,k,left,red,-0.6,,,,,6,0,36,3,,,,,,,,,,,227.13451370000075,None,,,,,,,,,,,,228.3522054999994,None,k,1,0.6676196999997046,228.3522054999994,None,,,,,17,001,2022_Oct_19_1527,Version4,2021.2.0,241.42518113253604,
blue_incongruent,0,a,right,blue,0.6,,,,,6,1,37,2,,,,,,,,,,,229.03213759999926,None,,,,,,,,,,,,230.06242070000008,None,a,1,0.509595999999874,230.06242070000008,None,,,,,17,001,2022_Oct_19_1527,Version4,2021.2.0,241.42518113253604,
red_congruent,1,k,right,red,0.6,,,,,6,2,38,1,,,,,,,,,,,230.5882056999999,None,,,,,,,,,,,,231.66823180000029,None,k,1,0.6244356999995944,231.66823180000029,None,,,,,17,001,2022_Oct_19_1527,Version4,2021.2.0,241.42518113253604,
blue_congruent,1,a,left,blue,-0.6,,,,,6,3,39,0,,,,,,,,,,,232.31058669999948,None,,,,,,,,,,,,233.35336710000047,None,a,1,0.4671416000001045,233.35336710000047,None,,,,,17,001,2022_Oct_19_1527,Version4,2021.2.0,241.42518113253604,
red_incongruent,0,k,left,red,-0.6,,,,,6,4,40,3,,,,,,,,,,,233.8373448000002,None,,,,,,,,,,,,234.97175439999955,None,k,1,0.6010127999998076,234.97175439999955,None,,,,,17,001,2022_Oct_19_1527,Version4,2021.2.0,241.42518113253604,
red_congruent,1,k,right,red,0.6,,,,,6,5,41,1,,,,,,,,,,,235.58919950000018,None,,,,,,,,,,,,236.63184679999904,None,k,1,0.46906250000029104,236.63184679999904,None,,,,,17,001,2022_Oct_19_1527,Version4,2021.2.0,241.42518113253604,
blue_incongruent,0,a,right,blue,0.6,,,,,7,0,42,2,,,,,,,,,,,237.11986679999973,None,,,,,,,,,,,,238.1751502999996,None,a,1,0.4621182000009867,238.1751502999996,None,,,,,17,001,2022_Oct_19_1527,Version4,2021.2.0,241.42518113253604,
blue_congruent,1,a,left,blue,-0.6,,,,,7,1,43,0,,,,,,,,,,,238.65019159999974,None,,,,,,,,,,,,239.67673529999956,None,a,1,0.45662020000054326,239.67673529999956,None,,,,,17,001,2022_Oct_19_1527,Version4,2021.2.0,241.42518113253604,
red_neutral,0,k,middle,red,0,,,,,7,2,44,4,,,,,,,,,,,240.1482219999998,None,,,,,,,,,,,,241.38739179999902,None,k,1,0.5782159999998839,241.38739179999902,None,,,,,17,001,2022_Oct_19_1527,Version4,2021.2.0,241.42518113253604,
red_congruent,1,k,right,red,0.6,,,,,7,3,45,1,,,,,,,,,,,241.9794268000005,None,,,,,,,,,,,,243.06366770000022,None,k,1,0.42210660000091593,243.06366770000022,None,,,,,17,001,2022_Oct_19_1527,Version4,2021.2.0,241.42518113253604,
blue_incongruent,0,a,right,blue,0.6,,,,,7,4,46,2,,,,,,,,,,,243.4976239000007,None,,,,,,,,,,,,244.61530780000066,None,a,1,0.49474300000110816,244.61530780000066,None,,,,,17,001,2022_Oct_19_1527,Version4,2021.2.0,241.42518113253604,
blue_neutral,0,a,middle,blue,0,,,,,7,5,47,5,,,,,,,,,,,245.12419000000045,None,,,,,,,,,,,,246.22535360000074,None,a,1,0.4689040000012028,246.22535360000074,None,,,,,17,001,2022_Oct_19_1527,Version4,2021.2.0,241.42518113253604,
,,,,,,,,,,,,,,,,,,,,,,,,,,,,,,,,,,,,,,,,,,,,space,2.284817899999325,,,17,001,2022_Oct_19_1527,Version4,2021.2.0,241.42518113253604,
blue_congruent,1,a,left,blue,-0.6,,,,,,,,,0,0,0,0,,,,,,,249.02811509999992,None,,,,,,,,,,,,250.14202490000025,None,a,1,0.38471559999925375,250.14202490000025,None,,,,,17,001,2022_Oct_19_1527,Version4,2021.2.0,241.42518113253604,
blue_incongruent,0,a,right,blue,0.6,,,,,,,,,0,1,1,2,,,,,,,250.5382694,None,,,,,,,,,,,,251.61857419999978,None,a,1,0.436418399998729,251.61857419999978,None,,,,,17,001,2022_Oct_19_1527,Version4,2021.2.0,241.42518113253604,
red_neutral,0,k,middle,red,0,,,,,,,,,0,2,2,4,,,,,,,252.06495910000012,None,,,,,,,,,,,,253.1411064999993,None,k,1,0.36206660000061675,253.1411064999993,None,,,,,17,001,2022_Oct_19_1527,Version4,2021.2.0,241.42518113253604,
red_neutral,0,k,middle,red,0,,,,,,,,,0,3,3,4,,,,,,,253.51672789999975,None,,,,,,,,,,,,254.6301055999993,None,k,1,0.40123440000024857,254.6301055999993,None,,,,,17,001,2022_Oct_19_1527,Version4,2021.2.0,241.42518113253604,
red_incongruent,0,k,left,red,-0.6,,,,,,,,,0,4,4,3,,,,,,,255.04730369999925,None,,,,,,,,,,,,256.2276517999999,None,a,0,0.3879974999999831,256.2276517999999,None,,,,,17,001,2022_Oct_19_1527,Version4,2021.2.0,241.42518113253604,
blue_neutral,0,a,middle,blue,0,,,,,,,,,0,5,5,5,,,,,,,256.62820850000026,None,,,,,,,,,,,,257.7125340999992,None,a,1,0.5032525999995414,257.7125340999992,None,,,,,17,001,2022_Oct_19_1527,Version4,2021.2.0,241.42518113253604,
blue_incongruent,0,a,right,blue,0.6,,,,,,,,,1,0,6,2,,,,,,,258.2340913000007,None,,,,,,,,,,,,259.26444190000075,None,a,1,0.679588099999819,259.26444190000075,None,,,,,17,001,2022_Oct_19_1527,Version4,2021.2.0,241.42518113253604,
blue_congruent,1,a,left,blue,-0.6,,,,,,,,,1,1,7,0,,,,,,,259.9568263000001,None,,,,,,,,,,,,261.0204104000004,None,a,1,0.5318322000002809,261.0204104000004,None,,,,,17,001,2022_Oct_19_1527,Version4,2021.2.0,241.42518113253604,
blue_neutral,0,a,middle,blue,0,,,,,,,,,1,2,8,5,,,,,,,261.5667799999992,None,,,,,,,,,,,,262.63882580000063,None,a,1,0.44179450000046927,262.63882580000063,None,,,,,17,001,2022_Oct_19_1527,Version4,2021.2.0,241.42518113253604,
blue_incongruent,0,a,right,blue,0.6,,,,,,,,,1,3,9,2,,,,,,,263.09357739999905,None,,,,,,,,,,,,264.2238078999999,None,a,1,0.5128645999993751,264.2238078999999,None,,,,,17,001,2022_Oct_19_1527,Version4,2021.2.0,241.42518113253604,
blue_neutral,0,a,middle,blue,0,,,,,,,,,1,4,10,5,,,,,,,264.7493503000005,None,,,,,,,,,,,,265.8756806000001,None,a,1,0.43750120000004245,265.8756806000001,None,,,,,17,001,2022_Oct_19_1527,Version4,2021.2.0,241.42518113253604,
blue_congruent,1,a,left,blue,-0.6,,,,,,,,,1,5,11,0,,,,,,,266.3260900999994,None,,,,,,,,,,,,267.4815079,None,a,1,0.5277874999992491,267.4815079,None,,,,,17,001,2022_Oct_19_1527,Version4,2021.2.0,241.42518113253604,
blue_incongruent,0,a,right,blue,0.6,,,,,,,,,2,0,12,2,,,,,,,268.0236765999998,None,,,,,,,,,,,,269.0456224999998,None,a,1,0.4198734000001423,269.0456224999998,None,,,,,17,001,2022_Oct_19_1527,Version4,2021.2.0,241.42518113253604,
red_congruent,1,k,right,red,0.6,,,,,,,,,2,1,13,1,,,,,,,269.4793542999996,None,,,,,,,,,,,,270.6056454999998,None,k,1,0.45989059999919846,270.6056454999998,None,,,,,17,001,2022_Oct_19_1527,Version4,2021.2.0,241.42518113253604,
red_neutral,0,k,middle,red,0,,,,,,,,,2,2,14,4,,,,,,,271.0769278000007,None,,,,,,,,,,,,272.1031153999993,None,k,1,0.3949088999997912,272.1031153999993,None,,,,,17,001,2022_Oct_19_1527,Version4,2021.2.0,241.42518113253604,
red_incongruent,0,k,left,red,-0.6,,,,,,,,,2,3,15,3,,,,,,,272.50763069999994,None,,,,,,,,,,,,273.5629633999997,None,k,1,0.47097369999937655,273.5629633999997,None,,,,,17,001,2022_Oct_19_1527,Version4,2021.2.0,241.42518113253604,
red_congruent,1,k,right,red,0.6,,,,,,,,,2,4,16,1,,,,,,,274.04669400000057,None,,,,,,,,,,,,275.1229048999994,None,k,1,0.3595281999987492,275.1229048999994,None,,,,,17,001,2022_Oct_19_1527,Version4,2021.2.0,241.42518113253604,
red_incongruent,0,k,left,red,-0.6,,,,,,,,,2,5,17,3,,,,,,,275.4982713999998,None,,,,,,,,,,,,276.5703584999992,None,k,1,0.40801269999974465,276.5703584999992,None,,,,,17,001,2022_Oct_19_1527,Version4,2021.2.0,241.42518113253604,
blue_neutral,0,a,middle,blue,0,,,,,,,,,3,0,18,5,,,,,,,276.9956555000008,None,,,,,,,,,,,,278.08439,None,a,1,0.4865117999997892,278.08439,None,,,,,17,001,2022_Oct_19_1527,Version4,2021.2.0,241.42518113253604,
red_congruent,1,k,right,red,0.6,,,,,,,,,3,1,19,1,,,,,,,278.58917979999933,None,,,,,,,,,,,,279.6358825999996,None,k,1,0.3988740999993752,279.6358825999996,None,,,,,17,001,2022_Oct_19_1527,Version4,2021.2.0,241.42518113253604,
blue_congruent,1,a,left,blue,-0.6,,,,,,,,,3,2,20,0,,,,,,,280.0531057999997,None,,,,,,,,,,,,281.13330979999955,None,a,1,0.4136844000004203,281.13330979999955,None,,,,,17,001,2022_Oct_19_1527,Version4,2021.2.0,241.42518113253604,
red_neutral,0,k,middle,red,0,,,,,,,,,3,3,21,4,,,,,,,281.5630455999999,None,,,,,,,,,,,,282.6890447000005,None,k,1,0.594214100001409,282.6890447000005,None,,,,,17,001,2022_Oct_19_1527,Version4,2021.2.0,241.42518113253604,
red_neutral,0,k,middle,red,0,,,,,,,,,3,4,22,4,,,,,,,283.29819769999995,None,,,,,,,,,,,,284.4492528999999,None,k,1,0.37016360000052373,284.4492528999999,None,,,,,17,001,2022_Oct_19_1527,Version4,2021.2.0,241.42518113253604,
blue_congruent,1,a,left,blue,-0.6,,,,,,,,,3,5,23,0,,,,,,,284.83301329999995,None,,,,,,,,,,,,285.88005449999946,None,a,1,0.5555977000003622,285.88005449999946,None,,,,,17,001,2022_Oct_19_1527,Version4,2021.2.0,241.42518113253604,
red_congruent,1,k,right,red,0.6,,,,,,,,,4,0,24,1,,,,,,,286.44734640000024,None,,,,,,,,,,,,287.5275956000005,None,k,1,0.572310200001084,287.5275956000005,None,,,,,17,001,2022_Oct_19_1527,Version4,2021.2.0,241.42518113253604,
red_neutral,0,k,middle,red,0,,,,,,,,,4,1,25,4,,,,,,,288.1158809000008,None,,,,,,,,,,,,289.1584235999999,None,k,1,0.3816480999994383,289.1584235999999,None,,,,,17,001,2022_Oct_19_1527,Version4,2021.2.0,241.42518113253604,
red_neutral,0,k,middle,red,0,,,,,,,,,4,2,26,4,,,,,,,289.5590033999997,None,,,,,,,,,,,,290.6516738999999,None,k,1,0.3366260999991937,290.6516738999999,None,,,,,17,001,2022_Oct_19_1527,Version4,2021.2.0,241.42518113253604,
red_congruent,1,k,right,red,0.6,,,,,,,,,4,3,27,1,,,,,,,291.002212899999,None,,,,,,,,,,,,292.0658287999995,None,k,1,0.38681670000005397,292.0658287999995,None,,,,,17,001,2022_Oct_19_1527,Version4,2021.2.0,241.42518113253604,
blue_congruent,1,a,left,blue,-0.6,,,,,,,,,4,4,28,0,,,,,,,292.4702720999994,None,,,,,,,,,,,,293.59229419999974,None,a,1,0.4444153999993432,293.59229419999974,None,,,,,17,001,2022_Oct_19_1527,Version4,2021.2.0,241.42518113253604,
red_incongruent,0,k,left,red,-0.6,,,,,,,,,4,5,29,3,,,,,,,294.05126240000027,None,,,,,,,,,,,,295.29411099999925,None,k,1,0.6628464999994321,295.29411099999925,None,,,,,17,001,2022_Oct_19_1527,Version4,2021.2.0,241.42518113253604,
red_congruent,1,k,right,red,0.6,,,,,,,,,5,0,30,1,,,,,,,295.96980860000076,None,,,,,,,,,,,,297.0668091999996,None,k,1,0.3863708000008046,297.0668091999996,None,,,,,17,001,2022_Oct_19_1527,Version4,2021.2.0,241.42518113253604,
blue_congruent,1,a,left,blue,-0.6,,,,,,,,,5,1,31,0,,,,,,,297.4673227000003,None,,,,,,,,,,,,298.5058499000006,None,a,1,0.4275406999986444,298.5058499000006,None,,,,,17,001,2022_Oct_19_1527,Version4,2021.2.0,241.42518113253604,
red_incongruent,0,k,left,red,-0.6,,,,,,,,,5,2,32,3,,,,,,,298.94811429999936,None,,,,,,,,,,,,300.08274639999945,None,k,1,0.5467996999996103,300.08274639999945,None,,,,,17,001,2022_Oct_19_1527,Version4,2021.2.0,241.42518113253604,
red_congruent,1,k,right,red,0.6,,,,,,,,,5,3,33,1,,,,,,,300.6416850000005,None,,,,,,,,,,,,301.7970841999995,None,k,1,0.4167137000004004,301.7970841999995,None,,,,,17,001,2022_Oct_19_1527,Version4,2021.2.0,241.42518113253604,
red_incongruent,0,k,left,red,-0.6,,,,,,,,,5,4,34,3,,,,,,,302.22664149999946,None,,,,,,,,,,,,303.33215109999946,None,k,1,0.5378887000006216,303.33215109999946,None,,,,,17,001,2022_Oct_19_1527,Version4,2021.2.0,241.42518113253604,
blue_incongruent,0,a,right,blue,0.6,,,,,,,,,5,5,35,2,,,,,,,303.88254140000026,None,,,,,,,,,,,,305.0588344000007,None,a,1,0.49169160000019474,305.0588344000007,None,,,,,17,001,2022_Oct_19_1527,Version4,2021.2.0,241.42518113253604,
red_incongruent,0,k,left,red,-0.6,,,,,,,,,6,0,36,3,,,,,,,305.5634824000008,None,,,,,,,,,,,,306.7272921999993,None,k,1,0.5434882999998081,306.7272921999993,None,,,,,17,001,2022_Oct_19_1527,Version4,2021.2.0,241.42518113253604,
red_neutral,0,k,middle,red,0,,,,,,,,,6,1,37,4,,,,,,,307.2862547000004,None,,,,,,,,,,,,308.4455519000003,None,k,1,0.577155799999673,308.4455519000003,None,,,,,17,001,2022_Oct_19_1527,Version4,2021.2.0,241.42518113253604,
blue_incongruent,0,a,right,blue,0.6,,,,,,,,,6,2,38,2,,,,,,,309.0338135000002,None,,,,,,,,,,,,310.08919590000005,None,a,1,0.41372039999987464,310.08919590000005,None,,,,,17,001,2022_Oct_19_1527,Version4,2021.2.0,241.42518113253604,
blue_incongruent,0,a,right,blue,0.6,,,,,,,,,6,3,39,2,,,,,,,310.51443199999994,None,,,,,,,,,,,,311.7410259999997,None,a,1,0.7461660000008123,311.7410259999997,None,,,,,17,001,2022_Oct_19_1527,Version4,2021.2.0,241.42518113253604,
blue_neutral,0,a,middle,blue,0,,,,,,,,,6,4,40,5,,,,,,,312.5001207000005,None,,,,,,,,,,,,313.5387279000006,None,a,1,0.644690699999046,313.5387279000006,None,,,,,17,001,2022_Oct_19_1527,Version4,2021.2.0,241.42518113253604,
blue_neutral,0,a,middle,blue,0,,,,,,,,,6,5,41,5,,,,,,,314.2018100000005,None,,,,,,,,,,,,315.2405080999997,None,a,1,0.35912549999920884,315.2405080999997,None,,,,,17,001,2022_Oct_19_1527,Version4,2021.2.0,241.42518113253604,
red_congruent,1,k,right,red,0.6,,,,,,,,,7,0,42,1,,,,,,,315.6156639000001,None,,,,,,,,,,,,316.64628190000076,None,k,1,0.48955759999989823,316.64628190000076,None,,,,,17,001,2022_Oct_19_1527,Version4,2021.2.0,241.42518113253604,
blue_neutral,0,a,middle,blue,0,,,,,,,,,7,1,43,5,,,,,,,317.15513660000033,None,,,,,,,,,,,,318.2061993999996,None,a,1,0.417836200000238,318.2061993999996,None,,,,,17,001,2022_Oct_19_1527,Version4,2021.2.0,241.42518113253604,
blue_incongruent,0,a,right,blue,0.6,,,,,,,,,7,2,44,2,,,,,,,318.6397244,None,,,,,,,,,,,,319.6868797999996,None,a,1,0.5854164999982459,319.6868797999996,None,,,,,17,001,2022_Oct_19_1527,Version4,2021.2.0,241.42518113253604,
blue_congruent,1,a,left,blue,-0.6,,,,,,,,,7,3,45,0,,,,,,,320.2872657000007,None,,,,,,,,,,,,321.3759135,None,a,1,0.368832599999223,321.3759135,None,,,,,17,001,2022_Oct_19_1527,Version4,2021.2.0,241.42518113253604,
blue_neutral,0,a,middle,blue,0,,,,,,,,,7,4,46,5,,,,,,,321.7598995999997,None,,,,,,,,,,,,322.9778931000001,None,a,1,0.39100759999928414,322.9778931000001,None,,,,,17,001,2022_Oct_19_1527,Version4,2021.2.0,241.42518113253604,
red_incongruent,0,k,left,red,-0.6,,,,,,,,,7,5,47,3,,,,,,,323.38238289999936,None,,,,,,,,,,,,324.4959209999997,None,k,1,0.408989700001257,324.4959209999997,None,,,,,17,001,2022_Oct_19_1527,Version4,2021.2.0,241.42518113253604,
,,,,,,,,,,,,,,,,,,,,,,,,,,,,,,,,,,,,,,,,,,,,space,2.3871076000014,,,17,001,2022_Oct_19_1527,Version4,2021.2.0,241.42518113253604,
blue_neutral,0,a,middle,blue,0,,,,,,,,,,,,,0,0,0,5,,,327.3450711000005,None,,,,,,,,,,,,328.4208887999994,None,a,1,0.46853790000022855,328.4208887999994,None,,,,,17,001,2022_Oct_19_1527,Version4,2021.2.0,241.42518113253604,
red_incongruent,0,k,left,red,-0.6,,,,,,,,,,,,,0,1,1,3,,,328.9047627,None,,,,,,,,,,,,329.9433539999991,None,k,1,0.44228519999887794,329.9433539999991,None,,,,,17,001,2022_Oct_19_1527,Version4,2021.2.0,241.42518113253604,
blue_neutral,0,a,middle,blue,0,,,,,,,,,,,,,0,2,2,5,,,330.40249419999964,None,,,,,,,,,,,,331.49916200000007,None,a,1,0.43867109999882814,331.49916200000007,None,,,,,17,001,2022_Oct_19_1527,Version4,2021.2.0,241.42518113253604,
blue_incongruent,0,a,right,blue,0.6,,,,,,,,,,,,,0,3,3,2,,,331.95414130000063,None,,,,,,,,,,,,333.0550628000001,None,a,1,0.450980100000379,333.0550628000001,None,,,,,17,001,2022_Oct_19_1527,Version4,2021.2.0,241.42518113253604,
red_congruent,1,k,right,red,0.6,,,,,,,,,,,,,0,4,4,1,,,333.51806699999906,None,,,,,,,,,,,,334.7234109000001,None,k,1,0.3832345999999234,334.7234109000001,None,,,,,17,001,2022_Oct_19_1527,Version4,2021.2.0,241.42518113253604,
red_neutral,0,k,middle,red,0,,,,,,,,,,,,,0,5,5,4,,,335.1241621999998,None,,,,,,,,,,,,336.24631210000007,None,k,1,0.40418569999928877,336.24631210000007,None,,,,,17,001,2022_Oct_19_1527,Version4,2021.2.0,241.42518113253604,
blue_congruent,1,a,left,blue,-0.6,,,,,,,,,,,,,1,0,6,0,,,336.6588971000001,None,,,,,,,,,,,,337.70610569999917,None,a,1,0.4005762999986473,337.70610569999917,None,,,,,17,001,2022_Oct_19_1527,Version4,2021.2.0,241.42518113253604,
blue_congruent,1,a,left,blue,-0.6,,,,,,,,,,,,,1,1,7,0,,,338.12321750000046,None,,,,,,,,,,,,339.24115019999954,None,a,1,0.44175130000076024,339.24115019999954,None,,,,,17,001,2022_Oct_19_1527,Version4,2021.2.0,241.42518113253604,
blue_congruent,1,a,left,blue,-0.6,,,,,,,,,,,,,1,2,8,0,,,339.69511799999964,None,,,,,,,,,,,,340.7297944999991,None,a,1,0.3532818000003317,340.7297944999991,None,,,,,17,001,2022_Oct_19_1527,Version4,2021.2.0,241.42518113253604,
red_incongruent,0,k,left,red,-0.6,,,,,,,,,,,,,1,3,9,3,,,341.0971038000007,None,,,,,,,,,,,,342.1479612000003,None,k,1,0.5273629999992409,342.1479612000003,None,,,,,17,001,2022_Oct_19_1527,Version4,2021.2.0,241.42518113253604,
red_incongruent,0,k,left,red,-0.6,,,,,,,,,,,,,1,4,10,3,,,342.6904534999994,None,,,,,,,,,,,,343.7580471000001,None,k,1,1.09353689999989,343.7580471000001,None,,,,,17,001,2022_Oct_19_1527,Version4,2021.2.0,241.42518113253604,
blue_congruent,1,a,left,blue,-0.6,,,,,,,,,,,,,1,5,11,0,,,344.86361319999924,None,,,,,,,,,,,,345.99787599999945,None,a,1,0.4699731000000611,345.99787599999945,None,,,,,17,001,2022_Oct_19_1527,Version4,2021.2.0,241.42518113253604,
red_congruent,1,k,right,red,0.6,,,,,,,,,,,,,2,0,12,1,,,346.4817507000007,None,,,,,,,,,,,,347.55786239999907,None,k,1,0.3661714000008942,347.55786239999907,None,,,,,17,001,2022_Oct_19_1527,Version4,2021.2.0,241.42518113253604,
red_neutral,0,k,middle,red,0,,,,,,,,,,,,,2,1,13,4,,,347.93340870000065,None,,,,,,,,,,,,348.9843932999993,None,k,1,0.35582200000135344,348.9843932999993,None,,,,,17,001,2022_Oct_19_1527,Version4,2021.2.0,241.42518113253604,
blue_incongruent,0,a,right,blue,0.6,,,,,,,,,,,,,2,2,14,2,,,349.3517475999997,None,,,,,,,,,,,,350.4110548000008,None,a,1,0.38538619999962975,350.4110548000008,None,,,,,17,001,2022_Oct_19_1527,Version4,2021.2.0,241.42518113253604,
red_neutral,0,k,middle,red,0,,,,,,,,,,,,,2,3,15,4,,,350.81175970000004,None,,,,,,,,,,,,352.000095899999,None,k,1,0.37252649999936693,352.000095899999,None,,,,,17,001,2022_Oct_19_1527,Version4,2021.2.0,241.42518113253604,
blue_incongruent,0,a,right,blue,0.6,,,,,,,,,,,,,2,4,16,2,,,352.3838431000004,None,,,,,,,,,,,,353.5351439999995,None,a,1,0.42971770000076503,353.5351439999995,None,,,,,17,001,2022_Oct_19_1527,Version4,2021.2.0,241.42518113253604,
blue_incongruent,0,a,right,blue,0.6,,,,,,,,,,,,,2,5,17,2,,,353.981737099999,None,,,,,,,,,,,,355.0535555000006,None,a,1,0.5836870000002818,355.0535555000006,None,,,,,17,001,2022_Oct_19_1527,Version4,2021.2.0,241.42518113253604,
red_congruent,1,k,right,red,0.6,,,,,,,,,,,,,3,0,18,1,,,355.65419850000035,None,,,,,,,,,,,,356.8385694000008,None,k,1,0.43072339999889664,356.8385694000008,None,,,,,17,001,2022_Oct_19_1527,Version4,2021.2.0,241.42518113253604,
red_congruent,1,k,right,red,0.6,,,,,,,,,,,,,3,1,19,1,,,357.289308899999,None,,,,,,,,,,,,358.34015829999953,None,k,1,0.33737750000000233,358.34015829999953,None,,,,,17,001,2022_Oct_19_1527,Version4,2021.2.0,241.42518113253604,
blue_incongruent,0,a,right,blue,0.6,,,,,,,,,,,,,3,2,20,2,,,358.6947306999991,None,,,,,,,,,,,,359.82514319999973,None,a,1,0.44456349999927625,359.82514319999973,None,,,,,17,001,2022_Oct_19_1527,Version4,2021.2.0,241.42518113253604,
red_incongruent,0,k,left,red,-0.6,,,,,,,,,,,,,3,3,21,3,,,360.2838809999994,None,,,,,,,,,,,,361.37255229999937,None,k,1,0.6813970000002882,361.37255229999937,None,,,,,17,001,2022_Oct_19_1527,Version4,2021.2.0,241.42518113253604,
red_congruent,1,k,right,red,0.6,,,,,,,,,,,,,3,4,22,1,,,362.06521749999956,None,,,,,,,,,,,,363.14109439999993,None,k,1,0.4654245000001538,363.14109439999993,None,,,,,17,001,2022_Oct_19_1527,Version4,2021.2.0,241.42518113253604,
blue_neutral,0,a,middle,blue,0,,,,,,,,,,,,,3,5,23,5,,,363.62087059999976,None,,,,,,,,,,,,364.7219277000004,None,a,1,0.38841299999876355,364.7219277000004,None,,,,,17,001,2022_Oct_19_1527,Version4,2021.2.0,241.42518113253604,
red_neutral,0,k,middle,red,0,,,,,,,,,,,,,4,0,24,4,,,365.1226131000003,None,,,,,,,,,,,,366.2235282999991,None,k,1,0.3590529000011884,366.2235282999991,None,,,,,17,001,2022_Oct_19_1527,Version4,2021.2.0,241.42518113253604,
blue_incongruent,0,a,right,blue,0.6,,,,,,,,,,,,,4,1,25,2,,,366.5989387999998,None,,,,,,,,,,,,367.7046902000002,None,a,1,0.4701087000012194,367.7046902000002,None,,,,,17,001,2022_Oct_19_1527,Version4,2021.2.0,241.42518113253604,
blue_congruent,1,a,left,blue,-0.6,,,,,,,,,,,,,4,2,26,0,,,368.1839674999992,None,,,,,,,,,,,,369.3184817000001,None,a,1,0.42482360000030894,369.3184817000001,None,,,,,17,001,2022_Oct_19_1527,Version4,2021.2.0,241.42518113253604,
blue_neutral,0,a,middle,blue,0,,,,,,,,,,,,,4,3,27,5,,,369.7609004999995,None,,,,,,,,,,,,370.7783342999992,None,a,1,0.40483969999877445,370.7783342999992,None,,,,,17,001,2022_Oct_19_1527,Version4,2021.2.0,241.42518113253604,
red_neutral,0,k,middle,red,0,,,,,,,,,,,,,4,4,28,4,,,371.19587390000015,None,,,,,,,,,,,,372.25491189999957,None,k,1,0.44077679999827524,372.25491189999957,None,,,,,17,001,2022_Oct_19_1527,Version4,2021.2.0,241.42518113253604,
blue_neutral,0,a,middle,blue,0,,,,,,,,,,,,,4,5,29,5,,,372.7137466999993,None,,,,,,,,,,,,373.78186370000003,None,a,1,0.3300263000000996,373.78186370000003,None,,,,,17,001,2022_Oct_19_1527,Version4,2021.2.0,241.42518113253604,
blue_incongruent,0,a,right,blue,0.6,,,,,,,,,,,,,5,0,30,2,,,374.12789429999975,None,,,,,,,,,,,,375.2459849000006,None,a,1,0.6500116000006528,375.2459849000006,None,,,,,17,001,2022_Oct_19_1527,Version4,2021.2.0,241.42518113253604,
red_neutral,0,k,middle,red,0,,,,,,,,,,,,,5,1,31,4,,,375.9131314999995,None,,,,,,,,,,,,376.93511489999946,None,k,1,0.5129281999998057,376.93511489999946,None,,,,,17,001,2022_Oct_19_1527,Version4,2021.2.0,241.42518113253604,
blue_incongruent,0,a,right,blue,0.6,,,,,,,,,,,,,5,2,32,2,,,377.4607156999991,None,,,,,,,,,,,,378.7036704000002,None,a,1,0.44063359999927343,378.7036704000002,None,,,,,17,001,2022_Oct_19_1527,Version4,2021.2.0,241.42518113253604,
red_congruent,1,k,right,red,0.6,,,,,,,,,,,,,5,3,33,1,,,379.16245700000036,None,,,,,,,,,,,,380.1760654999998,None,k,1,0.3846792000003916,380.1760654999998,None,,,,,17,001,2022_Oct_19_1527,Version4,2021.2.0,241.42518113253604,
blue_neutral,0,a,middle,blue,0,,,,,,,,,,,,,5,4,34,5,,,380.5765044,None,,,,,,,,,,,,381.76107690000026,None,a,1,0.5837819000007585,381.76107690000026,None,,,,,17,001,2022_Oct_19_1527,Version4,2021.2.0,241.42518113253604,
red_neutral,0,k,middle,red,0,,,,,,,,,,,,,5,5,35,4,,,382.3616559000002,None,,,,,,,,,,,,383.42538330000025,None,k,1,0.4395230000009178,383.42538330000025,None,,,,,17,001,2022_Oct_19_1527,Version4,2021.2.0,241.42518113253604,
blue_congruent,1,a,left,blue,-0.6,,,,,,,,,,,,,6,0,36,0,,,383.87594910000007,None,,,,,,,,,,,,385.02289050000036,None,a,1,0.49025799999981245,385.02289050000036,None,,,,,17,001,2022_Oct_19_1527,Version4,2021.2.0,241.42518113253604,
red_incongruent,0,k,left,red,-0.6,,,,,,,,,,,,,6,1,37,3,,,385.53165330000047,None,,,,,,,,,,,,386.6245777000004,None,k,1,0.4411784000003536,386.6245777000004,None,,,,,17,001,2022_Oct_19_1527,Version4,2021.2.0,241.42518113253604,
blue_neutral,0,a,middle,blue,0,,,,,,,,,,,,,6,2,38,5,,,387.08319459999984,None,,,,,,,,,,,,388.1220641,None,a,1,0.5275348999984999,388.1220641,None,,,,,17,001,2022_Oct_19_1527,Version4,2021.2.0,241.42518113253604,
red_incongruent,0,k,left,red,-0.6,,,,,,,,,,,,,6,3,39,3,,,388.66421099999934,None,,,,,,,,,,,,389.79885749999994,None,k,1,0.483231700000033,389.79885749999994,None,,,,,17,001,2022_Oct_19_1527,Version4,2021.2.0,241.42518113253604,
red_neutral,0,k,middle,red,0,,,,,,,,,,,,,6,4,40,4,,,390.2990876999993,None,,,,,,,,,,,,391.33373159999974,None,k,1,0.4362963999992644,391.33373159999974,None,,,,,17,001,2022_Oct_19_1527,Version4,2021.2.0,241.42518113253604,
red_congruent,1,k,right,red,0.6,,,,,,,,,,,,,6,5,41,1,,,391.7799792000005,None,,,,,,,,,,,,392.97296370000004,None,k,1,0.42132350000065344,392.97296370000004,None,,,,,17,001,2022_Oct_19_1527,Version4,2021.2.0,241.42518113253604,
red_incongruent,0,k,left,red,-0.6,,,,,,,,,,,,,7,0,42,3,,,393.40662539999903,None,,,,,,,,,,,,394.45372510000016,None,k,1,0.412695299999541,394.45372510000016,None,,,,,17,001,2022_Oct_19_1527,Version4,2021.2.0,241.42518113253604,
blue_congruent,1,a,left,blue,-0.6,,,,,,,,,,,,,7,1,43,0,,,394.87915819999944,None,,,,,,,,,,,,395.9178921999992,None,a,1,0.42076129999986733,395.9178921999992,None,,,,,17,001,2022_Oct_19_1527,Version4,2021.2.0,241.42518113253604,
red_incongruent,0,k,left,red,-0.6,,,,,,,,,,,,,7,2,44,3,,,396.3516462000007,None,,,,,,,,,,,,397.46920709999904,None,k,1,0.6616890000004787,397.46920709999904,None,,,,,17,001,2022_Oct_19_1527,Version4,2021.2.0,241.42518113253604,
blue_neutral,0,a,middle,blue,0,,,,,,,,,,,,,7,3,45,5,,,398.14510829999927,None,,,,,,,,,,,,399.3088487999994,None,a,1,0.3822412000008626,399.3088487999994,None,,,,,17,001,2022_Oct_19_1527,Version4,2021.2.0,241.42518113253604,
red_congruent,1,k,right,red,0.6,,,,,,,,,,,,,7,4,46,1,,,399.70926899999904,None,,,,,,,,,,,,400.7562410999999,None,k,1,0.34303109999927983,400.7562410999999,None,,,,,17,001,2022_Oct_19_1527,Version4,2021.2.0,241.42518113253604,
blue_congruent,1,a,left,blue,-0.6,,,,,,,,,,,,,7,5,47,0,,,401.11503099999936,None,,,,,,,,,,,,402.1826025999999,None,a,1,0.3488629999992554,402.1826025999999,None,,,,,17,001,2022_Oct_19_1527,Version4,2021.2.0,241.42518113253604,
,,,,,,,,,,,,,,,,,,,,,,,,,,,,,,,,,,,,,,,,,,,,space,2.518107500000042,,,17,001,2022_Oct_19_1527,Version4,2021.2.0,241.42518113253604,
,,,,,,,,,,,,,,,,,,,,,,,,,,,,,,,,,,,,,,,,,,,,,,space,12.855350600000747,17,001,2022_Oct_19_1527,Version4,2021.2.0,241.42518113253604,
