images,congruentcy,corrAns,box_pos,box_color,box_x,pract.thisRepN,pract.thisTrialN,pract.thisN,pract.thisIndex,trials.thisRepN,trials.thisTrialN,trials.thisN,trials.thisIndex,trials_2.thisRepN,trials_2.thisTrialN,trials_2.thisN,trials_2.thisIndex,trials_3.thisRepN,trials_3.thisTrialN,trials_3.thisN,trials_3.thisIndex,key_resp_instr.keys,key_resp_instr.rt,FixCross.started,FixCross.stopped,Box_p.started,Box_p.stopped,key_resp_P.keys,key_resp_P.corr,key_resp_P.rt,key_resp_P.started,key_resp_P.stopped,text_3.started,text_3.stopped,key_resp_2.keys,key_resp_2.rt,Box.started,Box.stopped,key_resp.keys,key_resp.corr,key_resp.rt,key_resp.started,key_resp.stopped,key_resp_3.keys,key_resp_3.rt,key_resp_4.keys,key_resp_4.rt,participant,session,date,expName,psychopyVersion,frameRate,
,,,,,,,,,,,,,,,,,,,,,,space,24.029243599999973,,,,,,,,,,,,,,,,,,,,,,,,,18,001,2022_Oct_19_1554,Version4,2021.2.0,240.37190340402893,
red_incongruent,0,k,left,red,-0.6,0,0,0,3,,,,,,,,,,,,,,,35.02624180000021,None,36.264703999999256,None,k,1,1.2334396999995079,36.264703999999256,None,,,,,,,,,,,,,,,,18,001,2022_Oct_19_1554,Version4,2021.2.0,240.37190340402893,
red_neutral,0,k,middle,red,0,0,1,1,4,,,,,,,,,,,,,,,38.517109500000515,None,39.63912390000041,None,k,1,1.7715917999994417,39.63912390000041,None,,,,,,,,,,,,,,,,18,001,2022_Oct_19_1554,Version4,2021.2.0,240.37190340402893,
red_neutral,0,k,middle,red,0,0,2,2,4,,,,,,,,,,,,,,,42.425578999998834,None,43.47663189999912,None,k,1,8.647541599999386,43.47663189999912,None,,,,,,,,,,,,,,,,18,001,2022_Oct_19_1554,Version4,2021.2.0,240.37190340402893,
red_incongruent,0,k,left,red,-0.6,0,3,3,3,,,,,,,,,,,,,,,53.14530509999895,None,54.31305690000045,None,k,1,0.7797393999990163,54.31305690000045,None,,,,,,,,,,,,,,,,18,001,2022_Oct_19_1554,Version4,2021.2.0,240.37190340402893,
red_congruent,1,k,right,red,0.6,0,4,4,1,,,,,,,,,,,,,,,56.110823200000596,None,57.18694730000061,None,k,1,0.5780185000003257,57.18694730000061,None,,,,,,,,,,,,,,,,18,001,2022_Oct_19_1554,Version4,2021.2.0,240.37190340402893,
red_congruent,1,k,right,red,0.6,0,5,5,1,,,,,,,,,,,,,,,58.78449619999992,None,59.86501440000029,None,k,1,0.4283286000008957,59.86501440000029,None,,,,,,,,,,,,,,,,18,001,2022_Oct_19_1554,Version4,2021.2.0,240.37190340402893,
blue_neutral,0,a,middle,blue,0,1,0,6,5,,,,,,,,,,,,,,,61.30799289999959,None,62.38425929999903,None,a,1,0.4536656000000221,62.38425929999903,None,,,,,,,,,,,,,,,,18,001,2022_Oct_19_1554,Version4,2021.2.0,240.37190340402893,
blue_neutral,0,a,middle,blue,0,1,1,7,5,,,,,,,,,,,,,,,63.85654280000017,None,64.91181309999956,None,a,1,0.35018069999932777,64.91181309999956,None,,,,,,,,,,,,,,,,18,001,2022_Oct_19_1554,Version4,2021.2.0,240.37190340402893,
blue_neutral,0,a,middle,blue,0,1,2,8,5,,,,,,,,,,,,,,,66.28412089999983,None,67.36024960000032,None,a,1,0.43007910000051197,67.36024960000032,None,,,,,,,,,,,,,,,,18,001,2022_Oct_19_1554,Version4,2021.2.0,240.37190340402893,
red_congruent,1,k,right,red,0.6,1,3,9,1,,,,,,,,,,,,,,,68.80776519999927,None,69.8672917999993,None,k,1,0.4595517999987351,69.8672917999993,None,,,,,,,,,,,,,,,,18,001,2022_Oct_19_1554,Version4,2021.2.0,240.37190340402893,
red_incongruent,0,k,left,red,-0.6,1,4,10,3,,,,,,,,,,,,,,,71.3479843999994,None,72.49917049999931,None,k,1,0.5002326000012545,72.49917049999931,None,,,,,,,,,,,,,,,,18,001,2022_Oct_19_1554,Version4,2021.2.0,240.37190340402893,
blue_incongruent,0,a,right,blue,0.6,1,5,11,2,,,,,,,,,,,,,,,74.01337339999918,None,75.1686907000003,None,a,1,0.43085489999975835,75.1686907000003,None,,,,,,,,,,,,,,,,18,001,2022_Oct_19_1554,Version4,2021.2.0,240.37190340402893,
red_neutral,0,k,middle,red,0,2,0,12,4,,,,,,,,,,,,,,,76.6160689999997,None,77.73397879999902,None,k,1,0.7218094999989262,77.73397879999902,None,,,,,,,,,,,,,,,,18,001,2022_Oct_19_1554,Version4,2021.2.0,240.37190340402893,
blue_congruent,1,a,left,blue,-0.6,2,1,13,0,,,,,,,,,,,,,,,79.47319210000023,None,80.57859590000044,None,a,1,0.3095432999998593,80.57859590000044,None,,,,,,,,,,,,,,,,18,001,2022_Oct_19_1554,Version4,2021.2.0,240.37190340402893,
blue_congruent,1,a,left,blue,-0.6,2,2,14,0,,,,,,,,,,,,,,,81.90508910000062,None,82.94778740000038,None,a,1,0.3571157000005769,82.94778740000038,None,,,,,,,,,,,,,,,,18,001,2022_Oct_19_1554,Version4,2021.2.0,240.37190340402893,
red_congruent,1,k,right,red,0.6,2,3,15,1,,,,,,,,,,,,,,,84.32840109999961,None,85.49227210000026,None,k,1,0.35669550000056915,85.49227210000026,None,,,,,,,,,,,,,,,,18,001,2022_Oct_19_1554,Version4,2021.2.0,240.37190340402893,
blue_incongruent,0,a,right,blue,0.6,2,4,16,2,,,,,,,,,,,,,,,86.86445249999997,None,87.9492754999992,None,a,1,0.46005609999883745,87.9492754999992,None,,,,,,,,,,,,,,,,18,001,2022_Oct_19_1554,Version4,2021.2.0,240.37190340402893,
red_incongruent,0,k,left,red,-0.6,2,5,17,3,,,,,,,,,,,,,,,89.42967979999958,None,90.52669289999903,None,k,1,0.43484580000040296,90.52669289999903,None,,,,,,,,,,,,,,,,18,001,2022_Oct_19_1554,Version4,2021.2.0,240.37190340402893,
blue_congruent,1,a,left,blue,-0.6,3,0,18,0,,,,,,,,,,,,,,,91.97827730000063,None,93.06684580000001,None,a,1,0.36700240000027406,93.06684580000001,None,,,,,,,,,,,,,,,,18,001,2022_Oct_19_1554,Version4,2021.2.0,240.37190340402893,
blue_incongruent,0,a,right,blue,0.6,3,1,19,2,,,,,,,,,,,,,,,94.4474928999989,None,95.69882449999932,None,a,1,0.5516781999995146,95.69882449999932,None,,,,,,,,,,,,,,,,18,001,2022_Oct_19_1554,Version4,2021.2.0,240.37190340402893,
blue_neutral,0,a,middle,blue,0,3,2,20,5,,,,,,,,,,,,,,,97.27132949999941,None,98.37675809999928,None,a,1,0.4258462999987387,98.37675809999928,None,,,,,,,,,,,,,,,,18,001,2022_Oct_19_1554,Version4,2021.2.0,240.37190340402893,
red_neutral,0,k,middle,red,0,3,3,21,4,,,,,,,,,,,,,,,99.81985949999944,None,101.04199659999904,None,k,1,0.3690759999990405,101.04199659999904,None,,,,,,,,,,,,,,,,18,001,2022_Oct_19_1554,Version4,2021.2.0,240.37190340402893,
blue_incongruent,0,a,right,blue,0.6,3,4,22,2,,,,,,,,,,,,,,,102.4310532999989,None,103.53637189999972,None,a,1,0.4909602999996423,103.53637189999972,None,,,,,,,,,,,,,,,,18,001,2022_Oct_19_1554,Version4,2021.2.0,240.37190340402893,
blue_congruent,1,a,left,blue,-0.6,3,5,23,0,,,,,,,,,,,,,,,105.04633069999909,None,106.1265543999998,None,a,1,0.4291083999996772,106.1265543999998,None,,,,,,,,,,,,,,,,18,001,2022_Oct_19_1554,Version4,2021.2.0,240.37190340402893,
,,,,,,,,,,,,,,,,,,,,,,,,,,,,,,,,,107.57804679999936,None,space,6.345077100000708,,,,,,,,,,,,18,001,2022_Oct_19_1554,Version4,2021.2.0,240.37190340402893,
red_neutral,0,k,middle,red,0,,,,,0,0,0,4,,,,,,,,,,,115.93269510000027,None,,,,,,,,,,,,117.00465880000047,None,k,1,1.7206771000001027,117.00465880000047,None,,,,,18,001,2022_Oct_19_1554,Version4,2021.2.0,240.37190340402893,
red_neutral,0,k,middle,red,0,,,,,0,1,1,4,,,,,,,,,,,118.74011249999967,None,,,,,,,,,,,,119.82430840000052,None,k,1,0.5092494000000443,119.82430840000052,None,,,,,18,001,2022_Oct_19_1554,Version4,2021.2.0,240.37190340402893,
blue_neutral,0,a,middle,blue,0,,,,,0,2,2,5,,,,,,,,,,,120.35005649999948,None,,,,,,,,,,,,121.43448659999922,None,a,1,0.3712865999987116,121.43448659999922,None,,,,,18,001,2022_Oct_19_1554,Version4,2021.2.0,240.37190340402893,
blue_congruent,1,a,left,blue,-0.6,,,,,0,3,3,0,,,,,,,,,,,121.81822749999992,None,,,,,,,,,,,,122.92354849999901,None,a,1,0.4264457000008406,122.92354849999901,None,,,,,18,001,2022_Oct_19_1554,Version4,2021.2.0,240.37190340402893,
red_incongruent,0,k,left,red,-0.6,,,,,0,4,4,3,,,,,,,,,,,123.36154589999933,None,,,,,,,,,,,,124.38344379999944,None,k,1,0.4227334000006522,124.38344379999944,None,,,,,18,001,2022_Oct_19_1554,Version4,2021.2.0,240.37190340402893,
blue_incongruent,0,a,right,blue,0.6,,,,,0,5,5,2,,,,,,,,,,,124.82198269999935,None,,,,,,,,,,,,125.92673660000037,None,a,1,0.38370469999972556,125.92673660000037,None,,,,,18,001,2022_Oct_19_1554,Version4,2021.2.0,240.37190340402893,
red_incongruent,0,k,left,red,-0.6,,,,,1,0,6,3,,,,,,,,,,,126.32725199999913,None,,,,,,,,,,,,127.48674430000028,None,k,1,0.4241478999992978,127.48674430000028,None,,,,,18,001,2022_Oct_19_1554,Version4,2021.2.0,240.37190340402893,
red_congruent,1,k,right,red,0.6,,,,,1,1,7,1,,,,,,,,,,,127.92472799999996,None,,,,,,,,,,,,129.08432530000027,None,k,1,0.5707582999984879,129.08432530000027,None,,,,,18,001,2022_Oct_19_1554,Version4,2021.2.0,240.37190340402893,
red_congruent,1,k,right,red,0.6,,,,,1,2,8,1,,,,,,,,,,,129.67243269999926,None,,,,,,,,,,,,130.80282439999974,None,k,1,0.37220799999886367,130.80282439999974,None,,,,,18,001,2022_Oct_19_1554,Version4,2021.2.0,240.37190340402893,
blue_neutral,0,a,middle,blue,0,,,,,1,3,9,5,,,,,,,,,,,131.18651879999925,None,,,,,,,,,,,,132.44616510000014,None,a,1,0.30512289999933273,132.44616510000014,None,,,,,18,001,2022_Oct_19_1554,Version4,2021.2.0,240.37190340402893,
red_neutral,0,k,middle,red,0,,,,,1,4,10,4,,,,,,,,,,,132.76305030000003,None,,,,,,,,,,,,133.8018530999998,None,k,1,0.3976201999994373,133.8018530999998,None,,,,,18,001,2022_Oct_19_1554,Version4,2021.2.0,240.37190340402893,
blue_congruent,1,a,left,blue,-0.6,,,,,1,5,11,0,,,,,,,,,,,134.2104650000001,None,,,,,,,,,,,,135.32423740000013,None,a,1,0.3154240999992908,135.32423740000013,None,,,,,18,001,2022_Oct_19_1554,Version4,2021.2.0,240.37190340402893,
red_incongruent,0,k,left,red,-0.6,,,,,2,0,12,3,,,,,,,,,,,135.65775089999988,None,,,,,,,,,,,,136.75481179999952,None,a,0,0.3250618999991275,136.75481179999952,None,,,,,18,001,2022_Oct_19_1554,Version4,2021.2.0,240.37190340402893,
red_congruent,1,k,right,red,0.6,,,,,2,1,13,1,,,,,,,,,,,137.09262769999987,None,,,,,,,,,,,,138.21480990000055,None,k,1,0.36928770000122313,138.21480990000055,None,,,,,18,001,2022_Oct_19_1554,Version4,2021.2.0,240.37190340402893,
blue_neutral,0,a,middle,blue,0,,,,,2,2,14,5,,,,,,,,,,,138.598405499999,None,,,,,,,,,,,,139.79554499999904,None,a,1,0.38875000000007276,139.79554499999904,None,,,,,18,001,2022_Oct_19_1554,Version4,2021.2.0,240.37190340402893,
red_neutral,0,k,middle,red,0,,,,,2,3,15,4,,,,,,,,,,,140.20014579999952,None,,,,,,,,,,,,141.21369869999944,None,k,1,0.40280170000005455,141.21369869999944,None,,,,,18,001,2022_Oct_19_1554,Version4,2021.2.0,240.37190340402893,
red_congruent,1,k,right,red,0.6,,,,,2,4,16,1,,,,,,,,,,,141.6308016999992,None,,,,,,,,,,,,142.75278509999953,None,k,1,0.3839239000008092,142.75278509999953,None,,,,,18,001,2022_Oct_19_1554,Version4,2021.2.0,240.37190340402893,
blue_congruent,1,a,left,blue,-0.6,,,,,2,5,17,0,,,,,,,,,,,143.1533899999995,None,,,,,,,,,,,,144.3296422000003,None,a,1,0.35127949999878183,144.3296422000003,None,,,,,18,001,2022_Oct_19_1554,Version4,2021.2.0,240.37190340402893,
red_incongruent,0,k,left,red,-0.6,,,,,3,0,18,3,,,,,,,,,,,144.69253059999937,None,,,,,,,,,,,,145.79795569999987,None,k,1,0.5873468999998295,145.79795569999987,None,,,,,18,001,2022_Oct_19_1554,Version4,2021.2.0,240.37190340402893,
blue_congruent,1,a,left,blue,-0.6,,,,,3,1,19,0,,,,,,,,,,,146.3984829000001,None,,,,,,,,,,,,147.46630129999903,None,a,1,0.3750262000012299,147.46630129999903,None,,,,,18,001,2022_Oct_19_1554,Version4,2021.2.0,240.37190340402893,
red_neutral,0,k,middle,red,0,,,,,3,2,20,4,,,,,,,,,,,147.85422189999917,None,,,,,,,,,,,,148.9220124000003,None,k,1,0.35168630000043777,148.9220124000003,None,,,,,18,001,2022_Oct_19_1554,Version4,2021.2.0,240.37190340402893,
red_congruent,1,k,right,red,0.6,,,,,3,3,21,1,,,,,,,,,,,149.289093899999,None,,,,,,,,,,,,150.3276652000004,None,k,1,0.3541678999990836,150.3276652000004,None,,,,,18,001,2022_Oct_19_1554,Version4,2021.2.0,240.37190340402893,
red_congruent,1,k,right,red,0.6,,,,,3,4,22,1,,,,,,,,,,,150.69473019999896,None,,,,,,,,,,,,151.83350959999916,None,k,1,0.3285797000007733,151.83350959999916,None,,,,,18,001,2022_Oct_19_1554,Version4,2021.2.0,240.37190340402893,
red_incongruent,0,k,left,red,-0.6,,,,,3,5,23,3,,,,,,,,,,,152.17963670000063,None,,,,,,,,,,,,153.25161590000062,None,k,1,0.5585579000016878,153.25161590000062,None,,,,,18,001,2022_Oct_19_1554,Version4,2021.2.0,240.37190340402893,
red_incongruent,0,k,left,red,-0.6,,,,,4,0,24,3,,,,,,,,,,,153.8272278000004,None,,,,,,,,,,,,154.90323519999947,None,k,1,0.387275299999601,154.90323519999947,None,,,,,18,001,2022_Oct_19_1554,Version4,2021.2.0,240.37190340402893,
red_incongruent,0,k,left,red,-0.6,,,,,4,1,25,3,,,,,,,,,,,155.3037693999995,None,,,,,,,,,,,,156.35926649999965,None,k,1,0.44331529999908525,156.35926649999965,None,,,,,18,001,2022_Oct_19_1554,Version4,2021.2.0,240.37190340402893,
red_congruent,1,k,right,red,0.6,,,,,4,2,26,1,,,,,,,,,,,156.8177672999991,None,,,,,,,,,,,,157.89403990000028,None,k,1,0.35674330000074406,157.89403990000028,None,,,,,18,001,2022_Oct_19_1554,Version4,2021.2.0,240.37190340402893,
red_neutral,0,k,middle,red,0,,,,,4,3,27,4,,,,,,,,,,,158.26519899999948,None,,,,,,,,,,,,159.44971819999955,None,k,1,0.3373519999986456,159.44971819999955,None,,,,,18,001,2022_Oct_19_1554,Version4,2021.2.0,240.37190340402893,
blue_congruent,1,a,left,blue,-0.6,,,,,4,4,28,0,,,,,,,,,,,159.79599459999918,None,,,,,,,,,,,,160.8847122999996,None,a,1,0.36652649999996356,160.8847122999996,None,,,,,18,001,2022_Oct_19_1554,Version4,2021.2.0,240.37190340402893,
red_congruent,1,k,right,red,0.6,,,,,4,5,29,1,,,,,,,,,,,161.26427739999963,None,,,,,,,,,,,,162.3822397999993,None,k,1,0.35742600000048697,162.3822397999993,None,,,,,18,001,2022_Oct_19_1554,Version4,2021.2.0,240.37190340402893,
blue_incongruent,0,a,right,blue,0.6,,,,,5,0,30,2,,,,,,,,,,,162.75337339999896,None,,,,,,,,,,,,163.9295990999999,None,a,1,0.41001409999989846,163.9295990999999,None,,,,,18,001,2022_Oct_19_1554,Version4,2021.2.0,240.37190340402893,
blue_incongruent,0,a,right,blue,0.6,,,,,5,1,31,2,,,,,,,,,,,164.35097329999917,None,,,,,,,,,,,,165.38116199999968,None,a,1,0.43864100000064354,165.38116199999968,None,,,,,18,001,2022_Oct_19_1554,Version4,2021.2.0,240.37190340402893,
blue_incongruent,0,a,right,blue,0.6,,,,,5,2,32,2,,,,,,,,,,,165.82743839999966,None,,,,,,,,,,,,166.9119412,None,a,1,0.4040884999994887,166.9119412,None,,,,,18,001,2022_Oct_19_1554,Version4,2021.2.0,240.37190340402893,
red_neutral,0,k,middle,red,0,,,,,5,3,33,4,,,,,,,,,,,167.32485300000008,None,,,,,,,,,,,,168.4133937000006,None,k,1,0.5108670000008715,168.4133937000006,None,,,,,18,001,2022_Oct_19_1554,Version4,2021.2.0,240.37190340402893,
blue_neutral,0,a,middle,blue,0,,,,,5,4,34,5,,,,,,,,,,,168.93912259999888,None,,,,,,,,,,,,170.1152278999998,None,a,1,0.6337010999995982,170.1152278999998,None,,,,,18,001,2022_Oct_19_1554,Version4,2021.2.0,240.37190340402893,
blue_neutral,0,a,middle,blue,0,,,,,5,5,35,5,,,,,,,,,,,170.7618956999995,None,,,,,,,,,,,,171.9838710999993,None,a,1,0.42885869999918214,171.9838710999993,None,,,,,18,001,2022_Oct_19_1554,Version4,2021.2.0,240.37190340402893,
blue_congruent,1,a,left,blue,-0.6,,,,,6,0,36,0,,,,,,,,,,,172.42603489999965,None,,,,,,,,,,,,173.47711130000062,None,a,1,0.6399094000007608,173.47711130000062,None,,,,,18,001,2022_Oct_19_1554,Version4,2021.2.0,240.37190340402893,
blue_neutral,0,a,middle,blue,0,,,,,6,1,37,5,,,,,,,,,,,174.13211210000009,None,,,,,,,,,,,,175.22481030000017,None,a,1,0.3883181000001059,175.22481030000017,None,,,,,18,001,2022_Oct_19_1554,Version4,2021.2.0,240.37190340402893,
blue_incongruent,0,a,right,blue,0.6,,,,,6,2,38,2,,,,,,,,,,,175.62539379999907,None,,,,,,,,,,,,176.68052460000035,None,a,1,0.5008512000003975,176.68052460000035,None,,,,,18,001,2022_Oct_19_1554,Version4,2021.2.0,240.37190340402893,
blue_neutral,0,a,middle,blue,0,,,,,6,3,39,5,,,,,,,,,,,177.19375129999935,None,,,,,,,,,,,,178.2238398999998,None,a,1,0.46977309999965655,178.2238398999998,None,,,,,18,001,2022_Oct_19_1554,Version4,2021.2.0,240.37190340402893,
blue_congruent,1,a,left,blue,-0.6,,,,,6,4,40,0,,,,,,,,,,,178.70781440000064,None,,,,,,,,,,,,179.8880995999989,None,a,1,0.38171589999910793,179.8880995999989,None,,,,,18,001,2022_Oct_19_1554,Version4,2021.2.0,240.37190340402893,
red_neutral,0,k,middle,red,0,,,,,6,5,41,4,,,,,,,,,,,180.28867439999885,None,,,,,,,,,,,,181.45650129999922,None,k,1,0.3895046999987244,181.45650129999922,None,,,,,18,001,2022_Oct_19_1554,Version4,2021.2.0,240.37190340402893,
blue_incongruent,0,a,right,blue,0.6,,,,,7,0,42,2,,,,,,,,,,,181.85700949999955,None,,,,,,,,,,,,182.91214489999948,None,a,1,0.8541678999990836,182.91214489999948,None,,,,,18,001,2022_Oct_19_1554,Version4,2021.2.0,240.37190340402893,
blue_congruent,1,a,left,blue,-0.6,,,,,7,1,43,0,,,,,,,,,,,183.77973629999906,None,,,,,,,,,,,,184.84343179999996,None,a,1,0.4190625999999611,184.84343179999996,None,,,,,18,001,2022_Oct_19_1554,Version4,2021.2.0,240.37190340402893,
blue_incongruent,0,a,right,blue,0.6,,,,,7,2,44,2,,,,,,,,,,,185.27728559999923,None,,,,,,,,,,,,186.38256329999967,None,a,1,0.4321585999987292,186.38256329999967,None,,,,,18,001,2022_Oct_19_1554,Version4,2021.2.0,240.37190340402893,
blue_incongruent,0,a,right,blue,0.6,,,,,7,3,45,2,,,,,,,,,,,186.82856270000048,None,,,,,,,,,,,,187.9008343000005,None,a,1,0.386039000000892,187.9008343000005,None,,,,,18,001,2022_Oct_19_1554,Version4,2021.2.0,240.37190340402893,
red_incongruent,0,k,left,red,-0.6,,,,,7,4,46,3,,,,,,,,,,,188.30121299999882,None,,,,,,,,,,,,189.46910899999966,None,k,1,0.48202259999925445,189.46910899999966,None,,,,,18,001,2022_Oct_19_1554,Version4,2021.2.0,240.37190340402893,
blue_neutral,0,a,middle,blue,0,,,,,7,5,47,5,,,,,,,,,,,189.96560649999992,None,,,,,,,,,,,,191.13754329999938,None,a,1,0.9499150999999983,191.13754329999938,None,,,,,18,001,2022_Oct_19_1554,Version4,2021.2.0,240.37190340402893,
,,,,,,,,,,,,,,,,,,,,,,,,,,,,,,,,,,,,,,,,,,,,space,14.343704799999614,,,18,001,2022_Oct_19_1554,Version4,2021.2.0,240.37190340402893,
red_neutral,0,k,middle,red,0,,,,,,,,,0,0,0,4,,,,,,,206.47441470000012,None,,,,,,,,,,,,207.67594119999922,None,k,1,0.4856636000004073,207.67594119999922,None,,,,,18,001,2022_Oct_19_1554,Version4,2021.2.0,240.37190340402893,
red_neutral,0,k,middle,red,0,,,,,,,,,0,1,1,4,,,,,,,208.18084950000048,None,,,,,,,,,,,,209.25678229999903,None,k,1,0.3850564000003942,209.25678229999903,None,,,,,18,001,2022_Oct_19_1554,Version4,2021.2.0,240.37190340402893,
red_incongruent,0,k,left,red,-0.6,,,,,,,,,0,2,2,3,,,,,,,209.65314989999933,None,,,,,,,,,,,,210.72504579999986,None,k,1,0.5009967999994842,210.72504579999986,None,,,,,18,001,2022_Oct_19_1554,Version4,2021.2.0,240.37190340402893,
blue_neutral,0,a,middle,blue,0,,,,,,,,,0,3,3,5,,,,,,,211.2423333000006,None,,,,,,,,,,,,212.36009159999958,None,a,1,0.44219279999924765,212.36009159999958,None,,,,,18,001,2022_Oct_19_1554,Version4,2021.2.0,240.37190340402893,
blue_incongruent,0,a,right,blue,0.6,,,,,,,,,0,4,4,2,,,,,,,212.81472079999912,None,,,,,,,,,,,,213.83663680000063,None,a,1,0.4298668000010366,213.83663680000063,None,,,,,18,001,2022_Oct_19_1554,Version4,2021.2.0,240.37190340402893,
blue_neutral,0,a,middle,blue,0,,,,,,,,,0,5,5,5,,,,,,,214.28327799999897,None,,,,,,,,,,,,215.4008063000001,None,a,1,0.337858499999129,215.4008063000001,None,,,,,18,001,2022_Oct_19_1554,Version4,2021.2.0,240.37190340402893,
blue_congruent,1,a,left,blue,-0.6,,,,,,,,,1,0,6,0,,,,,,,215.7513084000002,None,,,,,,,,,,,,216.87750039999992,None,a,1,0.3733824999999342,216.87750039999992,None,,,,,18,001,2022_Oct_19_1554,Version4,2021.2.0,240.37190340402893,
red_congruent,1,k,right,red,0.6,,,,,,,,,1,1,7,1,,,,,,,217.26959999999963,None,,,,,,,,,,,,218.35826540000016,None,k,1,0.3329519999988406,218.35826540000016,None,,,,,18,001,2022_Oct_19_1554,Version4,2021.2.0,240.37190340402893,
blue_neutral,0,a,middle,blue,0,,,,,,,,,1,2,8,5,,,,,,,218.70863259999896,None,,,,,,,,,,,,219.7764986000002,None,a,1,0.38696319999871776,219.7764986000002,None,,,,,18,001,2022_Oct_19_1554,Version4,2021.2.0,240.37190340402893,
red_incongruent,0,k,left,red,-0.6,,,,,,,,,1,3,9,3,,,,,,,220.17263569999886,None,,,,,,,,,,,,221.27799969999978,None,k,1,0.4294943000004423,221.27799969999978,None,,,,,18,001,2022_Oct_19_1554,Version4,2021.2.0,240.37190340402893,
blue_incongruent,0,a,right,blue,0.6,,,,,,,,,1,4,10,2,,,,,,,221.72019220000038,None,,,,,,,,,,,,222.95915679999962,None,a,1,0.3568219999997382,222.95915679999962,None,,,,,18,001,2022_Oct_19_1554,Version4,2021.2.0,240.37190340402893,
blue_neutral,0,a,middle,blue,0,,,,,,,,,1,5,11,5,,,,,,,223.3300734000004,None,,,,,,,,,,,,224.38546909999968,None,a,1,0.3624394999987999,224.38546909999968,None,,,,,18,001,2022_Oct_19_1554,Version4,2021.2.0,240.37190340402893,
blue_incongruent,0,a,right,blue,0.6,,,,,,,,,2,0,12,2,,,,,,,224.76098730000012,None,,,,,,,,,,,,225.8161667000004,None,a,1,0.3719340999996348,225.8161667000004,None,,,,,18,001,2022_Oct_19_1554,Version4,2021.2.0,240.37190340402893,
blue_neutral,0,a,middle,blue,0,,,,,,,,,2,1,13,5,,,,,,,226.19989499999974,None,,,,,,,,,,,,227.2551851999997,None,a,1,0.30117150000114634,227.2551851999997,None,,,,,18,001,2022_Oct_19_1554,Version4,2021.2.0,240.37190340402893,
blue_incongruent,0,a,right,blue,0.6,,,,,,,,,2,2,14,2,,,,,,,227.5720455999999,None,,,,,,,,,,,,228.61496140000054,None,a,1,0.5497114000008878,228.61496140000054,None,,,,,18,001,2022_Oct_19_1554,Version4,2021.2.0,240.37190340402893,
blue_neutral,0,a,middle,blue,0,,,,,,,,,2,3,15,5,,,,,,,229.17816719999973,None,,,,,,,,,,,,230.22082509999927,None,a,1,0.4240465000002587,230.22082509999927,None,,,,,18,001,2022_Oct_19_1554,Version4,2021.2.0,240.37190340402893,
red_neutral,0,k,middle,red,0,,,,,,,,,2,4,16,4,,,,,,,230.65880169999946,None,,,,,,,,,,,,231.69738999999936,None,k,1,0.41168520000064746,231.69738999999936,None,,,,,18,001,2022_Oct_19_1554,Version4,2021.2.0,240.37190340402893,
red_neutral,0,k,middle,red,0,,,,,,,,,2,5,17,4,,,,,,,232.12302669999917,None,,,,,,,,,,,,233.2490744000006,None,k,1,0.30822900000021036,233.2490744000006,None,,,,,18,001,2022_Oct_19_1554,Version4,2021.2.0,240.37190340402893,
blue_congruent,1,a,left,blue,-0.6,,,,,,,,,3,0,18,0,,,,,,,233.57022039999902,None,,,,,,,,,,,,234.61292289999983,None,a,1,0.34437179999986256,234.61292289999983,None,,,,,18,001,2022_Oct_19_1554,Version4,2021.2.0,240.37190340402893,
red_incongruent,0,k,left,red,-0.6,,,,,,,,,3,1,19,3,,,,,,,234.97169819999908,None,,,,,,,,,,,,236.11877259999892,None,k,1,0.5990758999996615,236.11877259999892,None,,,,,18,001,2022_Oct_19_1554,Version4,2021.2.0,240.37190340402893,
blue_incongruent,0,a,right,blue,0.6,,,,,,,,,3,2,20,2,,,,,,,236.73191699999916,None,,,,,,,,,,,,237.9164325999991,None,a,1,0.393319300001167,237.9164325999991,None,,,,,18,001,2022_Oct_19_1554,Version4,2021.2.0,240.37190340402893,
blue_neutral,0,a,middle,blue,0,,,,,,,,,3,3,21,5,,,,,,,238.32529579999937,None,,,,,,,,,,,,239.4846854999996,None,a,1,0.42529579999973066,239.4846854999996,None,,,,,18,001,2022_Oct_19_1554,Version4,2021.2.0,240.37190340402893,
red_congruent,1,k,right,red,0.6,,,,,,,,,3,4,22,1,,,,,,,239.92280609999943,None,,,,,,,,,,,,240.9822511000002,None,k,1,0.3759276000000682,240.9822511000002,None,,,,,18,001,2022_Oct_19_1554,Version4,2021.2.0,240.37190340402893,
blue_neutral,0,a,middle,blue,0,,,,,,,,,3,5,23,5,,,,,,,241.37419260000024,None,,,,,,,,,,,,242.40876679999928,None,a,1,0.36594440000044415,242.40876679999928,None,,,,,18,001,2022_Oct_19_1554,Version4,2021.2.0,240.37190340402893,
red_congruent,1,k,right,red,0.6,,,,,,,,,4,0,24,1,,,,,,,242.79254469999978,None,,,,,,,,,,,,243.88117409999904,None,k,1,0.3734232000006159,243.88117409999904,None,,,,,18,001,2022_Oct_19_1554,Version4,2021.2.0,240.37190340402893,
blue_congruent,1,a,left,blue,-0.6,,,,,,,,,4,1,25,0,,,,,,,244.26904660000037,None,,,,,,,,,,,,245.4330133000003,None,a,1,0.4699395999996341,245.4330133000003,None,,,,,18,001,2022_Oct_19_1554,Version4,2021.2.0,240.37190340402893,
red_congruent,1,k,right,red,0.6,,,,,,,,,4,2,26,1,,,,,,,245.92100670000036,None,,,,,,,,,,,,247.05954399999973,None,k,1,0.3874738999984402,247.05954399999973,None,,,,,18,001,2022_Oct_19_1554,Version4,2021.2.0,240.37190340402893,
red_congruent,1,k,right,red,0.6,,,,,,,,,4,3,27,1,,,,,,,247.45579519999956,None,,,,,,,,,,,,248.54863420000038,None,k,1,0.4028854999996838,248.54863420000038,None,,,,,18,001,2022_Oct_19_1554,Version4,2021.2.0,240.37190340402893,
blue_incongruent,0,a,right,blue,0.6,,,,,,,,,4,4,28,2,,,,,,,248.96990129999904,None,,,,,,,,,,,,250.0502317999999,None,a,1,0.4373765000000276,250.0502317999999,None,,,,,18,001,2022_Oct_19_1554,Version4,2021.2.0,240.37190340402893,
red_neutral,0,k,middle,red,0,,,,,,,,,4,5,29,4,,,,,,,250.49658330000057,None,,,,,,,,,,,,251.67702029999964,None,k,1,0.3946640000012849,251.67702029999964,None,,,,,18,001,2022_Oct_19_1554,Version4,2021.2.0,240.37190340402893,
red_incongruent,0,k,left,red,-0.6,,,,,,,,,5,0,30,3,,,,,,,252.08572099999947,None,,,,,,,,,,,,253.18270180000036,None,k,1,0.47313349999967613,253.18270180000036,None,,,,,18,001,2022_Oct_19_1554,Version4,2021.2.0,240.37190340402893,
red_neutral,0,k,middle,red,0,,,,,,,,,5,1,31,4,,,,,,,253.67074879999927,None,,,,,,,,,,,,254.8594833999996,None,k,1,0.33272949999991397,254.8594833999996,None,,,,,18,001,2022_Oct_19_1554,Version4,2021.2.0,240.37190340402893,
blue_congruent,1,a,left,blue,-0.6,,,,,,,,,5,2,32,0,,,,,,,255.2053065,None,,,,,,,,,,,,256.22347549999904,None,a,1,0.3767523999995319,256.22347549999904,None,,,,,18,001,2022_Oct_19_1554,Version4,2021.2.0,240.37190340402893,
blue_incongruent,0,a,right,blue,0.6,,,,,,,,,5,3,33,2,,,,,,,256.6113652999993,None,,,,,,,,,,,,257.77516900000046,None,a,1,0.3454705999993166,257.77516900000046,None,,,,,18,001,2022_Oct_19_1554,Version4,2021.2.0,240.37190340402893,
blue_congruent,1,a,left,blue,-0.6,,,,,,,,,5,4,34,0,,,,,,,258.13390849999996,None,,,,,,,,,,,,259.2142552999994,None,a,1,0.3785744999986491,259.2142552999994,None,,,,,18,001,2022_Oct_19_1554,Version4,2021.2.0,240.37190340402893,
red_incongruent,0,k,left,red,-0.6,,,,,,,,,5,5,35,3,,,,,,,259.6103970999993,None,,,,,,,,,,,,260.6865345999995,None,k,1,0.47451640000144835,260.6865345999995,None,,,,,18,001,2022_Oct_19_1554,Version4,2021.2.0,240.37190340402893,
red_neutral,0,k,middle,red,0,,,,,,,,,6,0,36,4,,,,,,,261.17464180000024,None,,,,,,,,,,,,262.2256574000003,None,k,1,0.5279057000007015,262.2256574000003,None,,,,,18,001,2022_Oct_19_1554,Version4,2021.2.0,240.37190340402893,
red_neutral,0,k,middle,red,0,,,,,,,,,6,1,37,4,,,,,,,262.7636583000003,None,,,,,,,,,,,,263.9191243999994,None,k,1,0.40219099999922037,263.9191243999994,None,,,,,18,001,2022_Oct_19_1554,Version4,2021.2.0,240.37190340402893,
red_congruent,1,k,right,red,0.6,,,,,,,,,6,2,38,1,,,,,,,264.3320141999993,None,,,,,,,,,,,,265.4458603999992,None,k,1,0.37165730000015174,265.4458603999992,None,,,,,18,001,2022_Oct_19_1554,Version4,2021.2.0,240.37190340402893,
blue_congruent,1,a,left,blue,-0.6,,,,,,,,,6,3,39,0,,,,,,,265.83365140000024,None,,,,,,,,,,,,266.91813170000023,None,a,1,0.37160839999887685,266.91813170000023,None,,,,,18,001,2022_Oct_19_1554,Version4,2021.2.0,240.37190340402893,
red_incongruent,0,k,left,red,-0.6,,,,,,,,,6,4,40,3,,,,,,,267.3061177999989,None,,,,,,,,,,,,268.4531979000003,None,k,1,0.47678949999863107,268.4531979000003,None,,,,,18,001,2022_Oct_19_1554,Version4,2021.2.0,240.37190340402893,
blue_congruent,1,a,left,blue,-0.6,,,,,,,,,6,5,41,0,,,,,,,268.94053200000053,None,,,,,,,,,,,,270.1882645000005,None,a,1,0.5019384000006539,270.1882645000005,None,,,,,18,001,2022_Oct_19_1554,Version4,2021.2.0,240.37190340402893,
blue_congruent,1,a,left,blue,-0.6,,,,,,,,,7,0,42,0,,,,,,,270.70536249999896,None,,,,,,,,,,,,271.8273657999998,None,a,1,0.36701480000010633,271.8273657999998,None,,,,,18,001,2022_Oct_19_1554,Version4,2021.2.0,240.37190340402893,
red_incongruent,0,k,left,red,-0.6,,,,,,,,,7,1,43,3,,,,,,,272.2023281999991,None,,,,,,,,,,,,273.31682530000035,None,k,1,0.4217879999996512,273.31682530000035,None,,,,,18,001,2022_Oct_19_1554,Version4,2021.2.0,240.37190340402893,
red_congruent,1,k,right,red,0.6,,,,,,,,,7,2,44,1,,,,,,,273.74618120000014,None,,,,,,,,,,,,274.9350546000005,None,k,1,0.4837803000009444,274.9350546000005,None,,,,,18,001,2022_Oct_19_1554,Version4,2021.2.0,240.37190340402893,
red_congruent,1,k,right,red,0.6,,,,,,,,,7,3,45,1,,,,,,,275.43119859999933,None,,,,,,,,,,,,276.50332179999896,None,k,1,0.395874100000583,276.50332179999896,None,,,,,18,001,2022_Oct_19_1554,Version4,2021.2.0,240.37190340402893,
red_incongruent,0,k,left,red,-0.6,,,,,,,,,7,4,46,3,,,,,,,276.9161215000004,None,,,,,,,,,,,,278.00072980000004,None,k,1,0.4025491000011243,278.00072980000004,None,,,,,18,001,2022_Oct_19_1554,Version4,2021.2.0,240.37190340402893,
blue_incongruent,0,a,right,blue,0.6,,,,,,,,,7,5,47,2,,,,,,,278.4220372,None,,,,,,,,,,,,279.5690577000005,None,a,1,0.3704291000012745,279.5690577000005,None,,,,,18,001,2022_Oct_19_1554,Version4,2021.2.0,240.37190340402893,
,,,,,,,,,,,,,,,,,,,,,,,,,,,,,,,,,,,,,,,,,,,,space,11.915929000000688,,,18,001,2022_Oct_19_1554,Version4,2021.2.0,240.37190340402893,
blue_incongruent,0,a,right,blue,0.6,,,,,,,,,,,,,0,0,0,2,,,291.90702539999984,None,,,,,,,,,,,,293.0041151000005,None,a,1,0.3851891999984218,293.0041151000005,None,,,,,18,001,2022_Oct_19_1554,Version4,2021.2.0,240.37190340402893,
blue_congruent,1,a,left,blue,-0.6,,,,,,,,,,,,,0,1,1,0,,,293.4004556,None,,,,,,,,,,,,294.5599782999998,None,a,1,0.2775268999994296,294.5599782999998,None,,,,,18,001,2022_Oct_19_1554,Version4,2021.2.0,240.37190340402893,
blue_incongruent,0,a,right,blue,0.6,,,,,,,,,,,,,0,2,2,2,,,294.8519610000003,None,,,,,,,,,,,,295.89473629999884,None,a,1,0.3189755999992485,295.89473629999884,None,,,,,18,001,2022_Oct_19_1554,Version4,2021.2.0,240.37190340402893,
red_incongruent,0,k,left,red,-0.6,,,,,,,,,,,,,0,3,3,3,,,296.2326852999995,None,,,,,,,,,,,,297.42963079999936,None,k,1,0.4323069999991276,297.42963079999936,None,,,,,18,001,2022_Oct_19_1554,Version4,2021.2.0,240.37190340402893,
red_neutral,0,k,middle,red,0,,,,,,,,,,,,,0,4,4,4,,,297.8800510000001,None,,,,,,,,,,,,299.05643769999915,None,k,1,0.4136963000000833,299.05643769999915,None,,,,,18,001,2022_Oct_19_1554,Version4,2021.2.0,240.37190340402893,
blue_neutral,0,a,middle,blue,0,,,,,,,,,,,,,0,5,5,5,,,299.4861949999995,None,,,,,,,,,,,,300.5455115999994,None,a,1,0.46081950000007055,300.5455115999994,None,,,,,18,001,2022_Oct_19_1554,Version4,2021.2.0,240.37190340402893,
blue_congruent,1,a,left,blue,-0.6,,,,,,,,,,,,,1,0,6,0,,,301.02101589999984,None,,,,,,,,,,,,302.1930210999999,None,a,1,0.34971000000041386,302.1930210999999,None,,,,,18,001,2022_Oct_19_1554,Version4,2021.2.0,240.37190340402893,
red_neutral,0,k,middle,red,0,,,,,,,,,,,,,1,1,7,4,,,302.5601501000001,None,,,,,,,,,,,,303.77410959999906,None,k,1,0.34484039999915694,303.77410959999906,None,,,,,18,001,2022_Oct_19_1554,Version4,2021.2.0,240.37190340402893,
red_congruent,1,k,right,red,0.6,,,,,,,,,,,,,1,2,8,1,,,304.13271689999965,None,,,,,,,,,,,,305.39225439999973,None,k,1,0.45477650000066205,305.39225439999973,None,,,,,18,001,2022_Oct_19_1554,Version4,2021.2.0,240.37190340402893,
red_incongruent,0,k,left,red,-0.6,,,,,,,,,,,,,1,3,9,3,,,305.85945170000014,None,,,,,,,,,,,,306.9440278000002,None,k,1,0.4311906999992061,306.9440278000002,None,,,,,18,001,2022_Oct_19_1554,Version4,2021.2.0,240.37190340402893,
red_congruent,1,k,right,red,0.6,,,,,,,,,,,,,1,4,10,1,,,307.3861280000001,None,,,,,,,,,,,,308.47894610000003,None,k,1,0.3767790999991121,308.47894610000003,None,,,,,18,001,2022_Oct_19_1554,Version4,2021.2.0,240.37190340402893,
blue_neutral,0,a,middle,blue,0,,,,,,,,,,,,,1,5,11,5,,,308.87107710000055,None,,,,,,,,,,,,309.9721897999989,None,a,1,0.37944140000035986,309.9721897999989,None,,,,,18,001,2022_Oct_19_1554,Version4,2021.2.0,240.37190340402893,
red_incongruent,0,k,left,red,-0.6,,,,,,,,,,,,,2,0,12,3,,,310.36429540000063,None,,,,,,,,,,,,311.51132999999936,None,k,1,0.37654880000081903,311.51132999999936,None,,,,,18,001,2022_Oct_19_1554,Version4,2021.2.0,240.37190340402893,
blue_incongruent,0,a,right,blue,0.6,,,,,,,,,,,,,2,1,13,2,,,311.89931930000057,None,,,,,,,,,,,,312.94605349999983,None,a,1,0.35014009999940754,312.94605349999983,None,,,,,18,001,2022_Oct_19_1554,Version4,2021.2.0,240.37190340402893,
blue_congruent,1,a,left,blue,-0.6,,,,,,,,,,,,,2,2,14,0,,,313.3090450999989,None,,,,,,,,,,,,314.3977116999995,None,a,1,0.29853910000019823,314.3977116999995,None,,,,,18,001,2022_Oct_19_1554,Version4,2021.2.0,240.37190340402893,
red_incongruent,0,k,left,red,-0.6,,,,,,,,,,,,,2,3,15,3,,,314.71461719999934,None,,,,,,,,,,,,315.8075570000001,None,k,1,0.44103809999978694,315.8075570000001,None,,,,,18,001,2022_Oct_19_1554,Version4,2021.2.0,240.37190340402893,
red_congruent,1,k,right,red,0.6,,,,,,,,,,,,,2,4,16,1,,,316.2664550999998,None,,,,,,,,,,,,317.5510787000003,None,k,1,0.5775850000009086,317.5510787000003,None,,,,,18,001,2022_Oct_19_1554,Version4,2021.2.0,240.37190340402893,
blue_neutral,0,a,middle,blue,0,,,,,,,,,,,,,2,5,17,5,,,318.1432368000005,None,,,,,,,,,,,,319.265494199999,None,a,1,0.36741760000040813,319.265494199999,None,,,,,18,001,2022_Oct_19_1554,Version4,2021.2.0,240.37190340402893,
red_incongruent,0,k,left,red,-0.6,,,,,,,,,,,,,3,0,18,3,,,319.64482099999987,None,,,,,,,,,,,,320.7377863999991,None,k,1,0.3915597999985039,320.7377863999991,None,,,,,18,001,2022_Oct_19_1554,Version4,2021.2.0,240.37190340402893,
blue_neutral,0,a,middle,blue,0,,,,,,,,,,,,,3,1,19,5,,,321.14239090000046,None,,,,,,,,,,,,322.3227812999994,None,a,1,0.38279490000059013,322.3227812999994,None,,,,,18,001,2022_Oct_19_1554,Version4,2021.2.0,240.37190340402893,
blue_incongruent,0,a,right,blue,0.6,,,,,,,,,,,,,3,2,20,2,,,322.7232342999996,None,,,,,,,,,,,,323.836984399999,None,a,1,0.46055580000029295,323.836984399999,None,,,,,18,001,2022_Oct_19_1554,Version4,2021.2.0,240.37190340402893,
red_congruent,1,k,right,red,0.6,,,,,,,,,,,,,3,3,21,1,,,324.30820119999953,None,,,,,,,,,,,,325.46780519999993,None,k,1,0.37410060000001977,325.46780519999993,None,,,,,18,001,2022_Oct_19_1554,Version4,2021.2.0,240.37190340402893,
blue_congruent,1,a,left,blue,-0.6,,,,,,,,,,,,,3,4,22,0,,,325.85149679999995,None,,,,,,,,,,,,327.07790530000057,None,a,1,0.31627020000087214,327.07790530000057,None,,,,,18,001,2022_Oct_19_1554,Version4,2021.2.0,240.37190340402893,
red_incongruent,0,k,left,red,-0.6,,,,,,,,,,,,,3,5,23,3,,,327.41152949999923,None,,,,,,,,,,,,328.50017300000036,None,k,1,0.3661532999994961,328.50017300000036,None,,,,,18,001,2022_Oct_19_1554,Version4,2021.2.0,240.37190340402893,
blue_neutral,0,a,middle,blue,0,,,,,,,,,,,,,4,0,24,5,,,328.88392679999924,None,,,,,,,,,,,,329.98097029999917,None,a,1,0.3093869000003906,329.98097029999917,None,,,,,18,001,2022_Oct_19_1554,Version4,2021.2.0,240.37190340402893,
red_neutral,0,k,middle,red,0,,,,,,,,,,,,,4,1,25,4,,,330.30213229999936,None,,,,,,,,,,,,331.3699049000006,None,k,1,0.376702400000795,331.3699049000006,None,,,,,18,001,2022_Oct_19_1554,Version4,2021.2.0,240.37190340402893,
blue_congruent,1,a,left,blue,-0.6,,,,,,,,,,,,,4,2,26,0,,,331.75779449999936,None,,,,,,,,,,,,332.86315250000007,None,a,1,0.3236278000003949,332.86315250000007,None,,,,,18,001,2022_Oct_19_1554,Version4,2021.2.0,240.37190340402893,
red_congruent,1,k,right,red,0.6,,,,,,,,,,,,,4,3,27,1,,,333.2008869000001,None,,,,,,,,,,,,334.310598,None,k,1,0.3723645999998553,334.310598,None,,,,,18,001,2022_Oct_19_1554,Version4,2021.2.0,240.37190340402893,
blue_congruent,1,a,left,blue,-0.6,,,,,,,,,,,,,4,4,28,0,,,334.6942646999996,None,,,,,,,,,,,,335.7827799000006,None,a,1,0.3564195999988442,335.7827799000006,None,,,,,18,001,2022_Oct_19_1554,Version4,2021.2.0,240.37190340402893,
blue_incongruent,0,a,right,blue,0.6,,,,,,,,,,,,,4,5,29,2,,,336.1498283000001,None,,,,,,,,,,,,337.21762279999894,None,a,1,0.5219359999991866,337.21762279999894,None,,,,,18,001,2022_Oct_19_1554,Version4,2021.2.0,240.37190340402893,
red_neutral,0,k,middle,red,0,,,,,,,,,,,,,5,0,30,4,,,337.7557013000005,None,,,,,,,,,,,,338.8528518999992,None,k,1,0.36674280000079307,338.8528518999992,None,,,,,18,001,2022_Oct_19_1554,Version4,2021.2.0,240.37190340402893,
red_incongruent,0,k,left,red,-0.6,,,,,,,,,,,,,5,1,31,3,,,339.2324007999996,None,,,,,,,,,,,,340.383632699999,None,k,1,0.5801929000008386,340.383632699999,None,,,,,18,001,2022_Oct_19_1554,Version4,2021.2.0,240.37190340402893,
blue_neutral,0,a,middle,blue,0,,,,,,,,,,,,,5,2,32,5,,,340.9759715,None,,,,,,,,,,,,342.10615379999945,None,a,1,0.4338988999988942,342.10615379999945,None,,,,,18,001,2022_Oct_19_1554,Version4,2021.2.0,240.37190340402893,
blue_incongruent,0,a,right,blue,0.6,,,,,,,,,,,,,5,3,33,2,,,342.556767099999,None,,,,,,,,,,,,343.6580505000002,None,a,1,0.5222020000001066,343.6580505000002,None,,,,,18,001,2022_Oct_19_1554,Version4,2021.2.0,240.37190340402893,
blue_incongruent,0,a,right,blue,0.6,,,,,,,,,,,,,5,4,34,2,,,344.19604190000064,None,,,,,,,,,,,,345.2680715000006,None,a,1,0.46441799999956856,345.2680715000006,None,,,,,18,001,2022_Oct_19_1554,Version4,2021.2.0,240.37190340402893,
blue_incongruent,0,a,right,blue,0.6,,,,,,,,,,,,,5,5,35,2,,,345.7435002000002,None,,,,,,,,,,,,347.0115824000004,None,a,1,0.33746290000090085,347.0115824000004,None,,,,,18,001,2022_Oct_19_1554,Version4,2021.2.0,240.37190340402893,
blue_neutral,0,a,middle,blue,0,,,,,,,,,,,,,6,0,36,5,,,347.36190739999984,None,,,,,,,,,,,,348.4880782,None,a,1,0.3968436999984988,348.4880782,None,,,,,18,001,2022_Oct_19_1554,Version4,2021.2.0,240.37190340402893,
red_neutral,0,k,middle,red,0,,,,,,,,,,,,,6,1,37,4,,,348.90120840000054,None,,,,,,,,,,,,350.08985159999975,None,k,1,0.3792744999991555,350.08985159999975,None,,,,,18,001,2022_Oct_19_1554,Version4,2021.2.0,240.37190340402893,
red_neutral,0,k,middle,red,0,,,,,,,,,,,,,6,2,38,4,,,350.481883299999,None,,,,,,,,,,,,351.59540729999935,None,k,1,0.3299303999992844,351.59540729999935,None,,,,,18,001,2022_Oct_19_1554,Version4,2021.2.0,240.37190340402893,
blue_neutral,0,a,middle,blue,0,,,,,,,,,,,,,6,3,39,5,,,351.9375849999997,None,,,,,,,,,,,,352.9930232000006,None,a,1,0.420677699999942,352.9930232000006,None,,,,,18,001,2022_Oct_19_1554,Version4,2021.2.0,240.37190340402893,
red_incongruent,0,k,left,red,-0.6,,,,,,,,,,,,,6,4,40,3,,,353.4267471000003,None,,,,,,,,,,,,354.49446109999917,None,k,1,0.3914451000000554,354.49446109999917,None,,,,,18,001,2022_Oct_19_1554,Version4,2021.2.0,240.37190340402893,
blue_congruent,1,a,left,blue,-0.6,,,,,,,,,,,,,6,5,41,0,,,354.8990668999995,None,,,,,,,,,,,,355.9669260999999,None,a,1,0.3750463000014861,355.9669260999999,None,,,,,18,001,2022_Oct_19_1554,Version4,2021.2.0,240.37190340402893,
red_congruent,1,k,right,red,0.6,,,,,,,,,,,,,7,0,42,1,,,356.35478859999967,None,,,,,,,,,,,,357.4726265999998,None,k,1,0.3416486999994959,357.4726265999998,None,,,,,18,001,2022_Oct_19_1554,Version4,2021.2.0,240.37190340402893,
red_neutral,0,k,middle,red,0,,,,,,,,,,,,,7,1,43,4,,,357.83135219999895,None,,,,,,,,,,,,358.88244660000055,None,k,1,0.35616360000130953,358.88244660000055,None,,,,,18,001,2022_Oct_19_1554,Version4,2021.2.0,240.37190340402893,
red_neutral,0,k,middle,red,0,,,,,,,,,,,,,7,2,44,4,,,359.2536949999994,None,,,,,,,,,,,,360.3964304000001,None,k,1,0.33817650000128197,360.3964304000001,None,,,,,18,001,2022_Oct_19_1554,Version4,2021.2.0,240.37190340402893,
red_congruent,1,k,right,red,0.6,,,,,,,,,,,,,7,3,45,1,,,360.7468795999994,None,,,,,,,,,,,,361.9231727000006,None,k,1,0.3877374999992753,361.9231727000006,None,,,,,18,001,2022_Oct_19_1554,Version4,2021.2.0,240.37190340402893,
blue_congruent,1,a,left,blue,-0.6,,,,,,,,,,,,,7,4,46,0,,,362.3238839000005,None,,,,,,,,,,,,363.38305240000045,None,a,1,0.3760564999993221,363.38305240000045,None,,,,,18,001,2022_Oct_19_1554,Version4,2021.2.0,240.37190340402893,
red_congruent,1,k,right,red,0.6,,,,,,,,,,,,,7,5,47,1,,,363.77524079999966,None,,,,,,,,,,,,364.84699510000064,None,k,1,1.6085949000007531,364.84699510000064,None,,,,,18,001,2022_Oct_19_1554,Version4,2021.2.0,240.37190340402893,
,,,,,,,,,,,,,,,,,,,,,,,,,,,,,,,,,,,,,,,,,,,,space,13.686920699999973,,,18,001,2022_Oct_19_1554,Version4,2021.2.0,240.37190340402893,
,,,,,,,,,,,,,,,,,,,,,,,,,,,,,,,,,,,,,,,,,,,,,,space,18.855391099999906,18,001,2022_Oct_19_1554,Version4,2021.2.0,240.37190340402893,
