images,congruentcy,corrAns,box_pos,box_color,box_x,pract.thisRepN,pract.thisTrialN,pract.thisN,pract.thisIndex,trials.thisRepN,trials.thisTrialN,trials.thisN,trials.thisIndex,trials_2.thisRepN,trials_2.thisTrialN,trials_2.thisN,trials_2.thisIndex,trials_3.thisRepN,trials_3.thisTrialN,trials_3.thisN,trials_3.thisIndex,key_resp_instr.keys,key_resp_instr.rt,FixCross.started,FixCross.stopped,Box_p.started,Box_p.stopped,key_resp_P.keys,key_resp_P.corr,key_resp_P.rt,key_resp_P.started,key_resp_P.stopped,text_3.started,text_3.stopped,key_resp_2.keys,key_resp_2.rt,Box.started,Box.stopped,key_resp.keys,key_resp.corr,key_resp.rt,key_resp.started,key_resp.stopped,key_resp_3.keys,key_resp_3.rt,key_resp_4.keys,key_resp_4.rt,participant,session,date,expName,psychopyVersion,frameRate,
,,,,,,,,,,,,,,,,,,,,,,space,11.327244299987797,,,,,,,,,,,,,,,,,,,,,,,,,1,001,2022_Aug_05_1545,Version4,2021.2.0,239.67997931024254,
red_neutral,0,k,middle,red,0,0,0,0,4,,,,,,,,,,,,,,,19.75943700002972,None,20.872761100006755,None,k,1,0.6253487000358291,20.872761100006755,None,,,,,,,,,,,,,,,,1,001,2022_Aug_05_1545,Version4,2021.2.0,239.67997931024254,
red_congruent,1,k,right,red,0.6,0,1,1,1,,,,,,,,,,,,,,,22.516434300050605,None,23.52975340001285,None,a,0,2.920665599987842,23.52975340001285,None,,,,,,,,,,,,,,,,1,001,2022_Aug_05_1545,Version4,2021.2.0,239.67997931024254,
blue_congruent,1,a,left,blue,-0.6,0,2,2,0,,,,,,,,,,,,,,,27.46749800001271,None,28.510034100036137,None,a,1,0.4847600999637507,28.510034100036137,None,,,,,,,,,,,,,,,,1,001,2022_Aug_05_1545,Version4,2021.2.0,239.67997931024254,
red_neutral,0,k,middle,red,0,0,3,3,4,,,,,,,,,,,,,,,30.011841500003356,None,31.22541640000418,None,k,1,0.3939632000401616,31.22541640000418,None,,,,,,,,,,,,,,,,1,001,2022_Aug_05_1545,Version4,2021.2.0,239.67997931024254,
blue_incongruent,0,a,right,blue,0.6,0,4,4,2,,,,,,,,,,,,,,,32.6354554000427,None,33.73641320003662,None,a,1,0.5710675999871455,33.73641320003662,None,,,,,,,,,,,,,,,,1,001,2022_Aug_05_1545,Version4,2021.2.0,239.67997931024254,
blue_incongruent,0,a,right,blue,0.6,0,5,5,2,,,,,,,,,,,,,,,35.32161090004956,None,36.43935410003178,None,a,1,0.42850119998911396,36.43935410003178,None,,,,,,,,,,,,,,,,1,001,2022_Aug_05_1545,Version4,2021.2.0,239.67997931024254,
red_neutral,0,k,middle,red,0,1,0,6,4,,,,,,,,,,,,,,,37.886905600025784,None,38.96696210000664,None,k,1,0.37324009998701513,38.96696210000664,None,,,,,,,,,,,,,,,,1,001,2022_Aug_05_1545,Version4,2021.2.0,239.67997931024254,
red_congruent,1,k,right,red,0.6,1,1,7,1,,,,,,,,,,,,,,,40.36029250000138,None,41.43636010005139,None,k,1,0.3842369000194594,41.43636010005139,None,,,,,,,,,,,,,,,,1,001,2022_Aug_05_1545,Version4,2021.2.0,239.67997931024254,
red_congruent,1,k,right,red,0.6,1,2,8,1,,,,,,,,,,,,,,,42.837709000043105,None,43.855610300030094,None,k,1,0.3253338999929838,43.855610300030094,None,,,,,,,,,,,,,,,,1,001,2022_Aug_05_1545,Version4,2021.2.0,239.67997931024254,
blue_neutral,0,a,middle,blue,0,1,3,9,5,,,,,,,,,,,,,,,45.20292390004033,None,46.320720400020946,None,a,1,0.4284400999895297,46.320720400020946,None,,,,,,,,,,,,,,,,1,001,2022_Aug_05_1545,Version4,2021.2.0,239.67997931024254,
blue_congruent,1,a,left,blue,-0.6,1,4,10,0,,,,,,,,,,,,,,,47.76391230005538,None,48.990096600027755,None,a,1,0.35961039998801425,48.990096600027755,None,,,,,,,,,,,,,,,,1,001,2022_Aug_05_1545,Version4,2021.2.0,239.67997931024254,
red_incongruent,0,k,left,red,-0.6,1,5,11,3,,,,,,,,,,,,,,,50.366694000025745,None,51.41765330004273,None,k,1,0.47638710000319406,51.41765330004273,None,,,,,,,,,,,,,,,,1,001,2022_Aug_05_1545,Version4,2021.2.0,239.67997931024254,
blue_neutral,0,a,middle,blue,0,2,0,12,5,,,,,,,,,,,,,,,52.9152053000289,None,53.941295200027525,None,a,1,0.4408986999769695,53.941295200027525,None,,,,,,,,,,,,,,,,1,001,2022_Aug_05_1545,Version4,2021.2.0,239.67997931024254,
red_incongruent,0,k,left,red,-0.6,2,1,13,3,,,,,,,,,,,,,,,55.40117210004246,None,56.443814900005236,None,k,1,0.4507887000218034,56.443814900005236,None,,,,,,,,,,,,,,,,1,001,2022_Aug_05_1545,Version4,2021.2.0,239.67997931024254,
blue_neutral,0,a,middle,blue,0,2,2,14,5,,,,,,,,,,,,,,,57.91641410003649,None,58.97162740002386,None,a,1,0.4192585999844596,58.97162740002386,None,,,,,,,,,,,,,,,,1,001,2022_Aug_05_1545,Version4,2021.2.0,239.67997931024254,
red_incongruent,0,k,left,red,-0.6,2,3,15,3,,,,,,,,,,,,,,,60.40650000004098,None,61.47427730000345,None,k,1,0.36519100004807115,61.47427730000345,None,,,,,,,,,,,,,,,,1,001,2022_Aug_05_1545,Version4,2021.2.0,239.67997931024254,
blue_neutral,0,a,middle,blue,0,2,4,16,5,,,,,,,,,,,,,,,62.85910080000758,None,63.97695140005089,None,a,1,0.40662199998041615,63.97695140005089,None,,,,,,,,,,,,,,,,1,001,2022_Aug_05_1545,Version4,2021.2.0,239.67997931024254,
red_incongruent,0,k,left,red,-0.6,2,5,17,3,,,,,,,,,,,,,,,65.39929590001702,None,66.51714170002379,None,a,0,0.3709373999736272,66.51714170002379,None,,,,,,,,,,,,,,,,1,001,2022_Aug_05_1545,Version4,2021.2.0,239.67997931024254,
red_congruent,1,k,right,red,0.6,3,0,18,1,,,,,,,,,,,,,,,67.90612110000802,None,69.0908158000093,None,k,1,0.3734268000116572,69.0908158000093,None,,,,,,,,,,,,,,,,1,001,2022_Aug_05_1545,Version4,2021.2.0,239.67997931024254,
blue_incongruent,0,a,right,blue,0.6,3,1,19,2,,,,,,,,,,,,,,,70.47966270003235,None,71.62254840001697,None,a,1,0.4501113999867812,71.62254840001697,None,,,,,,,,,,,,,,,,1,001,2022_Aug_05_1545,Version4,2021.2.0,239.67997931024254,
blue_congruent,1,a,left,blue,-0.6,3,2,20,0,,,,,,,,,,,,,,,73.09494760003872,None,74.3461316000321,None,a,1,0.43085489998338744,74.3461316000321,None,,,,,,,,,,,,,,,,1,001,2022_Aug_05_1545,Version4,2021.2.0,239.67997931024254,
blue_congruent,1,a,left,blue,-0.6,3,3,21,0,,,,,,,,,,,,,,,75.79364150000038,None,76.87381360004656,None,a,1,0.3515021000057459,76.87381360004656,None,,,,,,,,,,,,,,,,1,001,2022_Aug_05_1545,Version4,2021.2.0,239.67997931024254,
red_neutral,0,k,middle,red,0,3,4,22,4,,,,,,,,,,,,,,,78.24624180002138,None,79.31404060003115,None,k,1,0.39963579998584464,79.31404060003115,None,,,,,,,,,,,,,,,,1,001,2022_Aug_05_1545,Version4,2021.2.0,239.67997931024254,
blue_incongruent,0,a,right,blue,0.6,3,5,23,2,,,,,,,,,,,,,,,80.72804600000381,None,81.80404390004696,None,a,1,0.39796440000645816,81.80404390004696,None,,,,,,,,,,,,,,,,1,001,2022_Aug_05_1545,Version4,2021.2.0,239.67997931024254,
,,,,,,,,,,,,,,,,,,,,,,,,,,,,,,,,,83.23057300003711,None,space,2.010310300043784,,,,,,,,,,,,1,001,2022_Aug_05_1545,Version4,2021.2.0,239.67997931024254,
red_neutral,0,k,middle,red,0,,,,,0,0,0,4,,,,,,,,,,,87.25605660001747,None,,,,,,,,,,,,88.43226410000352,None,k,1,0.7626557000330649,88.43226410000352,None,,,,,1,001,2022_Aug_05_1545,Version4,2021.2.0,239.67997931024254,
red_neutral,0,k,middle,red,0,,,,,0,1,1,4,,,,,,,,,,,89.20774190005613,None,,,,,,,,,,,,90.30889200000092,None,k,1,0.33425650000572205,90.30889200000092,None,,,,,1,001,2022_Aug_05_1545,Version4,2021.2.0,239.67997931024254,
blue_neutral,0,a,middle,blue,0,,,,,0,2,2,5,,,,,,,,,,,90.65941770002246,None,,,,,,,,,,,,91.80631740001263,None,a,1,0.35701660002814606,91.80631740001263,None,,,,,1,001,2022_Aug_05_1545,Version4,2021.2.0,239.67997931024254,
red_incongruent,0,k,left,red,-0.6,,,,,0,3,3,3,,,,,,,,,,,92.18173690000549,None,,,,,,,,,,,,93.2453344000387,None,k,1,0.3823084000032395,93.2453344000387,None,,,,,1,001,2022_Aug_05_1545,Version4,2021.2.0,239.67997931024254,
red_incongruent,0,k,left,red,-0.6,,,,,0,4,4,3,,,,,,,,,,,93.64162910002051,None,,,,,,,,,,,,94.77613610000117,None,k,1,0.37960810004733503,94.77613610000117,None,,,,,1,001,2022_Aug_05_1545,Version4,2021.2.0,239.67997931024254,
red_incongruent,0,k,left,red,-0.6,,,,,0,5,5,3,,,,,,,,,,,95.16414690000238,None,,,,,,,,,,,,96.17791430000216,None,k,1,0.3460801000474021,96.17791430000216,None,,,,,1,001,2022_Aug_05_1545,Version4,2021.2.0,239.67997931024254,
blue_neutral,0,a,middle,blue,0,,,,,1,0,6,5,,,,,,,,,,,96.53643730003387,None,,,,,,,,,,,,97.67504190001637,None,a,1,0.39307250001002103,97.67504190001637,None,,,,,1,001,2022_Aug_05_1545,Version4,2021.2.0,239.67997931024254,
red_incongruent,0,k,left,red,-0.6,,,,,1,1,7,3,,,,,,,,,,,98.07983480003895,None,,,,,,,,,,,,99.1435763000045,None,k,1,0.3887786000268534,99.1435763000045,None,,,,,1,001,2022_Aug_05_1545,Version4,2021.2.0,239.67997931024254,
red_neutral,0,k,middle,red,0,,,,,1,2,8,4,,,,,,,,,,,99.543684400036,None,,,,,,,,,,,,100.63235270004952,None,k,1,0.3001542999991216,100.63235270004952,None,,,,,1,001,2022_Aug_05_1545,Version4,2021.2.0,239.67997931024254,
blue_congruent,1,a,left,blue,-0.6,,,,,1,3,9,0,,,,,,,,,,,100.94472880003741,None,,,,,,,,,,,,102.00478170003043,None,a,1,0.34391180000966415,102.00478170003043,None,,,,,1,001,2022_Aug_05_1545,Version4,2021.2.0,239.67997931024254,
blue_congruent,1,a,left,blue,-0.6,,,,,1,4,10,0,,,,,,,,,,,102.36335070000496,None,,,,,,,,,,,,103.43531980004627,None,a,1,0.3617501999833621,103.43531980004627,None,,,,,1,001,2022_Aug_05_1545,Version4,2021.2.0,239.67997931024254,
blue_neutral,0,a,middle,blue,0,,,,,1,5,11,5,,,,,,,,,,,103.81511010002578,None,,,,,,,,,,,,104.97862800001167,None,k,0,0.2669500000192784,104.97862800001167,None,,,,,1,001,2022_Aug_05_1545,Version4,2021.2.0,239.67997931024254,
blue_congruent,1,a,left,blue,-0.6,,,,,2,0,12,0,,,,,,,,,,,105.25807810004335,None,,,,,,,,,,,,106.34675050002988,None,a,1,0.4747021999792196,106.34675050002988,None,,,,,1,001,2022_Aug_05_1545,Version4,2021.2.0,239.67997931024254,
blue_neutral,0,a,middle,blue,0,,,,,2,1,13,5,,,,,,,,,,,106.83908080001129,None,,,,,,,,,,,,107.93591960001504,None,a,1,0.3577212000382133,107.93591960001504,None,,,,,1,001,2022_Aug_05_1545,Version4,2021.2.0,239.67997931024254,
blue_neutral,0,a,middle,blue,0,,,,,2,2,14,5,,,,,,,,,,,108.31151720002526,None,,,,,,,,,,,,109.47505380003713,None,a,1,0.3069115999969654,109.47505380003713,None,,,,,1,001,2022_Aug_05_1545,Version4,2021.2.0,239.67997931024254,
blue_incongruent,0,a,right,blue,0.6,,,,,2,3,15,2,,,,,,,,,,,109.79624400002649,None,,,,,,,,,,,,110.94346110004699,None,a,1,0.3986268999869935,110.94346110004699,None,,,,,1,001,2022_Aug_05_1545,Version4,2021.2.0,239.67997931024254,
red_congruent,1,k,right,red,0.6,,,,,2,4,16,1,,,,,,,,,,,111.36051120003685,None,,,,,,,,,,,,112.43253570003435,None,k,1,0.3815692000207491,112.43253570003435,None,,,,,1,001,2022_Aug_05_1545,Version4,2021.2.0,239.67997931024254,
blue_congruent,1,a,left,blue,-0.6,,,,,2,5,17,0,,,,,,,,,,,112.82878290000372,None,,,,,,,,,,,,113.99234950001119,None,a,1,0.46200310002313927,113.99234950001119,None,,,,,1,001,2022_Aug_05_1545,Version4,2021.2.0,239.67997931024254,
red_congruent,1,k,right,red,0.6,,,,,3,0,18,1,,,,,,,,,,,114.46810720005305,None,,,,,,,,,,,,115.61073290003696,None,k,1,0.4118569999700412,115.61073290003696,None,,,,,1,001,2022_Aug_05_1545,Version4,2021.2.0,239.67997931024254,
blue_incongruent,0,a,right,blue,0.6,,,,,3,1,19,2,,,,,,,,,,,116.03633360000094,None,,,,,,,,,,,,117.18335040000966,None,a,1,0.46341840003151447,117.18335040000966,None,,,,,1,001,2022_Aug_05_1545,Version4,2021.2.0,239.67997931024254,
blue_neutral,0,a,middle,blue,0,,,,,3,2,20,5,,,,,,,,,,,117.65891910000937,None,,,,,,,,,,,,118.90610870003002,None,a,1,0.3809357999707572,118.90610870003002,None,,,,,1,001,2022_Aug_05_1545,Version4,2021.2.0,239.67997931024254,
blue_neutral,0,a,middle,blue,0,,,,,3,3,21,5,,,,,,,,,,,119.30647080001654,None,,,,,,,,,,,,120.37842080002883,None,a,1,0.3332780000055209,120.37842080002883,None,,,,,1,001,2022_Aug_05_1545,Version4,2021.2.0,239.67997931024254,
red_neutral,0,k,middle,red,0,,,,,3,4,22,4,,,,,,,,,,,120.72883279999951,None,,,,,,,,,,,,121.78416180005297,None,k,1,0.35923729999922216,121.78416180005297,None,,,,,1,001,2022_Aug_05_1545,Version4,2021.2.0,239.67997931024254,
blue_congruent,1,a,left,blue,-0.6,,,,,3,5,23,0,,,,,,,,,,,122.15535390004516,None,,,,,,,,,,,,123.22715950000565,None,a,1,0.32476210000459105,123.22715950000565,None,,,,,1,001,2022_Aug_05_1545,Version4,2021.2.0,239.67997931024254,
blue_incongruent,0,a,right,blue,0.6,,,,,4,0,24,2,,,,,,,,,,,123.5651675000554,None,,,,,,,,,,,,124.67465100000845,None,a,1,0.42921000003116205,124.67465100000845,None,,,,,1,001,2022_Aug_05_1545,Version4,2021.2.0,239.67997931024254,
blue_neutral,0,a,middle,blue,0,,,,,4,1,25,5,,,,,,,,,,,125.11664500000188,None,,,,,,,,,,,,126.2304866000195,None,a,1,0.3697038000100292,126.2304866000195,None,,,,,1,001,2022_Aug_05_1545,Version4,2021.2.0,239.67997931024254,
red_incongruent,0,k,left,red,-0.6,,,,,4,2,26,3,,,,,,,,,,,126.61423470004229,None,,,,,,,,,,,,127.67367460002424,None,a,0,0.3106410999898799,127.67367460002424,None,,,,,1,001,2022_Aug_05_1545,Version4,2021.2.0,239.67997931024254,
red_incongruent,0,k,left,red,-0.6,,,,,4,3,27,3,,,,,,,,,,,127.99903040000936,None,,,,,,,,,,,,129.0378993000486,None,k,1,0.40249289997154847,129.0378993000486,None,,,,,1,001,2022_Aug_05_1545,Version4,2021.2.0,239.67997931024254,
blue_congruent,1,a,left,blue,-0.6,,,,,4,4,28,0,,,,,,,,,,,129.45482570002787,None,,,,,,,,,,,,130.54326210002182,None,a,1,0.4253335000248626,130.54326210002182,None,,,,,1,001,2022_Aug_05_1545,Version4,2021.2.0,239.67997931024254,
blue_incongruent,0,a,right,blue,0.6,,,,,4,5,29,2,,,,,,,,,,,130.9857279000571,None,,,,,,,,,,,,132.0365883000195,None,a,1,0.4523096000193618,132.0365883000195,None,,,,,1,001,2022_Aug_05_1545,Version4,2021.2.0,239.67997931024254,
blue_incongruent,0,a,right,blue,0.6,,,,,5,0,30,2,,,,,,,,,,,132.50397499999963,None,,,,,,,,,,,,133.6006694000098,None,a,1,0.3285634000203572,133.6006694000098,None,,,,,1,001,2022_Aug_05_1545,Version4,2021.2.0,239.67997931024254,
red_neutral,0,k,middle,red,0,,,,,5,1,31,4,,,,,,,,,,,133.9471148000448,None,,,,,,,,,,,,134.9942136000027,None,k,1,0.4152050000266172,134.9942136000027,None,,,,,1,001,2022_Aug_05_1545,Version4,2021.2.0,239.67997931024254,
blue_congruent,1,a,left,blue,-0.6,,,,,5,2,32,0,,,,,,,,,,,135.42345250002109,None,,,,,,,,,,,,136.54998090001754,None,a,1,0.339403800026048,136.54998090001754,None,,,,,1,001,2022_Aug_05_1545,Version4,2021.2.0,239.67997931024254,
blue_incongruent,0,a,right,blue,0.6,,,,,5,3,33,2,,,,,,,,,,,136.90861830004724,None,,,,,,,,,,,,137.98472070001299,None,a,1,0.3928707999875769,137.98472070001299,None,,,,,1,001,2022_Aug_05_1545,Version4,2021.2.0,239.67997931024254,
red_congruent,1,k,right,red,0.6,,,,,5,4,34,1,,,,,,,,,,,138.3890481000417,None,,,,,,,,,,,,139.46104040002683,None,k,1,0.3007291000103578,139.46104040002683,None,,,,,1,001,2022_Aug_05_1545,Version4,2021.2.0,239.67997931024254,
red_neutral,0,k,middle,red,0,,,,,5,5,35,4,,,,,,,,,,,139.7738854000345,None,,,,,,,,,,,,140.93344300001627,None,k,1,0.37257780000800267,140.93344300001627,None,,,,,1,001,2022_Aug_05_1545,Version4,2021.2.0,239.67997931024254,
red_congruent,1,k,right,red,0.6,,,,,6,0,36,1,,,,,,,,,,,141.32159050001064,None,,,,,,,,,,,,142.46424140001182,None,k,1,0.34606920002261177,142.46424140001182,None,,,,,1,001,2022_Aug_05_1545,Version4,2021.2.0,239.67997931024254,
blue_congruent,1,a,left,blue,-0.6,,,,,6,1,37,0,,,,,,,,,,,142.82296050002333,None,,,,,,,,,,,,143.89909380004974,None,a,1,0.3993466999963857,143.89909380004974,None,,,,,1,001,2022_Aug_05_1545,Version4,2021.2.0,239.67997931024254,
red_congruent,1,k,right,red,0.6,,,,,6,2,38,1,,,,,,,,,,,144.31204870005604,None,,,,,,,,,,,,145.42153880000114,None,k,1,0.3330961000174284,145.42153880000114,None,,,,,1,001,2022_Aug_05_1545,Version4,2021.2.0,239.67997931024254,
red_incongruent,0,k,left,red,-0.6,,,,,6,3,39,3,,,,,,,,,,,145.76797440001974,None,,,,,,,,,,,,146.998200800037,None,k,1,0.4206891999929212,146.998200800037,None,,,,,1,001,2022_Aug_05_1545,Version4,2021.2.0,239.67997931024254,
red_congruent,1,k,right,red,0.6,,,,,6,4,40,1,,,,,,,,,,,147.43197170004714,None,,,,,,,,,,,,148.45394110004418,None,k,1,0.35706750000827014,148.45394110004418,None,,,,,1,001,2022_Aug_05_1545,Version4,2021.2.0,239.67997931024254,
red_neutral,0,k,middle,red,0,,,,,6,5,41,4,,,,,,,,,,,148.8293532000389,None,,,,,,,,,,,,149.89291210001102,None,k,1,0.3502895000274293,149.89291210001102,None,,,,,1,001,2022_Aug_05_1545,Version4,2021.2.0,239.67997931024254,
red_congruent,1,k,right,red,0.6,,,,,7,0,42,1,,,,,,,,,,,150.26003140001558,None,,,,,,,,,,,,151.31952320004348,None,k,1,0.3080305999610573,151.31952320004348,None,,,,,1,001,2022_Aug_05_1545,Version4,2021.2.0,239.67997931024254,
red_congruent,1,k,right,red,0.6,,,,,7,1,43,1,,,,,,,,,,,151.64495720004197,None,,,,,,,,,,,,152.68337120005162,None,k,1,0.320307599962689,152.68337120005162,None,,,,,1,001,2022_Aug_05_1545,Version4,2021.2.0,239.67997931024254,
blue_incongruent,0,a,right,blue,0.6,,,,,7,2,44,2,,,,,,,,,,,153.0213923000265,None,,,,,,,,,,,,154.10607500001788,None,a,1,0.3617233000113629,154.10607500001788,None,,,,,1,001,2022_Aug_05_1545,Version4,2021.2.0,239.67997931024254,
red_neutral,0,k,middle,red,0,,,,,7,3,45,4,,,,,,,,,,,154.48122380004497,None,,,,,,,,,,,,155.56144250003854,None,k,1,0.3626735999714583,155.56144250003854,None,,,,,1,001,2022_Aug_05_1545,Version4,2021.2.0,239.67997931024254,
red_incongruent,0,k,left,red,-0.6,,,,,7,4,46,3,,,,,,,,,,,155.93702280003345,None,,,,,,,,,,,,157.05468670005212,None,k,1,0.37349329999415204,157.05468670005212,None,,,,,1,001,2022_Aug_05_1545,Version4,2021.2.0,239.67997931024254,
blue_incongruent,0,a,right,blue,0.6,,,,,7,5,47,2,,,,,,,,,,,157.44696280005155,None,,,,,,,,,,,,158.54801970004337,None,a,1,0.3043411999824457,158.54801970004337,None,,,,,1,001,2022_Aug_05_1545,Version4,2021.2.0,239.67997931024254,
,,,,,,,,,,,,,,,,,,,,,,,,,,,,,,,,,,,,,,,,,,,,space,3.143205000029411,,,1,001,2022_Aug_05_1545,Version4,2021.2.0,239.67997931024254,
red_congruent,1,k,right,red,0.6,,,,,,,,,0,0,0,1,,,,,,,162.04772060003597,None,,,,,,,,,,,,163.0987571000005,None,k,1,0.7302753000403754,163.0987571000005,None,,,,,1,001,2022_Aug_05_1545,Version4,2021.2.0,239.67997931024254,
red_incongruent,0,k,left,red,-0.6,,,,,,,,,0,1,1,3,,,,,,,163.8412714000442,None,,,,,,,,,,,,165.01751870004227,None,k,1,0.3639158000005409,165.01751870004227,None,,,,,1,001,2022_Aug_05_1545,Version4,2021.2.0,239.67997931024254,
red_incongruent,0,k,left,red,-0.6,,,,,,,,,0,2,2,3,,,,,,,165.39709700003732,None,,,,,,,,,,,,166.5107040000148,None,k,1,0.3267591000185348,166.5107040000148,None,,,,,1,001,2022_Aug_05_1545,Version4,2021.2.0,239.67997931024254,
blue_congruent,1,a,left,blue,-0.6,,,,,,,,,0,3,3,0,,,,,,,166.84864730003756,None,,,,,,,,,,,,168.0581027000444,None,k,0,0.29952729999786243,168.0581027000444,None,,,,,1,001,2022_Aug_05_1545,Version4,2021.2.0,239.67997931024254,
blue_congruent,1,a,left,blue,-0.6,,,,,,,,,0,4,4,0,,,,,,,168.36689250002382,None,,,,,,,,,,,,169.39277070004027,None,a,1,0.4371594999684021,169.39277070004027,None,,,,,1,001,2022_Aug_05_1545,Version4,2021.2.0,239.67997931024254,
red_incongruent,0,k,left,red,-0.6,,,,,,,,,0,5,5,3,,,,,,,169.84346270002425,None,,,,,,,,,,,,170.96551550005097,None,k,1,0.3447148999548517,170.96551550005097,None,,,,,1,001,2022_Aug_05_1545,Version4,2021.2.0,239.67997931024254,
blue_congruent,1,a,left,blue,-0.6,,,,,,,,,1,0,6,0,,,,,,,171.32412940001814,None,,,,,,,,,,,,172.45865800004685,None,a,1,0.3476334000006318,172.45865800004685,None,,,,,1,001,2022_Aug_05_1545,Version4,2021.2.0,239.67997931024254,
red_neutral,0,k,middle,red,0,,,,,,,,,1,1,7,4,,,,,,,172.81737940001767,None,,,,,,,,,,,,173.84354760003043,None,k,1,0.3950960999936797,173.84354760003043,None,,,,,1,001,2022_Aug_05_1545,Version4,2021.2.0,239.67997931024254,
red_neutral,0,k,middle,red,0,,,,,,,,,1,2,8,4,,,,,,,174.25641260005068,None,,,,,,,,,,,,175.34105140005704,None,k,1,0.321647499979008,175.34105140005704,None,,,,,1,001,2022_Aug_05_1545,Version4,2021.2.0,239.67997931024254,
red_neutral,0,k,middle,red,0,,,,,,,,,1,3,9,4,,,,,,,175.67044800001895,None,,,,,,,,,,,,176.96772450004937,None,k,1,0.2951869999524206,176.96772450004937,None,,,,,1,001,2022_Aug_05_1545,Version4,2021.2.0,239.67997931024254,
red_congruent,1,k,right,red,0.6,,,,,,,,,1,4,10,1,,,,,,,177.27627920004306,None,,,,,,,,,,,,178.43583240004955,None,k,1,0.3632592000067234,178.43583240004955,None,,,,,1,001,2022_Aug_05_1545,Version4,2021.2.0,239.67997931024254,
red_congruent,1,k,right,red,0.6,,,,,,,,,1,5,11,1,,,,,,,178.80707100004656,None,,,,,,,,,,,,179.95412800001213,None,k,1,0.2931924000149593,179.95412800001213,None,,,,,1,001,2022_Aug_05_1545,Version4,2021.2.0,239.67997931024254,
blue_neutral,0,a,middle,blue,0,,,,,,,,,2,0,12,5,,,,,,,180.26278850005474,None,,,,,,,,,,,,181.4181711000274,None,a,1,0.30934450001223013,181.4181711000274,None,,,,,1,001,2022_Aug_05_1545,Version4,2021.2.0,239.67997931024254,
blue_incongruent,0,a,right,blue,0.6,,,,,,,,,2,1,13,2,,,,,,,181.73934120003833,None,,,,,,,,,,,,182.8740109000355,None,a,1,0.34987350000301376,182.8740109000355,None,,,,,1,001,2022_Aug_05_1545,Version4,2021.2.0,239.67997931024254,
red_congruent,1,k,right,red,0.6,,,,,,,,,2,2,14,1,,,,,,,183.24099330004537,None,,,,,,,,,,,,184.45056370005477,None,k,1,0.2775578000000678,184.45056370005477,None,,,,,1,001,2022_Aug_05_1545,Version4,2021.2.0,239.67997931024254,
red_neutral,0,k,middle,red,0,,,,,,,,,2,3,15,4,,,,,,,184.74244430003455,None,,,,,,,,,,,,185.9104352000286,None,k,1,0.3536874999990687,185.9104352000286,None,,,,,1,001,2022_Aug_05_1545,Version4,2021.2.0,239.67997931024254,
red_incongruent,0,k,left,red,-0.6,,,,,,,,,2,4,16,3,,,,,,,186.2774938000366,None,,,,,,,,,,,,187.3493385000038,None,k,1,0.3309533999999985,187.3493385000038,None,,,,,1,001,2022_Aug_05_1545,Version4,2021.2.0,239.67997931024254,
blue_incongruent,0,a,right,blue,0.6,,,,,,,,,2,5,17,2,,,,,,,187.69165470002918,None,,,,,,,,,,,,188.77167340001324,None,a,1,0.30080219998490065,188.77167340001324,None,,,,,1,001,2022_Aug_05_1545,Version4,2021.2.0,239.67997931024254,
blue_incongruent,0,a,right,blue,0.6,,,,,,,,,3,0,18,2,,,,,,,189.08463980001397,None,,,,,,,,,,,,190.25254000001587,None,a,1,0.3163205999881029,190.25254000001587,None,,,,,1,001,2022_Aug_05_1545,Version4,2021.2.0,239.67997931024254,
red_neutral,0,k,middle,red,0,,,,,,,,,3,1,19,4,,,,,,,190.58625350001967,None,,,,,,,,,,,,191.6540255,None,k,1,0.3388713000458665,191.6540255,None,,,,,1,001,2022_Aug_05_1545,Version4,2021.2.0,239.67997931024254,
red_incongruent,0,k,left,red,-0.6,,,,,,,,,3,2,20,3,,,,,,,192.0044941000524,None,,,,,,,,,,,,193.05556110001635,None,k,1,0.43353310000384226,193.05556110001635,None,,,,,1,001,2022_Aug_05_1545,Version4,2021.2.0,239.67997931024254,
blue_neutral,0,a,middle,blue,0,,,,,,,,,3,3,21,5,,,,,,,193.50586620002287,None,,,,,,,,,,,,194.64053450000938,None,a,1,0.30475180002395064,194.64053450000938,None,,,,,1,001,2022_Aug_05_1545,Version4,2021.2.0,239.67997931024254,
blue_neutral,0,a,middle,blue,0,,,,,,,,,3,4,22,5,,,,,,,194.95753360004164,None,,,,,,,,,,,,196.04619360005017,None,a,1,0.41147150000324473,196.04619360005017,None,,,,,1,001,2022_Aug_05_1545,Version4,2021.2.0,239.67997931024254,
blue_neutral,0,a,middle,blue,0,,,,,,,,,3,5,23,5,,,,,,,196.47169520001626,None,,,,,,,,,,,,197.60617060004734,None,a,1,0.3475305999745615,197.60617060004734,None,,,,,1,001,2022_Aug_05_1545,Version4,2021.2.0,239.67997931024254,
blue_incongruent,0,a,right,blue,0.6,,,,,,,,,4,0,24,2,,,,,,,197.96490940003423,None,,,,,,,,,,,,199.0786334000295,None,a,1,0.3792700999765657,199.0786334000295,None,,,,,1,001,2022_Aug_05_1545,Version4,2021.2.0,239.67997931024254,
blue_congruent,1,a,left,blue,-0.6,,,,,,,,,4,1,25,0,,,,,,,199.47064340004,None,,,,,,,,,,,,200.4966045000474,None,a,1,0.3374764999607578,200.4966045000474,None,,,,,1,001,2022_Aug_05_1545,Version4,2021.2.0,239.67997931024254,
red_congruent,1,k,right,red,0.6,,,,,,,,,4,2,26,1,,,,,,,200.8511928000371,None,,,,,,,,,,,,201.87306100002024,None,k,1,0.4093655000324361,201.87306100002024,None,,,,,1,001,2022_Aug_05_1545,Version4,2021.2.0,239.67997931024254,
red_neutral,0,k,middle,red,0,,,,,,,,,4,3,27,4,,,,,,,202.29870980000123,None,,,,,,,,,,,,203.48329990002094,None,k,1,0.35918820003280416,203.48329990002094,None,,,,,1,001,2022_Aug_05_1545,Version4,2021.2.0,239.67997931024254,
blue_neutral,0,a,middle,blue,0,,,,,,,,,4,4,28,5,,,,,,,203.8544869000325,None,,,,,,,,,,,,204.89307910000207,None,a,1,0.34978710004361346,204.89307910000207,None,,,,,1,001,2022_Aug_05_1545,Version4,2021.2.0,239.67997931024254,
blue_congruent,1,a,left,blue,-0.6,,,,,,,,,4,5,29,0,,,,,,,205.2559471000568,None,,,,,,,,,,,,206.44889100000728,None,a,1,0.4180073000025004,206.44889100000728,None,,,,,1,001,2022_Aug_05_1545,Version4,2021.2.0,239.67997931024254,
red_incongruent,0,k,left,red,-0.6,,,,,,,,,5,0,30,3,,,,,,,206.87856230000034,None,,,,,,,,,,,,208.0005974000087,None,k,1,0.402526099991519,208.0005974000087,None,,,,,1,001,2022_Aug_05_1545,Version4,2021.2.0,239.67997931024254,
red_neutral,0,k,middle,red,0,,,,,,,,,5,1,31,4,,,,,,,208.41763530002208,None,,,,,,,,,,,,209.58565690001706,None,k,1,0.33766750001814216,209.58565690001706,None,,,,,1,001,2022_Aug_05_1545,Version4,2021.2.0,239.67997931024254,
red_neutral,0,k,middle,red,0,,,,,,,,,5,2,32,4,,,,,,,209.93998400005512,None,,,,,,,,,,,,211.07448960002512,None,k,1,0.3130020999815315,211.07448960002512,None,,,,,1,001,2022_Aug_05_1545,Version4,2021.2.0,239.67997931024254,
blue_neutral,0,a,middle,blue,0,,,,,,,,,5,3,33,5,,,,,,,211.39985180000076,None,,,,,,,,,,,,212.61802740005078,None,a,1,0.3136862999526784,212.61802740005078,None,,,,,1,001,2022_Aug_05_1545,Version4,2021.2.0,239.67997931024254,
blue_incongruent,0,a,right,blue,0.6,,,,,,,,,5,4,34,2,,,,,,,212.9433581000194,None,,,,,,,,,,,,214.06530190003105,None,k,0,0.3386181999812834,214.06530190003105,None,,,,,1,001,2022_Aug_05_1545,Version4,2021.2.0,239.67997931024254,
red_incongruent,0,k,left,red,-0.6,,,,,,,,,5,5,35,3,,,,,,,214.41571520001162,None,,,,,,,,,,,,215.55423620005604,None,k,1,0.3458915000082925,215.55423620005604,None,,,,,1,001,2022_Aug_05_1545,Version4,2021.2.0,239.67997931024254,
blue_congruent,1,a,left,blue,-0.6,,,,,,,,,6,0,36,0,,,,,,,215.912954600004,None,,,,,,,,,,,,216.95168940001167,None,a,1,0.34098680003080517,216.95168940001167,None,,,,,1,001,2022_Aug_05_1545,Version4,2021.2.0,239.67997931024254,
blue_neutral,0,a,middle,blue,0,,,,,,,,,6,1,37,5,,,,,,,217.3103994000121,None,,,,,,,,,,,,218.46175750001566,None,a,1,0.3267815000144765,218.46175750001566,None,,,,,1,001,2022_Aug_05_1545,Version4,2021.2.0,239.67997931024254,
red_incongruent,0,k,left,red,-0.6,,,,,,,,,6,2,38,3,,,,,,,218.8078396000201,None,,,,,,,,,,,,219.93397870002082,None,k,1,0.3187523999949917,219.93397870002082,None,,,,,1,001,2022_Aug_05_1545,Version4,2021.2.0,239.67997931024254,
blue_neutral,0,a,middle,blue,0,,,,,,,,,6,3,39,5,,,,,,,220.2718968000263,None,,,,,,,,,,,,221.30215890001273,None,a,1,0.45508010004414245,221.30215890001273,None,,,,,1,001,2022_Aug_05_1545,Version4,2021.2.0,239.67997931024254,
blue_congruent,1,a,left,blue,-0.6,,,,,,,,,6,4,40,0,,,,,,,221.77334350004094,None,,,,,,,,,,,,222.92065660003573,None,a,1,0.44463230000110343,222.92065660003573,None,,,,,1,001,2022_Aug_05_1545,Version4,2021.2.0,239.67997931024254,
blue_incongruent,0,a,right,blue,0.6,,,,,,,,,6,5,41,2,,,,,,,223.38363410002785,None,,,,,,,,,,,,224.4805505000404,None,a,1,0.4369592999573797,224.4805505000404,None,,,,,1,001,2022_Aug_05_1545,Version4,2021.2.0,239.67997931024254,
blue_incongruent,0,a,right,blue,0.6,,,,,,,,,7,0,42,2,,,,,,,224.93100050004432,None,,,,,,,,,,,,226.06977580004605,None,a,1,0.33592919999500737,226.06977580004605,None,,,,,1,001,2022_Aug_05_1545,Version4,2021.2.0,239.67997931024254,
blue_congruent,1,a,left,blue,-0.6,,,,,,,,,7,1,43,0,,,,,,,226.4158700000262,None,,,,,,,,,,,,227.48794330004603,None,a,1,0.3338895000051707,227.48794330004603,None,,,,,1,001,2022_Aug_05_1545,Version4,2021.2.0,239.67997931024254,
blue_incongruent,0,a,right,blue,0.6,,,,,,,,,7,2,44,2,,,,,,,227.83417760004522,None,,,,,,,,,,,,229.0101814000518,None,a,1,0.37174630002118647,229.0101814000518,None,,,,,1,001,2022_Aug_05_1545,Version4,2021.2.0,239.67997931024254,
red_congruent,1,k,right,red,0.6,,,,,,,,,7,3,45,1,,,,,,,229.39397430000827,None,,,,,,,,,,,,230.57032680005068,None,k,1,0.4198377999709919,230.57032680005068,None,,,,,1,001,2022_Aug_05_1545,Version4,2021.2.0,239.67997931024254,
red_congruent,1,k,right,red,0.6,,,,,,,,,7,4,46,1,,,,,,,231.0082945000031,None,,,,,,,,,,,,232.15532990003703,None,k,1,0.3310838000033982,232.15532990003703,None,,,,,1,001,2022_Aug_05_1545,Version4,2021.2.0,239.67997931024254,
red_congruent,1,k,right,red,0.6,,,,,,,,,7,5,47,1,,,,,,,232.50572300003842,None,,,,,,,,,,,,233.60273830004735,None,k,1,0.363872799964156,233.60273830004735,None,,,,,1,001,2022_Aug_05_1545,Version4,2021.2.0,239.67997931024254,
,,,,,,,,,,,,,,,,,,,,,,,,,,,,,,,,,,,,,,,,,,,,space,2.333048800006509,,,1,001,2022_Aug_05_1545,Version4,2021.2.0,239.67997931024254,
blue_incongruent,0,a,right,blue,0.6,,,,,,,,,,,,,0,0,0,2,,,236.33880380005576,None,,,,,,,,,,,,237.50266530003864,None,a,1,0.38450849999208003,237.50266530003864,None,,,,,1,001,2022_Aug_05_1545,Version4,2021.2.0,239.67997931024254,
red_incongruent,0,k,left,red,-0.6,,,,,,,,,,,,,0,1,1,3,,,237.9032480000169,None,,,,,,,,,,,,239.00426040001912,None,k,1,0.4190733000286855,239.00426040001912,None,,,,,1,001,2022_Aug_05_1545,Version4,2021.2.0,239.67997931024254,
red_neutral,0,k,middle,red,0,,,,,,,,,,,,,0,2,2,4,,,239.44212220003828,None,,,,,,,,,,,,240.63934440002777,None,k,1,0.28019730001688004,240.63934440002777,None,,,,,1,001,2022_Aug_05_1545,Version4,2021.2.0,239.67997931024254,
red_incongruent,0,k,left,red,-0.6,,,,,,,,,,,,,0,3,3,3,,,240.93115800002124,None,,,,,,,,,,,,242.0198174000252,None,k,1,0.3158829999738373,242.0198174000252,None,,,,,1,001,2022_Aug_05_1545,Version4,2021.2.0,239.67997931024254,
blue_congruent,1,a,left,blue,-0.6,,,,,,,,,,,,,0,4,4,0,,,242.3538015000522,None,,,,,,,,,,,,243.43394520005677,None,a,1,0.35014009999576956,243.43394520005677,None,,,,,1,001,2022_Aug_05_1545,Version4,2021.2.0,239.67997931024254,
red_congruent,1,k,right,red,0.6,,,,,,,,,,,,,0,5,5,1,,,243.80106810003053,None,,,,,,,,,,,,245.01897380000446,None,k,1,0.5893663000315428,245.01897380000446,None,,,,,1,001,2022_Aug_05_1545,Version4,2021.2.0,239.67997931024254,
blue_neutral,0,a,middle,blue,0,,,,,,,,,,,,,1,0,6,5,,,245.62382780003827,None,,,,,,,,,,,,246.70826750004198,None,a,1,0.372107999981381,246.70826750004198,None,,,,,1,001,2022_Aug_05_1545,Version4,2021.2.0,239.67997931024254,
blue_congruent,1,a,left,blue,-0.6,,,,,,,,,,,,,1,1,7,0,,,247.0963026000536,None,,,,,,,,,,,,248.15156170004047,None,a,1,0.3771438999683596,248.15156170004047,None,,,,,1,001,2022_Aug_05_1545,Version4,2021.2.0,239.67997931024254,
red_incongruent,0,k,left,red,-0.6,,,,,,,,,,,,,1,2,8,3,,,248.53939410002204,None,,,,,,,,,,,,249.64052830002038,None,k,1,0.3443890999769792,249.64052830002038,None,,,,,1,001,2022_Aug_05_1545,Version4,2021.2.0,239.67997931024254,
red_neutral,0,k,middle,red,0,,,,,,,,,,,,,1,3,9,4,,,249.9991677000071,None,,,,,,,,,,,,251.0504351000418,None,k,1,0.3428423999575898,251.0504351000418,None,,,,,1,001,2022_Aug_05_1545,Version4,2021.2.0,239.67997931024254,
blue_neutral,0,a,middle,blue,0,,,,,,,,,,,,,1,4,10,5,,,251.4089294000296,None,,,,,,,,,,,,252.53119730000617,None,a,1,0.382107800047379,252.53119730000617,None,,,,,1,001,2022_Aug_05_1545,Version4,2021.2.0,239.67997931024254,
blue_incongruent,0,a,right,blue,0.6,,,,,,,,,,,,,1,5,11,2,,,252.92745950003155,None,,,,,,,,,,,,253.9868130000541,None,a,1,0.5427376999869011,253.9868130000541,None,,,,,1,001,2022_Aug_05_1545,Version4,2021.2.0,239.67997931024254,
red_congruent,1,k,right,red,0.6,,,,,,,,,,,,,2,0,12,1,,,254.5457327000331,None,,,,,,,,,,,,255.72601640003268,None,a,0,0.39558700000634417,255.72601640003268,None,,,,,1,001,2022_Aug_05_1545,Version4,2021.2.0,239.67997931024254,
blue_neutral,0,a,middle,blue,0,,,,,,,,,,,,,2,1,13,5,,,256.13902930001495,None,,,,,,,,,,,,257.3028231000062,None,a,1,0.5309938000282273,257.3028231000062,None,,,,,1,001,2022_Aug_05_1545,Version4,2021.2.0,239.67997931024254,
red_incongruent,0,k,left,red,-0.6,,,,,,,,,,,,,2,2,14,3,,,257.84507740003755,None,,,,,,,,,,,,258.86715300002834,None,k,1,0.3669831000152044,258.86715300002834,None,,,,,1,001,2022_Aug_05_1545,Version4,2021.2.0,239.67997931024254,
blue_congruent,1,a,left,blue,-0.6,,,,,,,,,,,,,2,3,15,0,,,259.2507190000033,None,,,,,,,,,,,,260.3519830000005,None,k,0,0.4423873000196181,260.3519830000005,None,,,,,1,001,2022_Aug_05_1545,Version4,2021.2.0,239.67997931024254,
red_incongruent,0,k,left,red,-0.6,,,,,,,,,,,,,2,4,16,3,,,260.8065465000109,None,,,,,,,,,,,,261.97861750004813,None,k,1,0.391875599976629,261.97861750004813,None,,,,,1,001,2022_Aug_05_1545,Version4,2021.2.0,239.67997931024254,
blue_congruent,1,a,left,blue,-0.6,,,,,,,,,,,,,2,5,17,0,,,262.3874018000206,None,,,,,,,,,,,,263.4633902000496,None,a,1,0.33931139996275306,263.4633902000496,None,,,,,1,001,2022_Aug_05_1545,Version4,2021.2.0,239.67997931024254,
red_incongruent,0,k,left,red,-0.6,,,,,,,,,,,,,3,0,18,3,,,263.8181214000215,None,,,,,,,,,,,,264.86072100000456,None,k,1,0.5181225000414997,264.86072100000456,None,,,,,1,001,2022_Aug_05_1545,Version4,2021.2.0,239.67997931024254,
red_neutral,0,k,middle,red,0,,,,,,,,,,,,,3,1,19,4,,,265.38629020005465,None,,,,,,,,,,,,266.44157270004507,None,k,1,0.4014813000103459,266.44157270004507,None,,,,,1,001,2022_Aug_05_1545,Version4,2021.2.0,239.67997931024254,
red_neutral,0,k,middle,red,0,,,,,,,,,,,,,3,2,20,4,,,266.858898400038,None,,,,,,,,,,,,268.06412730005104,None,k,1,0.29133109998656437,268.06412730005104,None,,,,,1,001,2022_Aug_05_1545,Version4,2021.2.0,239.67997931024254,
red_neutral,0,k,middle,red,0,,,,,,,,,,,,,3,3,21,4,,,268.3730226000189,None,,,,,,,,,,,,269.4530701000476,None,k,1,0.38238729996373877,269.4530701000476,None,,,,,1,001,2022_Aug_05_1545,Version4,2021.2.0,239.67997931024254,
blue_neutral,0,a,middle,blue,0,,,,,,,,,,,,,3,4,22,5,,,269.84889750002185,None,,,,,,,,,,,,270.90047770005185,None,a,1,0.3111704999464564,270.90047770005185,None,,,,,1,001,2022_Aug_05_1545,Version4,2021.2.0,239.67997931024254,
red_congruent,1,k,right,red,0.6,,,,,,,,,,,,,3,5,23,1,,,271.2261007000343,None,,,,,,,,,,,,272.3436669000075,None,k,1,0.3164029000326991,272.3436669000075,None,,,,,1,001,2022_Aug_05_1545,Version4,2021.2.0,239.67997931024254,
red_congruent,1,k,right,red,0.6,,,,,,,,,,,,,4,0,24,1,,,272.6733345000539,None,,,,,,,,,,,,273.79957910004305,None,k,1,0.26859870000043884,273.79957910004305,None,,,,,1,001,2022_Aug_05_1545,Version4,2021.2.0,239.67997931024254,
blue_incongruent,0,a,right,blue,0.6,,,,,,,,,,,,,4,1,25,2,,,274.0831640000106,None,,,,,,,,,,,,275.14258650003467,None,a,1,0.45368340000277385,275.14258650003467,None,,,,,1,001,2022_Aug_05_1545,Version4,2021.2.0,239.67997931024254,
blue_incongruent,0,a,right,blue,0.6,,,,,,,,,,,,,4,2,26,2,,,275.60979380004574,None,,,,,,,,,,,,276.69007160002366,None,a,1,0.3463962000096217,276.69007160002366,None,,,,,1,001,2022_Aug_05_1545,Version4,2021.2.0,239.67997931024254,
red_neutral,0,k,middle,red,0,,,,,,,,,,,,,4,3,27,4,,,277.04893640003866,None,,,,,,,,,,,,278.1916634000372,None,k,1,0.381010300014168,278.1916634000372,None,,,,,1,001,2022_Aug_05_1545,Version4,2021.2.0,239.67997931024254,
red_incongruent,0,k,left,red,-0.6,,,,,,,,,,,,,4,4,28,3,,,278.5838648000499,None,,,,,,,,,,,,279.6597545000259,None,k,1,0.5051080000121146,279.6597545000259,None,,,,,1,001,2022_Aug_05_1545,Version4,2021.2.0,239.67997931024254,
red_incongruent,0,k,left,red,-0.6,,,,,,,,,,,,,4,5,29,3,,,280.1771753000212,None,,,,,,,,,,,,281.328323200054,None,k,1,0.38874439999926835,281.328323200054,None,,,,,1,001,2022_Aug_05_1545,Version4,2021.2.0,239.67997931024254,
blue_incongruent,0,a,right,blue,0.6,,,,,,,,,,,,,5,0,30,2,,,281.7287524000276,None,,,,,,,,,,,,282.8090713000274,None,a,1,0.44422549998853356,282.8090713000274,None,,,,,1,001,2022_Aug_05_1545,Version4,2021.2.0,239.67997931024254,
blue_congruent,1,a,left,blue,-0.6,,,,,,,,,,,,,5,1,31,0,,,283.27212280000094,None,,,,,,,,,,,,284.3773888000287,None,a,1,0.38017740001669154,284.3773888000287,None,,,,,1,001,2022_Aug_05_1545,Version4,2021.2.0,239.67997931024254,
blue_congruent,1,a,left,blue,-0.6,,,,,,,,,,,,,5,2,32,0,,,284.7736631000298,None,,,,,,,,,,,,285.93737520003924,None,a,1,0.3325637999805622,285.93737520003924,None,,,,,1,001,2022_Aug_05_1545,Version4,2021.2.0,239.67997931024254,
red_congruent,1,k,right,red,0.6,,,,,,,,,,,,,5,3,33,1,,,286.28775680001127,None,,,,,,,,,,,,287.5141260000528,None,k,1,0.347979599959217,287.5141260000528,None,,,,,1,001,2022_Aug_05_1545,Version4,2021.2.0,239.67997931024254,
blue_neutral,0,a,middle,blue,0,,,,,,,,,,,,,5,4,34,5,,,287.8727488000295,None,,,,,,,,,,,,288.9489065000089,None,a,1,0.3853549000341445,288.9489065000089,None,,,,,1,001,2022_Aug_05_1545,Version4,2021.2.0,239.67997931024254,
blue_incongruent,0,a,right,blue,0.6,,,,,,,,,,,,,5,5,35,2,,,289.3493408000213,None,,,,,,,,,,,,290.37541150004836,None,a,1,0.5031306999735534,290.37541150004836,None,,,,,1,001,2022_Aug_05_1545,Version4,2021.2.0,239.67997931024254,
red_congruent,1,k,right,red,0.6,,,,,,,,,,,,,6,0,36,1,,,290.89269240002614,None,,,,,,,,,,,,291.9144201000454,None,k,1,0.42022619995987043,291.9144201000454,None,,,,,1,001,2022_Aug_05_1545,Version4,2021.2.0,239.67997931024254,
red_congruent,1,k,right,red,0.6,,,,,,,,,,,,,6,1,37,1,,,292.3483450000058,None,,,,,,,,,,,,293.53306220000377,None,k,1,0.3937999000190757,293.53306220000377,None,,,,,1,001,2022_Aug_05_1545,Version4,2021.2.0,239.67997931024254,
blue_incongruent,0,a,right,blue,0.6,,,,,,,,,,,,,6,2,38,2,,,293.94170390005456,None,,,,,,,,,,,,295.0510940000531,None,k,0,0.3718329999828711,295.0510940000531,None,,,,,1,001,2022_Aug_05_1545,Version4,2021.2.0,239.67997931024254,
red_congruent,1,k,right,red,0.6,,,,,,,,,,,,,6,3,39,1,,,295.4348488000105,None,,,,,,,,,,,,296.5319457000005,None,k,1,0.3791667000041343,296.5319457000005,None,,,,,1,001,2022_Aug_05_1545,Version4,2021.2.0,239.67997931024254,
blue_neutral,0,a,middle,blue,0,,,,,,,,,,,,,6,4,40,5,,,296.92390490003163,None,,,,,,,,,,,,298.00027020002017,None,a,1,0.36722130002453923,298.00027020002017,None,,,,,1,001,2022_Aug_05_1545,Version4,2021.2.0,239.67997931024254,
red_neutral,0,k,middle,red,0,,,,,,,,,,,,,6,5,41,4,,,298.3839255000348,None,,,,,,,,,,,,299.6268582000048,None,k,1,0.44491660001222044,299.6268582000048,None,,,,,1,001,2022_Aug_05_1545,Version4,2021.2.0,239.67997931024254,
blue_incongruent,0,a,right,blue,0.6,,,,,,,,,,,,,7,0,42,2,,,300.08152890001656,None,,,,,,,,,,,,301.1244418999995,None,a,1,0.499498900026083,301.1244418999995,None,,,,,1,001,2022_Aug_05_1545,Version4,2021.2.0,239.67997931024254,
blue_congruent,1,a,left,blue,-0.6,,,,,,,,,,,,,7,1,43,0,,,301.63737500004936,None,,,,,,,,,,,,302.6759688000311,None,a,1,0.40415229997597635,302.6759688000311,None,,,,,1,001,2022_Aug_05_1545,Version4,2021.2.0,239.67997931024254,
red_neutral,0,k,middle,red,0,,,,,,,,,,,,,7,2,44,4,,,303.09309450001456,None,,,,,,,,,,,,304.1733808000572,None,k,1,0.3789468000177294,304.1733808000572,None,,,,,1,001,2022_Aug_05_1545,Version4,2021.2.0,239.67997931024254,
blue_neutral,0,a,middle,blue,0,,,,,,,,,,,,,7,3,45,5,,,304.56552150001517,None,,,,,,,,,,,,305.67915600002743,None,k,0,0.34547170001314953,305.67915600002743,None,,,,,1,001,2022_Aug_05_1545,Version4,2021.2.0,239.67997931024254,
blue_congruent,1,a,left,blue,-0.6,,,,,,,,,,,,,7,4,46,0,,,306.03788290004013,None,,,,,,,,,,,,307.12243250000756,None,a,1,0.4461991999996826,307.12243250000756,None,,,,,1,001,2022_Aug_05_1545,Version4,2021.2.0,239.67997931024254,
blue_neutral,0,a,middle,blue,0,,,,,,,,,,,,,7,5,47,5,,,307.58169060002547,None,,,,,,,,,,,,308.81581520003965,None,a,1,0.3691333999740891,308.81581520003965,None,,,,,1,001,2022_Aug_05_1545,Version4,2021.2.0,239.67997931024254,
,,,,,,,,,,,,,,,,,,,,,,,,,,,,,,,,,,,,,,,,,,,,space,4.233428399951663,,,1,001,2022_Aug_05_1545,Version4,2021.2.0,239.67997931024254,
,,,,,,,,,,,,,,,,,,,,,,,,,,,,,,,,,,,,,,,,,,,,,,space,72.66920240002219,1,001,2022_Aug_05_1545,Version4,2021.2.0,239.67997931024254,
