images,congruentcy,corrAns,box_pos,box_color,box_x,pract.thisRepN,pract.thisTrialN,pract.thisN,pract.thisIndex,trials.thisRepN,trials.thisTrialN,trials.thisN,trials.thisIndex,trials_2.thisRepN,trials_2.thisTrialN,trials_2.thisN,trials_2.thisIndex,trials_3.thisRepN,trials_3.thisTrialN,trials_3.thisN,trials_3.thisIndex,key_resp_instr.keys,key_resp_instr.rt,FixCross.started,FixCross.stopped,Box_p.started,Box_p.stopped,key_resp_P.keys,key_resp_P.corr,key_resp_P.rt,key_resp_P.started,key_resp_P.stopped,text_3.started,text_3.stopped,key_resp_2.keys,key_resp_2.rt,Box.started,Box.stopped,key_resp.keys,key_resp.corr,key_resp.rt,key_resp.started,key_resp.stopped,key_resp_3.keys,key_resp_3.rt,key_resp_4.keys,key_resp_4.rt,participant,session,date,expName,psychopyVersion,frameRate,
,,,,,,,,,,,,,,,,,,,,,,space,39.860652399999935,,,,,,,,,,,,,,,,,,,,,,,,,20,001,2022_Oct_20_1807,Version4,2021.2.0,240.88665560116604,
red_congruent,1,k,right,red,0.6,0,0,0,1,,,,,,,,,,,,,,,58.92105070000002,None,60.035177500000145,None,k,1,1.7022945999999592,60.035177500000145,None,,,,,,,,,,,,,,,,20,001,2022_Oct_20_1807,Version4,2021.2.0,240.88665560116604,
red_incongruent,0,k,left,red,-0.6,0,1,1,3,,,,,,,,,,,,,,,62.759212800000114,None,63.90179580000017,None,k,1,0.5800354999998945,63.90179580000017,None,,,,,,,,,,,,,,,,20,001,2022_Oct_20_1807,Version4,2021.2.0,240.88665560116604,
blue_incongruent,0,a,right,blue,0.6,0,2,2,2,,,,,,,,,,,,,,,65.49931149999998,None,66.61306740000009,None,a,1,0.5091878999999153,66.61306740000009,None,,,,,,,,,,,,,,,,20,001,2022_Oct_20_1807,Version4,2021.2.0,240.88665560116604,
blue_neutral,0,a,middle,blue,0,0,3,3,5,,,,,,,,,,,,,,,68.13993790000018,None,69.24919980000004,None,a,1,0.41735400000015943,69.24919980000004,None,,,,,,,,,,,,,,,,20,001,2022_Oct_20_1807,Version4,2021.2.0,240.88665560116604,
red_congruent,1,k,right,red,0.6,0,4,4,1,,,,,,,,,,,,,,,70.68822180000006,None,71.8810860000001,None,k,1,0.8898787000000539,71.8810860000001,None,,,,,,,,,,,,,,,,20,001,2022_Oct_20_1807,Version4,2021.2.0,240.88665560116604,
red_incongruent,0,k,left,red,-0.6,0,5,5,3,,,,,,,,,,,,,,,73.79585220000013,None,74.91348510000012,None,k,1,1.329990399999815,74.91348510000012,None,,,,,,,,,,,,,,,,20,001,2022_Oct_20_1807,Version4,2021.2.0,240.88665560116604,
blue_congruent,1,a,left,blue,-0.6,1,0,6,0,,,,,,,,,,,,,,,77.25797820000003,None,78.27988990000017,None,a,1,0.5238729000000149,78.27988990000017,None,,,,,,,,,,,,,,,,20,001,2022_Oct_20_1807,Version4,2021.2.0,240.88665560116604,
red_neutral,0,k,middle,red,0,1,1,7,4,,,,,,,,,,,,,,,79.8187203,None,81.04518870000015,None,k,1,0.7912601999998969,81.04518870000015,None,,,,,,,,,,,,,,,,20,001,2022_Oct_20_1807,Version4,2021.2.0,240.88665560116604,
red_neutral,0,k,middle,red,0,1,2,8,4,,,,,,,,,,,,,,,82.8555867,None,84.06087109999999,None,k,1,0.5357078999998066,84.06087109999999,None,,,,,,,,,,,,,,,,20,001,2022_Oct_20_1807,Version4,2021.2.0,240.88665560116604,
blue_neutral,0,a,middle,blue,0,1,3,9,5,,,,,,,,,,,,,,,85.61271190000002,None,86.72598500000004,None,a,1,0.5669304000000466,86.72598500000004,None,,,,,,,,,,,,,,,,20,001,2022_Oct_20_1807,Version4,2021.2.0,240.88665560116604,
blue_neutral,0,a,middle,blue,0,1,4,10,5,,,,,,,,,,,,,,,88.3113042,None,89.41643150000004,None,a,1,0.49288160000014614,89.41643150000004,None,,,,,,,,,,,,,,,,20,001,2022_Oct_20_1807,Version4,2021.2.0,240.88665560116604,
red_neutral,0,k,middle,red,0,1,5,11,4,,,,,,,,,,,,,,,90.92627920000018,None,92.10671820000016,None,k,1,0.6989648999999645,92.10671820000016,None,,,,,,,,,,,,,,,,20,001,2022_Oct_20_1807,Version4,2021.2.0,240.88665560116604,
red_incongruent,0,k,left,red,-0.6,2,0,12,3,,,,,,,,,,,,,,,93.82546610000009,None,94.95971930000019,None,k,1,0.598349399999961,94.95971930000019,None,,,,,,,,,,,,,,,,20,001,2022_Oct_20_1807,Version4,2021.2.0,240.88665560116604,
blue_neutral,0,a,middle,blue,0,2,1,13,5,,,,,,,,,,,,,,,96.57839039999999,None,97.74184179999997,None,a,1,0.5285973000000013,97.74184179999997,None,,,,,,,,,,,,,,,,20,001,2022_Oct_20_1807,Version4,2021.2.0,240.88665560116604,
blue_congruent,1,a,left,blue,-0.6,2,2,14,0,,,,,,,,,,,,,,,99.28551850000008,None,100.45304310000006,None,a,1,1.0178499000001011,100.45304310000006,None,,,,,,,,,,,,,,,,20,001,2022_Oct_20_1807,Version4,2021.2.0,240.88665560116604,
red_congruent,1,k,right,red,0.6,2,3,15,1,,,,,,,,,,,,,,,102.48855049999997,None,103.56051939999998,None,k,1,0.8787852000000385,103.56051939999998,None,,,,,,,,,,,,,,,,20,001,2022_Oct_20_1807,Version4,2021.2.0,240.88665560116604,
red_neutral,0,k,middle,red,0,2,4,16,4,,,,,,,,,,,,,,,105.45446420000007,None,106.70168469999999,None,k,1,0.4179612000000361,106.70168469999999,None,,,,,,,,,,,,,,,,20,001,2022_Oct_20_1807,Version4,2021.2.0,240.88665560116604,
blue_incongruent,0,a,right,blue,0.6,2,5,17,2,,,,,,,,,,,,,,,108.14071790000003,None,109.24572039999998,None,a,1,0.4586461999999756,109.24572039999998,None,,,,,,,,,,,,,,,,20,001,2022_Oct_20_1807,Version4,2021.2.0,240.88665560116604,
blue_congruent,1,a,left,blue,-0.6,3,0,18,0,,,,,,,,,,,,,,,110.7264381,None,111.79850099999999,None,a,1,0.4018390000001091,111.79850099999999,None,,,,,,,,,,,,,,,,20,001,2022_Oct_20_1807,Version4,2021.2.0,240.88665560116604,
blue_congruent,1,a,left,blue,-0.6,3,1,19,0,,,,,,,,,,,,,,,113.22075519999999,None,114.35113320000005,None,a,1,0.3935340000000451,114.35113320000005,None,,,,,,,,,,,,,,,,20,001,2022_Oct_20_1807,Version4,2021.2.0,240.88665560116604,
blue_incongruent,0,a,right,blue,0.6,3,2,20,2,,,,,,,,,,,,,,,115.76540820000014,None,116.86637760000008,None,a,1,0.9107159999998657,116.86637760000008,None,,,,,,,,,,,,,,,,20,001,2022_Oct_20_1807,Version4,2021.2.0,240.88665560116604,
red_congruent,1,k,right,red,0.6,3,3,21,1,,,,,,,,,,,,,,,118.79343770000014,None,119.82369590000008,None,k,1,0.7137581000001774,119.82369590000008,None,,,,,,,,,,,,,,,,20,001,2022_Oct_20_1807,Version4,2021.2.0,240.88665560116604,
red_incongruent,0,k,left,red,-0.6,3,4,22,3,,,,,,,,,,,,,,,121.55468029999997,None,122.66419870000004,None,k,1,0.5779703999999128,122.66419870000004,None,,,,,,,,,,,,,,,,20,001,2022_Oct_20_1807,Version4,2021.2.0,240.88665560116604,
blue_incongruent,0,a,right,blue,0.6,3,5,23,2,,,,,,,,,,,,,,,124.26164860000017,None,125.29190390000008,None,a,1,0.47064499999987675,125.29190390000008,None,,,,,,,,,,,,,,,,20,001,2022_Oct_20_1807,Version4,2021.2.0,240.88665560116604,
,,,,,,,,,,,,,,,,,,,,,,,,,,,,,,,,,126.79357920000007,None,space,2.711524499999996,,,,,,,,,,,,20,001,2022_Oct_20_1807,Version4,2021.2.0,240.88665560116604,
red_congruent,1,k,right,red,0.6,,,,,0,0,0,1,,,,,,,,,,,131.51962260000005,None,,,,,,,,,,,,132.62466640000002,None,k,1,0.6745450000000801,132.62466640000002,None,,,,,20,001,2022_Oct_20_1807,Version4,2021.2.0,240.88665560116604,
blue_incongruent,0,a,right,blue,0.6,,,,,0,1,1,2,,,,,,,,,,,133.31328970000004,None,,,,,,,,,,,,134.44367929999999,None,a,1,0.6797701999998935,134.44367929999999,None,,,,,20,001,2022_Oct_20_1807,Version4,2021.2.0,240.88665560116604,
red_congruent,1,k,right,red,0.6,,,,,0,2,2,1,,,,,,,,,,,135.13592740000013,None,,,,,,,,,,,,136.22877570000014,None,k,1,0.5431597000001602,136.22877570000014,None,,,,,20,001,2022_Oct_20_1807,Version4,2021.2.0,240.88665560116604,
blue_incongruent,0,a,right,blue,0.6,,,,,0,3,3,2,,,,,,,,,,,136.78772560000016,None,,,,,,,,,,,,137.89734180000005,None,a,1,0.41851950000000215,137.89734180000005,None,,,,,20,001,2022_Oct_20_1807,Version4,2021.2.0,240.88665560116604,
blue_neutral,0,a,middle,blue,0,,,,,0,4,4,5,,,,,,,,,,,138.33518850000019,None,,,,,,,,,,,,139.39016540000011,None,a,1,0.43790999999987434,139.39016540000011,None,,,,,20,001,2022_Oct_20_1807,Version4,2021.2.0,240.88665560116604,
red_neutral,0,k,middle,red,0,,,,,0,5,5,4,,,,,,,,,,,139.8409987,None,,,,,,,,,,,,140.9877629,None,k,1,0.3365039999998771,140.9877629,None,,,,,20,001,2022_Oct_20_1807,Version4,2021.2.0,240.88665560116604,
red_neutral,0,k,middle,red,0,,,,,1,0,6,4,,,,,,,,,,,141.33807290000004,None,,,,,,,,,,,,142.43507020000015,None,k,1,0.41741769999998724,142.43507020000015,None,,,,,20,001,2022_Oct_20_1807,Version4,2021.2.0,240.88665560116604,
blue_incongruent,0,a,right,blue,0.6,,,,,1,1,7,2,,,,,,,,,,,142.8689151000001,None,,,,,,,,,,,,144.0039213,None,a,1,0.4807785000000422,144.0039213,None,,,,,20,001,2022_Oct_20_1807,Version4,2021.2.0,240.88665560116604,
blue_incongruent,0,a,right,blue,0.6,,,,,1,2,8,2,,,,,,,,,,,144.50392020000004,None,,,,,,,,,,,,145.58006339999997,None,a,1,0.5368481999998949,145.58006339999997,None,,,,,20,001,2022_Oct_20_1807,Version4,2021.2.0,240.88665560116604,
blue_congruent,1,a,left,blue,-0.6,,,,,1,3,9,0,,,,,,,,,,,146.13076250000017,None,,,,,,,,,,,,147.20680820000007,None,a,1,0.39835889999994833,147.20680820000007,None,,,,,20,001,2022_Oct_20_1807,Version4,2021.2.0,240.88665560116604,
red_neutral,0,k,middle,red,0,,,,,1,4,10,4,,,,,,,,,,,147.61977660000002,None,,,,,,,,,,,,148.6958814000002,None,k,1,0.3577706000000944,148.6958814000002,None,,,,,20,001,2022_Oct_20_1807,Version4,2021.2.0,240.88665560116604,
blue_congruent,1,a,left,blue,-0.6,,,,,1,5,11,0,,,,,,,,,,,149.07144860000017,None,,,,,,,,,,,,150.25588190000008,None,a,1,0.365921999999955,150.25588190000008,None,,,,,20,001,2022_Oct_20_1807,Version4,2021.2.0,240.88665560116604,
blue_neutral,0,a,middle,blue,0,,,,,2,0,12,5,,,,,,,,,,,150.63984040000014,None,,,,,,,,,,,,151.72826640000017,None,a,1,0.48551320000001397,151.72826640000017,None,,,,,20,001,2022_Oct_20_1807,Version4,2021.2.0,240.88665560116604,
red_congruent,1,k,right,red,0.6,,,,,2,1,13,1,,,,,,,,,,,152.22880680000003,None,,,,,,,,,,,,153.26740340000015,None,k,1,0.8826490999999805,153.26740340000015,None,,,,,20,001,2022_Oct_20_1807,Version4,2021.2.0,240.88665560116604,
blue_incongruent,0,a,right,blue,0.6,,,,,2,2,14,2,,,,,,,,,,,154.16419330000008,None,,,,,,,,,,,,155.24869350000017,None,a,1,0.7255700999999135,155.24869350000017,None,,,,,20,001,2022_Oct_20_1807,Version4,2021.2.0,240.88665560116604,
red_incongruent,0,k,left,red,-0.6,,,,,2,3,15,3,,,,,,,,,,,155.98695710000015,None,,,,,,,,,,,,157.0130564000001,None,k,1,0.8256456999999955,157.0130564000001,None,,,,,20,001,2022_Oct_20_1807,Version4,2021.2.0,240.88665560116604,
blue_neutral,0,a,middle,blue,0,,,,,2,4,16,5,,,,,,,,,,,157.85590890000003,None,,,,,,,,,,,,158.94841650000012,None,a,1,0.45842210000000705,158.94841650000012,None,,,,,20,001,2022_Oct_20_1807,Version4,2021.2.0,240.88665560116604,
blue_incongruent,0,a,right,blue,0.6,,,,,2,5,17,2,,,,,,,,,,,159.42008710000005,None,,,,,,,,,,,,160.42915790000006,None,a,1,0.7137844999999743,160.42915790000006,None,,,,,20,001,2022_Oct_20_1807,Version4,2021.2.0,240.88665560116604,
red_incongruent,0,k,left,red,-0.6,,,,,3,0,18,3,,,,,,,,,,,161.1551018,None,,,,,,,,,,,,162.34785780000016,None,k,1,0.555321000000049,162.34785780000016,None,,,,,20,001,2022_Oct_20_1807,Version4,2021.2.0,240.88665560116604,
red_incongruent,0,k,left,red,-0.6,,,,,3,1,19,3,,,,,,,,,,,162.91541970000003,None,,,,,,,,,,,,164.06225740000014,None,k,1,0.7051701999998841,164.06225740000014,None,,,,,20,001,2022_Oct_20_1807,Version4,2021.2.0,240.88665560116604,
red_incongruent,0,k,left,red,-0.6,,,,,3,2,20,3,,,,,,,,,,,164.77992480000012,None,,,,,,,,,,,,165.7973551,None,k,1,0.8103768999999375,165.7973551,None,,,,,20,001,2022_Oct_20_1807,Version4,2021.2.0,240.88665560116604,
blue_congruent,1,a,left,blue,-0.6,,,,,3,3,21,0,,,,,,,,,,,166.62341400000014,None,,,,,,,,,,,,167.66599310000015,None,a,1,0.854054700000006,167.66599310000015,None,,,,,20,001,2022_Oct_20_1807,Version4,2021.2.0,240.88665560116604,
red_congruent,1,k,right,red,0.6,,,,,3,4,22,1,,,,,,,,,,,168.5336863,None,,,,,,,,,,,,169.6393819,None,k,1,0.5768375000000106,169.6393819,None,,,,,20,001,2022_Oct_20_1807,Version4,2021.2.0,240.88665560116604,
red_congruent,1,k,right,red,0.6,,,,,3,5,23,1,,,,,,,,,,,170.23143170000003,None,,,,,,,,,,,,171.25311890000012,None,k,1,0.45126760000016475,171.25311890000012,None,,,,,20,001,2022_Oct_20_1807,Version4,2021.2.0,240.88665560116604,
red_neutral,0,k,middle,red,0,,,,,4,0,24,4,,,,,,,,,,,171.71610840000017,None,,,,,,,,,,,,172.88409250000018,None,k,1,0.49252670000009857,172.88409250000018,None,,,,,20,001,2022_Oct_20_1807,Version4,2021.2.0,240.88665560116604,
red_congruent,1,k,right,red,0.6,,,,,4,1,25,1,,,,,,,,,,,173.39289770000005,None,,,,,,,,,,,,174.4523454,None,k,1,0.4444771999999375,174.4523454,None,,,,,20,001,2022_Oct_20_1807,Version4,2021.2.0,240.88665560116604,
blue_congruent,1,a,left,blue,-0.6,,,,,4,2,26,0,,,,,,,,,,,174.9114661000001,None,,,,,,,,,,,,176.04152750000003,None,a,1,0.375521899999967,176.04152750000003,None,,,,,20,001,2022_Oct_20_1807,Version4,2021.2.0,240.88665560116604,
blue_neutral,0,a,middle,blue,0,,,,,4,3,27,5,,,,,,,,,,,176.4339605,None,,,,,,,,,,,,177.51837560000013,None,a,1,0.40317659999982425,177.51837560000013,None,,,,,20,001,2022_Oct_20_1807,Version4,2021.2.0,240.88665560116604,
red_congruent,1,k,right,red,0.6,,,,,4,4,28,1,,,,,,,,,,,177.93541320000008,None,,,,,,,,,,,,179.00331649999998,None,k,1,0.510514700000158,179.00331649999998,None,,,,,20,001,2022_Oct_20_1807,Version4,2021.2.0,240.88665560116604,
blue_incongruent,0,a,right,blue,0.6,,,,,4,5,29,2,,,,,,,,,,,179.5244791,None,,,,,,,,,,,,180.788317,None,a,1,0.4696646999998393,180.788317,None,,,,,20,001,2022_Oct_20_1807,Version4,2021.2.0,240.88665560116604,
red_congruent,1,k,right,red,0.6,,,,,5,0,30,1,,,,,,,,,,,181.27641770000014,None,,,,,,,,,,,,182.35243570000011,None,k,1,0.7216585999999552,182.35243570000011,None,,,,,20,001,2022_Oct_20_1807,Version4,2021.2.0,240.88665560116604,
blue_congruent,1,a,left,blue,-0.6,,,,,5,1,31,0,,,,,,,,,,,183.09074929999997,None,,,,,,,,,,,,184.19600650000007,None,a,1,0.4462897000000794,184.19600650000007,None,,,,,20,001,2022_Oct_20_1807,Version4,2021.2.0,240.88665560116604,
red_neutral,0,k,middle,red,0,,,,,5,2,32,4,,,,,,,,,,,184.65908080000008,None,,,,,,,,,,,,185.86056150000013,None,k,1,0.5901248000000123,185.86056150000013,None,,,,,20,001,2022_Oct_20_1807,Version4,2021.2.0,240.88665560116604,
red_neutral,0,k,middle,red,0,,,,,5,3,33,4,,,,,,,,,,,186.4612387000002,None,,,,,,,,,,,,187.63299580000012,None,k,1,1.233735599999818,187.63299580000012,None,,,,,20,001,2022_Oct_20_1807,Version4,2021.2.0,240.88665560116604,
red_incongruent,0,k,left,red,-0.6,,,,,5,4,34,3,,,,,,,,,,,188.8804864000001,None,,,,,,,,,,,,190.0397084000001,None,k,1,0.6192605999999614,190.0397084000001,None,,,,,20,001,2022_Oct_20_1807,Version4,2021.2.0,240.88665560116604,
blue_neutral,0,a,middle,blue,0,,,,,5,5,35,5,,,,,,,,,,,190.66984960000013,None,,,,,,,,,,,,191.83333770000013,None,a,1,0.7619070000000647,191.83333770000013,None,,,,,20,001,2022_Oct_20_1807,Version4,2021.2.0,240.88665560116604,
red_neutral,0,k,middle,red,0,,,,,6,0,36,4,,,,,,,,,,,192.60929080000005,None,,,,,,,,,,,,193.7060967,None,k,1,0.593358999999964,193.7060967,None,,,,,20,001,2022_Oct_20_1807,Version4,2021.2.0,240.88665560116604,
blue_neutral,0,a,middle,blue,0,,,,,6,1,37,5,,,,,,,,,,,194.3150607,None,,,,,,,,,,,,195.35367480000014,None,a,1,0.48998580000011316,195.35367480000014,None,,,,,20,001,2022_Oct_20_1807,Version4,2021.2.0,240.88665560116604,
red_incongruent,0,k,left,red,-0.6,,,,,6,2,38,3,,,,,,,,,,,195.8586464,None,,,,,,,,,,,,196.98873700000013,None,k,1,1.0712319000001571,196.98873700000013,None,,,,,20,001,2022_Oct_20_1807,Version4,2021.2.0,240.88665560116604,
blue_congruent,1,a,left,blue,-0.6,,,,,6,3,39,0,,,,,,,,,,,198.07327950000013,None,,,,,,,,,,,,199.26614930000005,None,a,1,0.37002849999998944,199.26614930000005,None,,,,,20,001,2022_Oct_20_1807,Version4,2021.2.0,240.88665560116604,
red_incongruent,0,k,left,red,-0.6,,,,,6,4,40,3,,,,,,,,,,,199.6498775,None,,,,,,,,,,,,200.78023870000015,None,k,1,0.6881917000000612,200.78023870000015,None,,,,,20,001,2022_Oct_20_1807,Version4,2021.2.0,240.88665560116604,
blue_congruent,1,a,left,blue,-0.6,,,,,6,5,41,0,,,,,,,,,,,201.48522660000003,None,,,,,,,,,,,,202.53243210000005,None,a,1,0.4641953000000285,202.53243210000005,None,,,,,20,001,2022_Oct_20_1807,Version4,2021.2.0,240.88665560116604,
blue_incongruent,0,a,right,blue,0.6,,,,,7,0,42,2,,,,,,,,,,,203.01626069999998,None,,,,,,,,,,,,204.18395740000005,None,a,1,0.44491519999996854,204.18395740000005,None,,,,,20,001,2022_Oct_20_1807,Version4,2021.2.0,240.88665560116604,
red_neutral,0,k,middle,red,0,,,,,7,1,43,4,,,,,,,,,,,204.64269030000014,None,,,,,,,,,,,,205.6771854000001,None,k,1,0.5920092999999724,205.6771854000001,None,,,,,20,001,2022_Oct_20_1807,Version4,2021.2.0,240.88665560116604,
blue_neutral,0,a,middle,blue,0,,,,,7,2,44,5,,,,,,,,,,,206.28609720000009,None,,,,,,,,,,,,207.3705755000001,None,a,1,0.4347194000001764,207.3705755000001,None,,,,,20,001,2022_Oct_20_1807,Version4,2021.2.0,240.88665560116604,
red_incongruent,0,k,left,red,-0.6,,,,,7,3,45,3,,,,,,,,,,,207.8213561,None,,,,,,,,,,,,208.95982320000007,None,k,1,0.5257145000000492,208.95982320000007,None,,,,,20,001,2022_Oct_20_1807,Version4,2021.2.0,240.88665560116604,
blue_congruent,1,a,left,blue,-0.6,,,,,7,4,46,0,,,,,,,,,,,209.50238630000013,None,,,,,,,,,,,,210.64071850000005,None,a,1,0.46900749999986147,210.64071850000005,None,,,,,20,001,2022_Oct_20_1807,Version4,2021.2.0,240.88665560116604,
blue_neutral,0,a,middle,blue,0,,,,,7,5,47,5,,,,,,,,,,,211.12911270000018,None,,,,,,,,,,,,212.4134521000001,None,a,1,0.3684903000000759,212.4134521000001,None,,,,,20,001,2022_Oct_20_1807,Version4,2021.2.0,240.88665560116604,
,,,,,,,,,,,,,,,,,,,,,,,,,,,,,,,,,,,,,,,,,,,,space,15.106148200000007,,,20,001,2022_Oct_20_1807,Version4,2021.2.0,240.88665560116604,
blue_congruent,1,a,left,blue,-0.6,,,,,,,,,0,0,0,0,,,,,,,227.94654890000015,None,,,,,,,,,,,,229.07691380000006,None,a,1,1.0353904999999486,229.07691380000006,None,,,,,20,001,2022_Oct_20_1807,Version4,2021.2.0,240.88665560116604,
red_neutral,0,k,middle,red,0,,,,,,,,,0,1,1,4,,,,,,,230.12837330000002,None,,,,,,,,,,,,231.1874733000002,None,k,1,0.45303499999999985,231.1874733000002,None,,,,,20,001,2022_Oct_20_1807,Version4,2021.2.0,240.88665560116604,
blue_neutral,0,a,middle,blue,0,,,,,,,,,0,2,2,5,,,,,,,231.65920130000018,None,,,,,,,,,,,,232.88101389999997,None,a,1,0.33570060000010926,232.88101389999997,None,,,,,20,001,2022_Oct_20_1807,Version4,2021.2.0,240.88665560116604,
red_congruent,1,k,right,red,0.6,,,,,,,,,0,3,3,1,,,,,,,233.22731220000014,None,,,,,,,,,,,,234.2824125000002,None,k,1,0.7506676000000425,234.2824125000002,None,,,,,20,001,2022_Oct_20_1807,Version4,2021.2.0,240.88665560116604,
blue_neutral,0,a,middle,blue,0,,,,,,,,,0,4,4,5,,,,,,,235.04574120000007,None,,,,,,,,,,,,236.11352710000006,None,a,1,0.2716416999999183,236.11352710000006,None,,,,,20,001,2022_Oct_20_1807,Version4,2021.2.0,240.88665560116604,
red_congruent,1,k,right,red,0.6,,,,,,,,,0,5,5,1,,,,,,,236.39719250000007,None,,,,,,,,,,,,237.49832620000007,None,k,1,0.7030875999998898,237.49832620000007,None,,,,,20,001,2022_Oct_20_1807,Version4,2021.2.0,240.88665560116604,
red_congruent,1,k,right,red,0.6,,,,,,,,,1,0,6,1,,,,,,,238.21608500000002,None,,,,,,,,,,,,239.3169355,None,k,1,0.5246743000000151,239.3169355,None,,,,,20,001,2022_Oct_20_1807,Version4,2021.2.0,240.88665560116604,
red_incongruent,0,k,left,red,-0.6,,,,,,,,,1,1,7,3,,,,,,,239.85518260000003,None,,,,,,,,,,,,240.88534249999998,None,k,1,0.7089918000001489,240.88534249999998,None,,,,,20,001,2022_Oct_20_1807,Version4,2021.2.0,240.88665560116604,
blue_congruent,1,a,left,blue,-0.6,,,,,,,,,1,2,8,0,,,,,,,241.61103550000007,None,,,,,,,,,,,,242.72053189999997,None,a,1,0.45788549999997485,242.72053189999997,None,,,,,20,001,2022_Oct_20_1807,Version4,2021.2.0,240.88665560116604,
red_incongruent,0,k,left,red,-0.6,,,,,,,,,1,3,9,3,,,,,,,243.1963499000001,None,,,,,,,,,,,,244.28887630000008,None,k,1,0.569406600000093,244.28887630000008,None,,,,,20,001,2022_Oct_20_1807,Version4,2021.2.0,240.88665560116604,
blue_incongruent,0,a,right,blue,0.6,,,,,,,,,1,4,10,2,,,,,,,244.8728205,None,,,,,,,,,,,,245.96564260000014,None,a,1,0.5408874999998261,245.96564260000014,None,,,,,20,001,2022_Oct_20_1807,Version4,2021.2.0,240.88665560116604,
blue_incongruent,0,a,right,blue,0.6,,,,,,,,,1,5,11,2,,,,,,,246.5206885,None,,,,,,,,,,,,247.6925024000002,None,a,1,0.43822039999986373,247.6925024000002,None,,,,,20,001,2022_Oct_20_1807,Version4,2021.2.0,240.88665560116604,
red_neutral,0,k,middle,red,0,,,,,,,,,2,0,12,4,,,,,,,248.14329570000018,None,,,,,,,,,,,,249.3818377,None,k,1,0.5251123000000462,249.3818377,None,,,,,20,001,2022_Oct_20_1807,Version4,2021.2.0,240.88665560116604,
blue_congruent,1,a,left,blue,-0.6,,,,,,,,,2,1,13,0,,,,,,,249.91985840000007,None,,,,,,,,,,,,250.94603500000017,None,a,1,0.4171332999999322,250.94603500000017,None,,,,,20,001,2022_Oct_20_1807,Version4,2021.2.0,240.88665560116604,
red_congruent,1,k,right,red,0.6,,,,,,,,,2,2,14,1,,,,,,,251.37553960000014,None,,,,,,,,,,,,252.43084310000017,None,k,1,0.7089750000000095,252.43084310000017,None,,,,,20,001,2022_Oct_20_1807,Version4,2021.2.0,240.88665560116604,
blue_congruent,1,a,left,blue,-0.6,,,,,,,,,2,3,15,0,,,,,,,253.15689670000006,None,,,,,,,,,,,,254.27028540000015,None,a,1,0.3737636000000748,254.27028540000015,None,,,,,20,001,2022_Oct_20_1807,Version4,2021.2.0,240.88665560116604,
red_neutral,0,k,middle,red,0,,,,,,,,,2,4,16,4,,,,,,,254.66258060000018,None,,,,,,,,,,,,255.87614589999998,None,k,1,0.6717532000000119,255.87614589999998,None,,,,,20,001,2022_Oct_20_1807,Version4,2021.2.0,240.88665560116604,
blue_incongruent,0,a,right,blue,0.6,,,,,,,,,2,5,17,2,,,,,,,256.5646626,None,,,,,,,,,,,,257.6154895000002,None,a,1,0.5886077000000114,257.6154895000002,None,,,,,20,001,2022_Oct_20_1807,Version4,2021.2.0,240.88665560116604,
blue_neutral,0,a,middle,blue,0,,,,,,,,,3,0,18,5,,,,,,,258.2162506000002,None,,,,,,,,,,,,259.28810310000017,None,a,1,0.4522113000000445,259.28810310000017,None,,,,,20,001,2022_Oct_20_1807,Version4,2021.2.0,240.88665560116604,
red_incongruent,0,k,left,red,-0.6,,,,,,,,,3,1,19,3,,,,,,,259.75950260000013,None,,,,,,,,,,,,260.87318430000005,None,k,1,0.547351400000025,260.87318430000005,None,,,,,20,001,2022_Oct_20_1807,Version4,2021.2.0,240.88665560116604,
blue_neutral,0,a,middle,blue,0,,,,,,,,,3,2,20,5,,,,,,,261.43233740000005,None,,,,,,,,,,,,262.4832136,None,k,0,0.66587770000001,262.4832136,None,,,,,20,001,2022_Oct_20_1807,Version4,2021.2.0,240.88665560116604,
blue_neutral,0,a,middle,blue,0,,,,,,,,,3,3,21,5,,,,,,,263.1675385000001,None,,,,,,,,,,,,264.3146223000001,None,k,0,0.5464273999998568,264.3146223000001,None,,,,,20,001,2022_Oct_20_1807,Version4,2021.2.0,240.88665560116604,
blue_incongruent,0,a,right,blue,0.6,,,,,,,,,3,4,22,2,,,,,,,264.87349370000015,None,,,,,,,,,,,,266.10410260000003,None,a,1,0.4931460000000243,266.10410260000003,None,,,,,20,001,2022_Oct_20_1807,Version4,2021.2.0,240.88665560116604,
red_congruent,1,k,right,red,0.6,,,,,,,,,3,5,23,1,,,,,,,266.61253540000007,None,,,,,,,,,,,,267.7345700000001,None,k,1,0.5749279999999999,267.7345700000001,None,,,,,20,001,2022_Oct_20_1807,Version4,2021.2.0,240.88665560116604,
red_neutral,0,k,middle,red,0,,,,,,,,,4,0,24,4,,,,,,,268.3226797,None,,,,,,,,,,,,269.4363783000001,None,k,1,0.9054361999999401,269.4363783000001,None,,,,,20,001,2022_Oct_20_1807,Version4,2021.2.0,240.88665560116604,
blue_congruent,1,a,left,blue,-0.6,,,,,,,,,4,1,25,0,,,,,,,270.3542877,None,,,,,,,,,,,,271.49706920000017,None,a,1,0.46092270000008284,271.49706920000017,None,,,,,20,001,2022_Oct_20_1807,Version4,2021.2.0,240.88665560116604,
blue_incongruent,0,a,right,blue,0.6,,,,,,,,,4,2,26,2,,,,,,,271.97239950000017,None,,,,,,,,,,,,273.0402005000001,None,a,1,0.6540337000001273,273.0402005000001,None,,,,,20,001,2022_Oct_20_1807,Version4,2021.2.0,240.88665560116604,
red_incongruent,0,k,left,red,-0.6,,,,,,,,,4,3,27,3,,,,,,,273.7077379,None,,,,,,,,,,,,274.77538040000013,None,k,1,0.5670560999999452,274.77538040000013,None,,,,,20,001,2022_Oct_20_1807,Version4,2021.2.0,240.88665560116604,
blue_incongruent,0,a,right,blue,0.6,,,,,,,,,4,4,28,2,,,,,,,275.35544649999997,None,,,,,,,,,,,,276.44382140000016,None,a,1,0.49883870000007846,276.44382140000016,None,,,,,20,001,2022_Oct_20_1807,Version4,2021.2.0,240.88665560116604,
red_incongruent,0,k,left,red,-0.6,,,,,,,,,4,5,29,3,,,,,,,276.9571864000002,None,,,,,,,,,,,,278.0621879,None,k,1,0.5846879000000627,278.0621879,None,,,,,20,001,2022_Oct_20_1807,Version4,2021.2.0,240.88665560116604,
blue_neutral,0,a,middle,blue,0,,,,,,,,,5,0,30,5,,,,,,,278.65879710000013,None,,,,,,,,,,,,279.85165900000015,None,a,1,0.5394782999999279,279.85165900000015,None,,,,,20,001,2022_Oct_20_1807,Version4,2021.2.0,240.88665560116604,
blue_congruent,1,a,left,blue,-0.6,,,,,,,,,5,1,31,0,,,,,,,280.40634780000005,None,,,,,,,,,,,,281.5367132000001,None,a,1,0.41464680000012777,281.5367132000001,None,,,,,20,001,2022_Oct_20_1807,Version4,2021.2.0,240.88665560116604,
red_neutral,0,k,middle,red,0,,,,,,,,,5,2,32,4,,,,,,,281.96646310000006,None,,,,,,,,,,,,283.1092135000001,None,k,1,0.6663731999999527,283.1092135000001,None,,,,,20,001,2022_Oct_20_1807,Version4,2021.2.0,240.88665560116604,
blue_incongruent,0,a,right,blue,0.6,,,,,,,,,5,3,33,2,,,,,,,283.78943860000004,None,,,,,,,,,,,,284.96983580000006,None,a,1,0.47798089999992044,284.96983580000006,None,,,,,20,001,2022_Oct_20_1807,Version4,2021.2.0,240.88665560116604,
red_incongruent,0,k,left,red,-0.6,,,,,,,,,5,4,34,3,,,,,,,285.46588040000006,None,,,,,,,,,,,,286.57120640000016,None,k,1,0.5408446000001277,286.57120640000016,None,,,,,20,001,2022_Oct_20_1807,Version4,2021.2.0,240.88665560116604,
blue_neutral,0,a,middle,blue,0,,,,,,,,,5,5,35,5,,,,,,,287.1259652000001,None,,,,,,,,,,,,288.16090150000014,None,a,1,0.5113619999999628,288.16090150000014,None,,,,,20,001,2022_Oct_20_1807,Version4,2021.2.0,240.88665560116604,
blue_congruent,1,a,left,blue,-0.6,,,,,,,,,6,0,36,0,,,,,,,288.6860749,None,,,,,,,,,,,,289.7748202,None,a,1,0.4576325000000452,289.7748202,None,,,,,20,001,2022_Oct_20_1807,Version4,2021.2.0,240.88665560116604,
red_neutral,0,k,middle,red,0,,,,,,,,,6,1,37,4,,,,,,,290.2459317,None,,,,,,,,,,,,291.39298470000017,None,k,1,0.6157233999999789,291.39298470000017,None,,,,,20,001,2022_Oct_20_1807,Version4,2021.2.0,240.88665560116604,
red_neutral,0,k,middle,red,0,,,,,,,,,6,2,38,4,,,,,,,292.01883710000016,None,,,,,,,,,,,,293.0783666,None,k,1,0.4828453999998601,293.0783666,None,,,,,20,001,2022_Oct_20_1807,Version4,2021.2.0,240.88665560116604,
red_incongruent,0,k,left,red,-0.6,,,,,,,,,6,3,39,3,,,,,,,293.5787891,None,,,,,,,,,,,,294.6464151,None,k,1,0.6910653999998431,294.6464151,None,,,,,20,001,2022_Oct_20_1807,Version4,2021.2.0,240.88665560116604,
red_congruent,1,k,right,red,0.6,,,,,,,,,6,4,40,1,,,,,,,295.3557691000001,None,,,,,,,,,,,,296.4778769000002,None,k,1,0.9077952999998615,296.4778769000002,None,,,,,20,001,2022_Oct_20_1807,Version4,2021.2.0,240.88665560116604,
blue_congruent,1,a,left,blue,-0.6,,,,,,,,,6,5,41,0,,,,,,,297.40377780000017,None,,,,,,,,,,,,298.4504409000001,None,a,1,0.45515900000009424,298.4504409000001,None,,,,,20,001,2022_Oct_20_1807,Version4,2021.2.0,240.88665560116604,
blue_neutral,0,a,middle,blue,0,,,,,,,,,7,0,42,5,,,,,,,298.9178276,None,,,,,,,,,,,,300.0274224,None,a,1,0.8544609999999011,300.0274224,None,,,,,20,001,2022_Oct_20_1807,Version4,2021.2.0,240.88665560116604,
blue_incongruent,0,a,right,blue,0.6,,,,,,,,,7,1,43,2,,,,,,,300.8905396,None,,,,,,,,,,,,302.0710354,None,a,1,0.4913473999999951,302.0710354,None,,,,,20,001,2022_Oct_20_1807,Version4,2021.2.0,240.88665560116604,
red_incongruent,0,k,left,red,-0.6,,,,,,,,,7,2,44,3,,,,,,,302.57578460000013,None,,,,,,,,,,,,303.78527280000003,None,k,1,0.5050482999999986,303.78527280000003,None,,,,,20,001,2022_Oct_20_1807,Version4,2021.2.0,240.88665560116604,
red_congruent,1,k,right,red,0.6,,,,,,,,,7,3,45,1,,,,,,,304.30280100000004,None,,,,,,,,,,,,305.34522820000007,None,k,1,1.0813946999999189,305.34522820000007,None,,,,,20,001,2022_Oct_20_1807,Version4,2021.2.0,240.88665560116604,
red_neutral,0,k,middle,red,0,,,,,,,,,7,4,46,4,,,,,,,306.4380774000001,None,,,,,,,,,,,,307.5183876000001,None,a,0,0.28443990000005215,307.5183876000001,None,,,,,20,001,2022_Oct_20_1807,Version4,2021.2.0,240.88665560116604,
red_congruent,1,k,right,red,0.6,,,,,,,,,7,5,47,1,,,,,,,307.81871160000014,None,,,,,,,,,,,,308.86565300000007,None,k,1,1.2974932999998146,308.86565300000007,None,,,,,20,001,2022_Oct_20_1807,Version4,2021.2.0,240.88665560116604,
,,,,,,,,,,,,,,,,,,,,,,,,,,,,,,,,,,,,,,,,,,,,space,5.940027800000053,,,20,001,2022_Oct_20_1807,Version4,2021.2.0,240.88665560116604,
red_neutral,0,k,middle,red,0,,,,,,,,,,,,,0,0,0,4,,,316.15701860000013,None,,,,,,,,,,,,317.2622801,None,k,1,0.7499116999999842,317.2622801,None,,,,,20,001,2022_Oct_20_1807,Version4,2021.2.0,240.88665560116604,
blue_neutral,0,a,middle,blue,0,,,,,,,,,,,,,0,1,1,5,,,318.02952990000017,None,,,,,,,,,,,,319.1348700000001,None,a,1,0.40581360000010136,319.1348700000001,None,,,,,20,001,2022_Oct_20_1807,Version4,2021.2.0,240.88665560116604,
red_congruent,1,k,right,red,0.6,,,,,,,,,,,,,0,2,2,1,,,319.5563746,None,,,,,,,,,,,,320.6659293,None,k,1,0.6909940000000461,320.6659293,None,,,,,20,001,2022_Oct_20_1807,Version4,2021.2.0,240.88665560116604,
blue_neutral,0,a,middle,blue,0,,,,,,,,,,,,,0,3,3,5,,,321.3750997000002,None,,,,,,,,,,,,322.4094603000001,None,a,1,0.347385900000063,322.4094603000001,None,,,,,20,001,2022_Oct_20_1807,Version4,2021.2.0,240.88665560116604,
blue_incongruent,0,a,right,blue,0.6,,,,,,,,,,,,,0,4,4,2,,,322.7681854,None,,,,,,,,,,,,323.8276171,None,a,1,0.6337323000000197,323.8276171,None,,,,,20,001,2022_Oct_20_1807,Version4,2021.2.0,240.88665560116604,
red_neutral,0,k,middle,red,0,,,,,,,,,,,,,0,5,5,4,,,324.47830940000017,None,,,,,,,,,,,,325.58781480000016,None,k,1,0.5534754000000248,325.58781480000016,None,,,,,20,001,2022_Oct_20_1807,Version4,2021.2.0,240.88665560116604,
red_congruent,1,k,right,red,0.6,,,,,,,,,,,,,1,0,6,1,,,326.1548206,None,,,,,,,,,,,,327.21429420000004,None,k,1,0.7592849000000115,327.21429420000004,None,,,,,20,001,2022_Oct_20_1807,Version4,2021.2.0,240.88665560116604,
red_neutral,0,k,middle,red,0,,,,,,,,,,,,,1,1,7,4,,,327.9903686,None,,,,,,,,,,,,329.13735900000006,None,k,1,1.3645142000000305,329.13735900000006,None,,,,,20,001,2022_Oct_20_1807,Version4,2021.2.0,240.88665560116604,
blue_neutral,0,a,middle,blue,0,,,,,,,,,,,,,1,2,8,5,,,330.5138559000002,None,,,,,,,,,,,,331.6272875000002,None,a,1,0.3627850000000308,331.6272875000002,None,,,,,20,001,2022_Oct_20_1807,Version4,2021.2.0,240.88665560116604,
blue_incongruent,0,a,right,blue,0.6,,,,,,,,,,,,,1,3,9,2,,,332.0029410000002,None,,,,,,,,,,,,333.1372127000002,None,a,1,0.6771177000000534,333.1372127000002,None,,,,,20,001,2022_Oct_20_1807,Version4,2021.2.0,240.88665560116604,
blue_congruent,1,a,left,blue,-0.6,,,,,,,,,,,,,1,4,10,0,,,333.8299549000001,None,,,,,,,,,,,,334.85153850000006,None,a,1,0.38698759999988397,334.85153850000006,None,,,,,20,001,2022_Oct_20_1807,Version4,2021.2.0,240.88665560116604,
blue_congruent,1,a,left,blue,-0.6,,,,,,,,,,,,,1,5,11,0,,,335.2519423000001,None,,,,,,,,,,,,336.3239093000002,None,a,1,0.3788282000000436,336.3239093000002,None,,,,,20,001,2022_Oct_20_1807,Version4,2021.2.0,240.88665560116604,
red_neutral,0,k,middle,red,0,,,,,,,,,,,,,2,0,12,4,,,336.7163484,None,,,,,,,,,,,,337.80048290000013,None,k,1,0.41445249999992484,337.80048290000013,None,,,,,20,001,2022_Oct_20_1807,Version4,2021.2.0,240.88665560116604,
blue_congruent,1,a,left,blue,-0.6,,,,,,,,,,,,,2,1,13,0,,,338.2303350000002,None,,,,,,,,,,,,339.4735105,None,a,1,0.661671399999932,339.4735105,None,,,,,20,001,2022_Oct_20_1807,Version4,2021.2.0,240.88665560116604,
red_incongruent,0,k,left,red,-0.6,,,,,,,,,,,,,2,2,14,3,,,340.1489242,None,,,,,,,,,,,,341.19999770000004,None,k,1,0.5916769000000386,341.19999770000004,None,,,,,20,001,2022_Oct_20_1807,Version4,2021.2.0,240.88665560116604,
blue_incongruent,0,a,right,blue,0.6,,,,,,,,,,,,,2,3,15,2,,,341.80893360000005,None,,,,,,,,,,,,342.88087480000013,None,a,1,0.4707688999999391,342.88087480000013,None,,,,,20,001,2022_Oct_20_1807,Version4,2021.2.0,240.88665560116604,
red_congruent,1,k,right,red,0.6,,,,,,,,,,,,,2,4,16,1,,,343.3688856000001,None,,,,,,,,,,,,344.48257230000013,None,k,1,0.7652883999999176,344.48257230000013,None,,,,,20,001,2022_Oct_20_1807,Version4,2021.2.0,240.88665560116604,
red_congruent,1,k,right,red,0.6,,,,,,,,,,,,,2,5,17,1,,,345.2669529,None,,,,,,,,,,,,346.3766012000001,None,k,1,0.5675108999998884,346.3766012000001,None,,,,,20,001,2022_Oct_20_1807,Version4,2021.2.0,240.88665560116604,
blue_incongruent,0,a,right,blue,0.6,,,,,,,,,,,,,3,0,18,2,,,346.96047210000006,None,,,,,,,,,,,,348.04468450000013,None,a,1,0.4596399999998084,348.04468450000013,None,,,,,20,001,2022_Oct_20_1807,Version4,2021.2.0,240.88665560116604,
red_congruent,1,k,right,red,0.6,,,,,,,,,,,,,3,1,19,1,,,348.52063850000013,None,,,,,,,,,,,,349.55467420000014,None,k,1,0.9418995000000905,349.55467420000014,None,,,,,20,001,2022_Oct_20_1807,Version4,2021.2.0,240.88665560116604,
red_incongruent,0,k,left,red,-0.6,,,,,,,,,,,,,3,2,20,3,,,350.51422290000005,None,,,,,,,,,,,,351.6153408,None,k,1,0.8417853999999352,351.6153408,None,,,,,20,001,2022_Oct_20_1807,Version4,2021.2.0,240.88665560116604,
red_congruent,1,k,right,red,0.6,,,,,,,,,,,,,3,3,21,1,,,352.47026870000013,None,,,,,,,,,,,,353.5505713,None,k,1,0.46691310000005615,353.5505713,None,,,,,20,001,2022_Oct_20_1807,Version4,2021.2.0,240.88665560116604,
red_congruent,1,k,right,red,0.6,,,,,,,,,,,,,3,4,22,1,,,354.03434820000007,None,,,,,,,,,,,,355.12746660000016,None,k,1,0.6978337000000465,355.12746660000016,None,,,,,20,001,2022_Oct_20_1807,Version4,2021.2.0,240.88665560116604,
red_incongruent,0,k,left,red,-0.6,,,,,,,,,,,,,3,5,23,3,,,355.8365271,None,,,,,,,,,,,,356.9502438000002,None,k,1,0.5552883000000293,356.9502438000002,None,,,,,20,001,2022_Oct_20_1807,Version4,2021.2.0,240.88665560116604,
blue_congruent,1,a,left,blue,-0.6,,,,,,,,,,,,,4,0,24,0,,,357.51751360000003,None,,,,,,,,,,,,358.5769511000001,None,a,1,0.561105600000019,358.5769511000001,None,,,,,20,001,2022_Oct_20_1807,Version4,2021.2.0,240.88665560116604,
blue_congruent,1,a,left,blue,-0.6,,,,,,,,,,,,,4,1,25,0,,,359.1524446000001,None,,,,,,,,,,,,360.3619034000001,None,a,1,0.416099400000121,360.3619034000001,None,,,,,20,001,2022_Oct_20_1807,Version4,2021.2.0,240.88665560116604,
blue_congruent,1,a,left,blue,-0.6,,,,,,,,,,,,,4,2,26,0,,,360.79164920000017,None,,,,,,,,,,,,361.9303269000002,None,a,1,0.39992340000003423,361.9303269000002,None,,,,,20,001,2022_Oct_20_1807,Version4,2021.2.0,240.88665560116604,
red_incongruent,0,k,left,red,-0.6,,,,,,,,,,,,,4,3,27,3,,,362.34345900000017,None,,,,,,,,,,,,363.4401726000001,None,k,1,0.9222970000000714,363.4401726000001,None,,,,,20,001,2022_Oct_20_1807,Version4,2021.2.0,240.88665560116604,
blue_incongruent,0,a,right,blue,0.6,,,,,,,,,,,,,4,4,28,2,,,364.3748161000001,None,,,,,,,,,,,,365.509043,None,a,1,0.7256681000001208,365.509043,None,,,,,20,001,2022_Oct_20_1807,Version4,2021.2.0,240.88665560116604,
red_incongruent,0,k,left,red,-0.6,,,,,,,,,,,,,4,5,29,3,,,366.2474774,None,,,,,,,,,,,,367.51115470000013,None,k,1,0.6438540000001467,367.51115470000013,None,,,,,20,001,2022_Oct_20_1807,Version4,2021.2.0,240.88665560116604,
blue_neutral,0,a,middle,blue,0,,,,,,,,,,,,,5,0,30,5,,,368.1703675000001,None,,,,,,,,,,,,369.23381310000013,None,a,1,0.7134375000000546,369.23381310000013,None,,,,,20,001,2022_Oct_20_1807,Version4,2021.2.0,240.88665560116604,
blue_neutral,0,a,middle,blue,0,,,,,,,,,,,,,5,1,31,5,,,369.959746,None,,,,,,,,,,,,371.0190344,None,a,1,0.43254049999995914,371.0190344,None,,,,,20,001,2022_Oct_20_1807,Version4,2021.2.0,240.88665560116604,
red_neutral,0,k,middle,red,0,,,,,,,,,,,,,5,2,32,4,,,371.4695131000001,None,,,,,,,,,,,,372.5289775000001,None,k,1,0.5866894999999204,372.5289775000001,None,,,,,20,001,2022_Oct_20_1807,Version4,2021.2.0,240.88665560116604,
red_neutral,0,k,middle,red,0,,,,,,,,,,,,,5,3,33,4,,,373.1298269000001,None,,,,,,,,,,,,374.26832320000017,None,k,1,0.6875751000000037,374.26832320000017,None,,,,,20,001,2022_Oct_20_1807,Version4,2021.2.0,240.88665560116604,
blue_neutral,0,a,middle,blue,0,,,,,,,,,,,,,5,4,34,5,,,374.97350200000005,None,,,,,,,,,,,,376.1497390000002,None,a,1,0.5263712000000851,376.1497390000002,None,,,,,20,001,2022_Oct_20_1807,Version4,2021.2.0,240.88665560116604,
blue_incongruent,0,a,right,blue,0.6,,,,,,,,,,,,,5,5,35,2,,,376.6876989,None,,,,,,,,,,,,377.81822850000003,None,a,1,0.6024499000000105,377.81822850000003,None,,,,,20,001,2022_Oct_20_1807,Version4,2021.2.0,240.88665560116604,
red_incongruent,0,k,left,red,-0.6,,,,,,,,,,,,,6,0,36,3,,,378.43539540000006,None,,,,,,,,,,,,379.5575187000002,None,k,1,0.575109300000122,379.5575187000002,None,,,,,20,001,2022_Oct_20_1807,Version4,2021.2.0,240.88665560116604,
blue_congruent,1,a,left,blue,-0.6,,,,,,,,,,,,,6,1,37,0,,,380.1455337,None,,,,,,,,,,,,381.2468213000002,None,a,1,0.48625990000005004,381.2468213000002,None,,,,,20,001,2022_Oct_20_1807,Version4,2021.2.0,240.88665560116604,
red_congruent,1,k,right,red,0.6,,,,,,,,,,,,,6,2,38,1,,,381.7473291000001,None,,,,,,,,,,,,382.8273723,None,k,1,0.6816696999999294,382.8273723,None,,,,,20,001,2022_Oct_20_1807,Version4,2021.2.0,240.88665560116604,
blue_congruent,1,a,left,blue,-0.6,,,,,,,,,,,,,6,3,39,0,,,383.5199933000001,None,,,,,,,,,,,,384.6209533000001,None,a,1,0.424445999999989,384.6209533000001,None,,,,,20,001,2022_Oct_20_1807,Version4,2021.2.0,240.88665560116604,
blue_incongruent,0,a,right,blue,0.6,,,,,,,,,,,,,6,4,40,2,,,385.0632461,None,,,,,,,,,,,,386.11862870000004,None,a,1,0.6628681999998207,386.11862870000004,None,,,,,20,001,2022_Oct_20_1807,Version4,2021.2.0,240.88665560116604,
red_neutral,0,k,middle,red,0,,,,,,,,,,,,,6,5,41,4,,,386.7942455,None,,,,,,,,,,,,387.8911578,None,k,1,0.4665448999999171,387.8911578,None,,,,,20,001,2022_Oct_20_1807,Version4,2021.2.0,240.88665560116604,
blue_incongruent,0,a,right,blue,0.6,,,,,,,,,,,,,7,0,42,2,,,388.37493489999997,None,,,,,,,,,,,,389.4677644000001,None,a,1,0.4981732999999622,389.4677644000001,None,,,,,20,001,2022_Oct_20_1807,Version4,2021.2.0,240.88665560116604,
red_incongruent,0,k,left,red,-0.6,,,,,,,,,,,,,7,1,43,3,,,389.9810341,None,,,,,,,,,,,,391.21962010000016,None,k,1,0.5865594999997938,391.21962010000016,None,,,,,20,001,2022_Oct_20_1807,Version4,2021.2.0,240.88665560116604,
blue_neutral,0,a,middle,blue,0,,,,,,,,,,,,,7,2,44,5,,,391.82039710000004,None,,,,,,,,,,,,392.91757370000005,None,a,1,0.5047830999999405,392.91757370000005,None,,,,,20,001,2022_Oct_20_1807,Version4,2021.2.0,240.88665560116604,
blue_neutral,0,a,middle,blue,0,,,,,,,,,,,,,7,3,45,5,,,393.4346789000001,None,,,,,,,,,,,,394.6148595000002,None,a,1,0.7757708999999977,394.6148595000002,None,,,,,20,001,2022_Oct_20_1807,Version4,2021.2.0,240.88665560116604,
red_incongruent,0,k,left,red,-0.6,,,,,,,,,,,,,7,4,46,3,,,395.40736979999997,None,,,,,,,,,,,,396.5752672000001,None,k,1,0.6476161999999022,396.5752672000001,None,,,,,20,001,2022_Oct_20_1807,Version4,2021.2.0,240.88665560116604,
red_neutral,0,k,middle,red,0,,,,,,,,,,,,,7,5,47,4,,,397.23454000000015,None,,,,,,,,,,,,398.2773397000001,None,k,1,1.1698502000001554,398.2773397000001,None,,,,,20,001,2022_Oct_20_1807,Version4,2021.2.0,240.88665560116604,
,,,,,,,,,,,,,,,,,,,,,,,,,,,,,,,,,,,,,,,,,,,,space,4.597589799999923,,,20,001,2022_Oct_20_1807,Version4,2021.2.0,240.88665560116604,
,,,,,,,,,,,,,,,,,,,,,,,,,,,,,,,,,,,,,,,,,,,,,,space,6.481761199999937,20,001,2022_Oct_20_1807,Version4,2021.2.0,240.88665560116604,
