images,congruentcy,corrAns,box_pos,box_color,box_x,pract.thisRepN,pract.thisTrialN,pract.thisN,pract.thisIndex,trials.thisRepN,trials.thisTrialN,trials.thisN,trials.thisIndex,trials_2.thisRepN,trials_2.thisTrialN,trials_2.thisN,trials_2.thisIndex,trials_3.thisRepN,trials_3.thisTrialN,trials_3.thisN,trials_3.thisIndex,key_resp_instr.keys,key_resp_instr.rt,FixCross.started,FixCross.stopped,Box_p.started,Box_p.stopped,key_resp_P.keys,key_resp_P.corr,key_resp_P.rt,key_resp_P.started,key_resp_P.stopped,text_3.started,text_3.stopped,key_resp_2.keys,key_resp_2.rt,Box.started,Box.stopped,key_resp.keys,key_resp.corr,key_resp.rt,key_resp.started,key_resp.stopped,key_resp_3.keys,key_resp_3.rt,key_resp_4.keys,key_resp_4.rt,participant,session,date,expName,psychopyVersion,frameRate,
,,,,,,,,,,,,,,,,,,,,,,space,11.070760899999982,,,,,,,,,,,,,,,,,,,,,,,,,22,001,2022_Oct_22_1721,Version4,2021.2.0,239.75353336772062,
blue_incongruent,0,a,right,blue,0.6,0,0,0,2,,,,,,,,,,,,,,,24.512520499999994,None,25.580138000000005,None,a,1,0.5715284000000054,25.580138000000005,None,,,,,,,,,,,,,,,,22,001,2022_Oct_22_1721,Version4,2021.2.0,239.75353336772062,
red_congruent,1,k,right,red,0.6,0,1,1,1,,,,,,,,,,,,,,,27.164608000000015,None,28.2991672,None,k,1,0.3888727000000074,28.2991672,None,,,,,,,,,,,,,,,,22,001,2022_Oct_22_1721,Version4,2021.2.0,239.75353336772062,
red_neutral,0,k,middle,red,0,0,2,2,4,,,,,,,,,,,,,,,29.696601799999996,None,30.764461799999992,None,k,1,0.899933500000003,30.764461799999992,None,,,,,,,,,,,,,,,,22,001,2022_Oct_22_1721,Version4,2021.2.0,239.75353336772062,
blue_incongruent,0,a,right,blue,0.6,0,3,3,2,,,,,,,,,,,,,,,32.68359649999999,None,33.868121599999995,None,a,1,0.5166558999999893,33.868121599999995,None,,,,,,,,,,,,,,,,22,001,2022_Oct_22_1721,Version4,2021.2.0,239.75353336772062,
red_neutral,0,k,middle,red,0,0,4,4,4,,,,,,,,,,,,,,,35.4072438,None,36.50012800000002,None,k,1,0.7010793999999976,36.50012800000002,None,,,,,,,,,,,,,,,,22,001,2022_Oct_22_1721,Version4,2021.2.0,239.75353336772062,
red_congruent,1,k,right,red,0.6,0,5,5,1,,,,,,,,,,,,,,,38.218784,None,39.391037100000005,None,k,1,0.47452439999997864,39.391037100000005,None,,,,,,,,,,,,,,,,22,001,2022_Oct_22_1721,Version4,2021.2.0,239.75353336772062,
red_incongruent,0,k,left,red,-0.6,1,0,6,3,,,,,,,,,,,,,,,40.88835370000001,None,41.94796099999999,None,k,1,0.5979619999999954,41.94796099999999,None,,,,,,,,,,,,,,,,22,001,2022_Oct_22_1721,Version4,2021.2.0,239.75353336772062,
blue_congruent,1,a,left,blue,-0.6,1,1,7,0,,,,,,,,,,,,,,,43.570402,None,44.758840100000015,None,a,1,0.6514588000000003,44.758840100000015,None,,,,,,,,,,,,,,,,22,001,2022_Oct_22_1721,Version4,2021.2.0,239.75353336772062,
blue_incongruent,0,a,right,blue,0.6,1,2,8,2,,,,,,,,,,,,,,,46.431736599999994,None,47.48293480000001,None,a,1,0.6637378000000069,47.48293480000001,None,,,,,,,,,,,,,,,,22,001,2022_Oct_22_1721,Version4,2021.2.0,239.75353336772062,
blue_congruent,1,a,left,blue,-0.6,1,3,9,0,,,,,,,,,,,,,,,49.15935860000002,None,50.2438621,None,a,1,0.40738790000000336,50.2438621,None,,,,,,,,,,,,,,,,22,001,2022_Oct_22_1721,Version4,2021.2.0,239.75353336772062,
red_congruent,1,k,right,red,0.6,1,4,10,1,,,,,,,,,,,,,,,51.67035390000001,None,52.7427098,None,k,1,0.3726451999999938,52.7427098,None,,,,,,,,,,,,,,,,22,001,2022_Oct_22_1721,Version4,2021.2.0,239.75353336772062,
red_incongruent,0,k,left,red,-0.6,1,5,11,3,,,,,,,,,,,,,,,54.139989299999996,None,55.34547170000002,None,k,1,0.3462101000000075,55.34547170000002,None,,,,,,,,,,,,,,,,22,001,2022_Oct_22_1721,Version4,2021.2.0,239.75353336772062,
red_neutral,0,k,middle,red,0,2,0,12,4,,,,,,,,,,,,,,,56.705141499999996,None,57.772671900000006,None,k,1,0.42337940000001595,57.772671900000006,None,,,,,,,,,,,,,,,,22,001,2022_Oct_22_1721,Version4,2021.2.0,239.75353336772062,
blue_neutral,0,a,middle,blue,0,2,1,13,5,,,,,,,,,,,,,,,59.2161868,None,60.2920403,None,a,1,0.44835039999998116,60.2920403,None,,,,,,,,,,,,,,,,22,001,2022_Oct_22_1721,Version4,2021.2.0,239.75353336772062,
red_neutral,0,k,middle,red,0,2,2,14,4,,,,,,,,,,,,,,,61.756421399999994,None,62.7822017,None,k,1,0.3105051000000003,62.7822017,None,,,,,,,,,,,,,,,,22,001,2022_Oct_22_1721,Version4,2021.2.0,239.75353336772062,
blue_congruent,1,a,left,blue,-0.6,2,3,15,0,,,,,,,,,,,,,,,64.11713180000001,None,65.20167899999998,None,a,1,0.3473748000000114,65.20167899999998,None,,,,,,,,,,,,,,,,22,001,2022_Oct_22_1721,Version4,2021.2.0,239.75353336772062,
red_congruent,1,k,right,red,0.6,2,4,16,1,,,,,,,,,,,,,,,66.56118799999999,None,67.6710328,None,k,1,0.2787119999999845,67.6710328,None,,,,,,,,,,,,,,,,22,001,2022_Oct_22_1721,Version4,2021.2.0,239.75353336772062,
blue_neutral,0,a,middle,blue,0,2,5,17,5,,,,,,,,,,,,,,,68.96789320000002,None,70.10688769999999,None,a,1,0.4348471999999788,70.10688769999999,None,,,,,,,,,,,,,,,,22,001,2022_Oct_22_1721,Version4,2021.2.0,239.75353336772062,
red_incongruent,0,k,left,red,-0.6,3,0,18,3,,,,,,,,,,,,,,,71.55423550000003,None,72.65549580000001,None,k,1,0.28660899999999856,72.65549580000001,None,,,,,,,,,,,,,,,,22,001,2022_Oct_22_1721,Version4,2021.2.0,239.75353336772062,
blue_neutral,0,a,middle,blue,0,3,1,19,5,,,,,,,,,,,,,,,73.9610135,None,75.01597380000001,None,a,1,0.4384092000000237,75.01597380000001,None,,,,,,,,,,,,,,,,22,001,2022_Oct_22_1721,Version4,2021.2.0,239.75353336772062,
blue_incongruent,0,a,right,blue,0.6,3,2,20,2,,,,,,,,,,,,,,,76.46751580000003,None,77.61871850000003,None,a,1,0.372027600000024,77.61871850000003,None,,,,,,,,,,,,,,,,22,001,2022_Oct_22_1721,Version4,2021.2.0,239.75353336772062,
blue_neutral,0,a,middle,blue,0,3,3,21,5,,,,,,,,,,,,,,,79.00767220000003,None,80.08800740000001,None,a,1,0.43907960000001367,80.08800740000001,None,,,,,,,,,,,,,,,,22,001,2022_Oct_22_1721,Version4,2021.2.0,239.75353336772062,
blue_congruent,1,a,left,blue,-0.6,3,4,22,0,,,,,,,,,,,,,,,81.5437274,None,82.64915859999999,None,a,1,0.4463258999999766,82.64915859999999,None,,,,,,,,,,,,,,,,22,001,2022_Oct_22_1721,Version4,2021.2.0,239.75353336772062,
red_incongruent,0,k,left,red,-0.6,3,5,23,3,,,,,,,,,,,,,,,84.11728550000001,None,85.21846710000003,None,k,1,0.3973522999999659,85.21846710000003,None,,,,,,,,,,,,,,,,22,001,2022_Oct_22_1721,Version4,2021.2.0,239.75353336772062,
,,,,,,,,,,,,,,,,,,,,,,,,,,,,,,,,,86.6535964,None,space,8.834673699999996,,,,,,,,,,,,22,001,2022_Oct_22_1721,Version4,2021.2.0,239.75353336772062,
red_incongruent,0,k,left,red,-0.6,,,,,0,0,0,3,,,,,,,,,,,97.49024399999999,None,,,,,,,,,,,,98.59542719999999,None,k,1,0.5982133999999633,98.59542719999999,None,,,,,22,001,2022_Oct_22_1721,Version4,2021.2.0,239.75353336772062,
red_neutral,0,k,middle,red,0,,,,,0,1,1,4,,,,,,,,,,,99.21275190000003,None,,,,,,,,,,,,100.38066239999998,None,k,1,0.4132000999999832,100.38066239999998,None,,,,,22,001,2022_Oct_22_1721,Version4,2021.2.0,239.75353336772062,
red_congruent,1,k,right,red,0.6,,,,,0,2,2,1,,,,,,,,,,,100.80616380000001,None,,,,,,,,,,,,101.91951550000002,None,k,1,0.33854179999997314,101.91951550000002,None,,,,,22,001,2022_Oct_22_1721,Version4,2021.2.0,239.75353336772062,
red_neutral,0,k,middle,red,0,,,,,0,3,3,4,,,,,,,,,,,102.27021210000001,None,,,,,,,,,,,,103.30014680000002,None,k,1,0.2941142999999897,103.30014680000002,None,,,,,22,001,2022_Oct_22_1721,Version4,2021.2.0,239.75353336772062,
blue_incongruent,0,a,right,blue,0.6,,,,,0,4,4,2,,,,,,,,,,,103.61334330000003,None,,,,,,,,,,,,104.63908030000002,None,a,1,0.37938969999999017,104.63908030000002,None,,,,,22,001,2022_Oct_22_1721,Version4,2021.2.0,239.75353336772062,
blue_neutral,0,a,middle,blue,0,,,,,0,5,5,5,,,,,,,,,,,105.0270333,None,,,,,,,,,,,,106.22408950000002,None,a,1,0.49893979999995963,106.22408950000002,None,,,,,22,001,2022_Oct_22_1721,Version4,2021.2.0,239.75353336772062,
red_incongruent,0,k,left,red,-0.6,,,,,1,0,6,3,,,,,,,,,,,106.74155320000003,None,,,,,,,,,,,,107.8091684,None,k,1,0.38571139999999104,107.8091684,None,,,,,22,001,2022_Oct_22_1721,Version4,2021.2.0,239.75353336772062,
red_neutral,0,k,middle,red,0,,,,,1,1,7,4,,,,,,,,,,,108.20964110000003,None,,,,,,,,,,,,109.2899227,None,k,1,0.32118639999998777,109.2899227,None,,,,,22,001,2022_Oct_22_1721,Version4,2021.2.0,239.75353336772062,
red_congruent,1,k,right,red,0.6,,,,,1,2,8,1,,,,,,,,,,,109.62357510000001,None,,,,,,,,,,,,110.724796,None,k,1,0.3344736000000239,110.724796,None,,,,,22,001,2022_Oct_22_1721,Version4,2021.2.0,239.75353336772062,
blue_congruent,1,a,left,blue,-0.6,,,,,1,3,9,0,,,,,,,,,,,111.0709631,None,,,,,,,,,,,,112.20125909999999,None,a,1,1.0343135999999618,112.20125909999999,None,,,,,22,001,2022_Oct_22_1721,Version4,2021.2.0,239.75353336772062,
blue_neutral,0,a,middle,blue,0,,,,,1,4,10,5,,,,,,,,,,,113.24821979999999,None,,,,,,,,,,,,114.33276029999999,None,a,1,0.3670107000000371,114.33276029999999,None,,,,,22,001,2022_Oct_22_1721,Version4,2021.2.0,239.75353336772062,
blue_incongruent,0,a,right,blue,0.6,,,,,1,5,11,2,,,,,,,,,,,114.71247860000003,None,,,,,,,,,,,,115.81350230000001,None,a,1,0.430470200000002,115.81350230000001,None,,,,,22,001,2022_Oct_22_1721,Version4,2021.2.0,239.75353336772062,
blue_congruent,1,a,left,blue,-0.6,,,,,2,0,12,0,,,,,,,,,,,116.25578629999998,None,,,,,,,,,,,,117.36924350000001,None,a,1,0.33894300000002886,117.36924350000001,None,,,,,22,001,2022_Oct_22_1721,Version4,2021.2.0,239.75353336772062,
red_congruent,1,k,right,red,0.6,,,,,2,1,13,1,,,,,,,,,,,117.72404989999998,None,,,,,,,,,,,,118.97927669999999,None,k,1,0.3051111999999989,118.97927669999999,None,,,,,22,001,2022_Oct_22_1721,Version4,2021.2.0,239.75353336772062,
red_neutral,0,k,middle,red,0,,,,,2,2,14,4,,,,,,,,,,,119.2965045,None,,,,,,,,,,,,120.4183161,None,k,1,0.30628819999998314,120.4183161,None,,,,,22,001,2022_Oct_22_1721,Version4,2021.2.0,239.75353336772062,
red_neutral,0,k,middle,red,0,,,,,2,3,15,4,,,,,,,,,,,120.73969209999998,None,,,,,,,,,,,,121.85324190000003,None,k,1,0.27154530000001387,121.85324190000003,None,,,,,22,001,2022_Oct_22_1721,Version4,2021.2.0,239.75353336772062,
red_congruent,1,k,right,red,0.6,,,,,2,4,16,1,,,,,,,,,,,122.13711200000003,None,,,,,,,,,,,,123.31306620000001,None,a,0,0.283953600000018,123.31306620000001,None,,,,,22,001,2022_Oct_22_1721,Version4,2021.2.0,239.75353336772062,
blue_neutral,0,a,middle,blue,0,,,,,2,5,17,5,,,,,,,,,,,123.60930010000001,None,,,,,,,,,,,,124.66875310000003,None,a,1,0.6964746000000446,124.66875310000003,None,,,,,22,001,2022_Oct_22_1721,Version4,2021.2.0,239.75353336772062,
blue_congruent,1,a,left,blue,-0.6,,,,,3,0,18,0,,,,,,,,,,,125.37779730000003,None,,,,,,,,,,,,126.50810049999998,None,a,1,0.5216592000000446,126.50810049999998,None,,,,,22,001,2022_Oct_22_1721,Version4,2021.2.0,239.75353336772062,
red_incongruent,0,k,left,red,-0.6,,,,,3,1,19,3,,,,,,,,,,,127.04233100000002,None,,,,,,,,,,,,128.17237229999998,None,k,1,0.6336661000000277,128.17237229999998,None,,,,,22,001,2022_Oct_22_1721,Version4,2021.2.0,239.75353336772062,
blue_neutral,0,a,middle,blue,0,,,,,3,2,20,5,,,,,,,,,,,128.82333530000002,None,,,,,,,,,,,,129.9576152,None,a,1,0.4403090000000134,129.9576152,None,,,,,22,001,2022_Oct_22_1721,Version4,2021.2.0,239.75353336772062,
blue_neutral,0,a,middle,blue,0,,,,,3,3,21,5,,,,,,,,,,,130.4164163,None,,,,,,,,,,,,131.5221197,None,a,1,0.4760552000000189,131.5221197,None,,,,,22,001,2022_Oct_22_1721,Version4,2021.2.0,239.75353336772062,
blue_congruent,1,a,left,blue,-0.6,,,,,3,4,22,0,,,,,,,,,,,132.0142271,None,,,,,,,,,,,,133.106776,None,a,1,0.38781970000002275,133.106776,None,,,,,22,001,2022_Oct_22_1721,Version4,2021.2.0,239.75353336772062,
blue_congruent,1,a,left,blue,-0.6,,,,,3,5,23,0,,,,,,,,,,,133.51166780000003,None,,,,,,,,,,,,134.633699,None,a,1,0.3888680000000022,134.633699,None,,,,,22,001,2022_Oct_22_1721,Version4,2021.2.0,239.75353336772062,
red_congruent,1,k,right,red,0.6,,,,,4,0,24,1,,,,,,,,,,,135.0338523,None,,,,,,,,,,,,136.18951,None,k,1,0.35327350000000024,136.18951,None,,,,,22,001,2022_Oct_22_1721,Version4,2021.2.0,239.75353336772062,
red_neutral,0,k,middle,red,0,,,,,4,1,25,4,,,,,,,,,,,136.5516711,None,,,,,,,,,,,,137.5701245,None,k,1,0.30883360000001403,137.5701245,None,,,,,22,001,2022_Oct_22_1721,Version4,2021.2.0,239.75353336772062,
red_neutral,0,k,middle,red,0,,,,,4,2,26,4,,,,,,,,,,,137.89547389999998,None,,,,,,,,,,,,138.9462928,None,k,1,0.34888869999997496,138.9462928,None,,,,,22,001,2022_Oct_22_1721,Version4,2021.2.0,239.75353336772062,
blue_incongruent,0,a,right,blue,0.6,,,,,4,3,27,2,,,,,,,,,,,139.3094808,None,,,,,,,,,,,,140.40208379999999,None,a,1,0.5172757000000274,140.40208379999999,None,,,,,22,001,2022_Oct_22_1721,Version4,2021.2.0,239.75353336772062,
blue_incongruent,0,a,right,blue,0.6,,,,,4,4,28,2,,,,,,,,,,,140.9362364,None,,,,,,,,,,,,142.0830374,None,a,1,0.38054740000001175,142.0830374,None,,,,,22,001,2022_Oct_22_1721,Version4,2021.2.0,239.75353336772062,
blue_incongruent,0,a,right,blue,0.6,,,,,4,5,29,2,,,,,,,,,,,142.4792174,None,,,,,,,,,,,,143.5553651,None,a,1,0.3884539000000018,143.5553651,None,,,,,22,001,2022_Oct_22_1721,Version4,2021.2.0,239.75353336772062,
red_incongruent,0,k,left,red,-0.6,,,,,5,0,30,3,,,,,,,,,,,143.9599451,None,,,,,,,,,,,,145.04026869999998,None,k,1,0.4157170000000292,145.04026869999998,None,,,,,22,001,2022_Oct_22_1721,Version4,2021.2.0,239.75353336772062,
red_congruent,1,k,right,red,0.6,,,,,5,1,31,1,,,,,,,,,,,145.47409589999998,None,,,,,,,,,,,,146.5628073,None,k,1,0.4293832999999836,146.5628073,None,,,,,22,001,2022_Oct_22_1721,Version4,2021.2.0,239.75353336772062,
blue_incongruent,0,a,right,blue,0.6,,,,,5,2,32,2,,,,,,,,,,,147.0048697,None,,,,,,,,,,,,148.07682259999999,None,a,1,0.4435927000000106,148.07682259999999,None,,,,,22,001,2022_Oct_22_1721,Version4,2021.2.0,239.75353336772062,
red_neutral,0,k,middle,red,0,,,,,5,3,33,4,,,,,,,,,,,148.53577729999998,None,,,,,,,,,,,,149.628568,None,k,1,0.4920796999999766,149.628568,None,,,,,22,001,2022_Oct_22_1721,Version4,2021.2.0,239.75353336772062,
red_congruent,1,k,right,red,0.6,,,,,5,4,34,1,,,,,,,,,,,150.13329740000003,None,,,,,,,,,,,,151.21766970000002,None,k,1,0.4872172000000319,151.21766970000002,None,,,,,22,001,2022_Oct_22_1721,Version4,2021.2.0,239.75353336772062,
blue_incongruent,0,a,right,blue,0.6,,,,,5,5,35,2,,,,,,,,,,,151.7182304,None,,,,,,,,,,,,152.7734718,None,a,1,0.5075899000000277,152.7734718,None,,,,,22,001,2022_Oct_22_1721,Version4,2021.2.0,239.75353336772062,
blue_neutral,0,a,middle,blue,0,,,,,6,0,36,5,,,,,,,,,,,153.2948904,None,,,,,,,,,,,,154.34186889999998,None,a,1,0.48368260000000873,154.34186889999998,None,,,,,22,001,2022_Oct_22_1721,Version4,2021.2.0,239.75353336772062,
red_incongruent,0,k,left,red,-0.6,,,,,6,1,37,3,,,,,,,,,,,154.84265380000002,None,,,,,,,,,,,,155.98522269999998,None,k,1,0.5362749999999892,155.98522269999998,None,,,,,22,001,2022_Oct_22_1721,Version4,2021.2.0,239.75353336772062,
blue_neutral,0,a,middle,blue,0,,,,,6,2,38,5,,,,,,,,,,,156.5316417,None,,,,,,,,,,,,157.666165,None,a,1,0.45556049999999004,157.666165,None,,,,,22,001,2022_Oct_22_1721,Version4,2021.2.0,239.75353336772062,
blue_congruent,1,a,left,blue,-0.6,,,,,6,3,39,0,,,,,,,,,,,158.12921989999998,None,,,,,,,,,,,,159.16777199999999,None,a,1,0.46638980000000174,159.16777199999999,None,,,,,22,001,2022_Oct_22_1721,Version4,2021.2.0,239.75353336772062,
red_incongruent,0,k,left,red,-0.6,,,,,6,4,40,3,,,,,,,,,,,159.64719820000002,None,,,,,,,,,,,,160.857071,None,k,1,0.577112599999964,160.857071,None,,,,,22,001,2022_Oct_22_1721,Version4,2021.2.0,239.75353336772062,
red_congruent,1,k,right,red,0.6,,,,,6,5,41,1,,,,,,,,,,,161.44974270000003,None,,,,,,,,,,,,162.6009349,None,k,1,0.4574686999999926,162.6009349,None,,,,,22,001,2022_Oct_22_1721,Version4,2021.2.0,239.75353336772062,
blue_neutral,0,a,middle,blue,0,,,,,7,0,42,5,,,,,,,,,,,163.0719582,None,,,,,,,,,,,,164.21061340000003,None,a,1,0.5440494999999714,164.21061340000003,None,,,,,22,001,2022_Oct_22_1721,Version4,2021.2.0,239.75353336772062,
red_incongruent,0,k,left,red,-0.6,,,,,7,1,43,3,,,,,,,,,,,164.7698096,None,,,,,,,,,,,,165.9040805,None,k,1,0.5067776999999865,165.9040805,None,,,,,22,001,2022_Oct_22_1721,Version4,2021.2.0,239.75353336772062,
blue_incongruent,0,a,right,blue,0.6,,,,,7,2,44,2,,,,,,,,,,,166.4299275,None,,,,,,,,,,,,167.5475074,None,a,1,0.5915871000000266,167.5475074,None,,,,,22,001,2022_Oct_22_1721,Version4,2021.2.0,239.75353336772062,
red_incongruent,0,k,left,red,-0.6,,,,,7,3,45,3,,,,,,,,,,,168.1524148,None,,,,,,,,,,,,169.3202034,None,k,1,1.0431770000000142,169.3202034,None,,,,,22,001,2022_Oct_22_1721,Version4,2021.2.0,239.75353336772062,
blue_congruent,1,a,left,blue,-0.6,,,,,7,4,46,0,,,,,,,,,,,170.37548189999998,None,,,,,,,,,,,,171.6560107,None,a,1,0.5716521000000512,171.6560107,None,,,,,22,001,2022_Oct_22_1721,Version4,2021.2.0,239.75353336772062,
blue_congruent,1,a,left,blue,-0.6,,,,,7,5,47,0,,,,,,,,,,,172.24446229999998,None,,,,,,,,,,,,173.3286998,None,a,1,0.4191820000000348,173.3286998,None,,,,,22,001,2022_Oct_22_1721,Version4,2021.2.0,239.75353336772062,
,,,,,,,,,,,,,,,,,,,,,,,,,,,,,,,,,,,,,,,,,,,,space,22.543910299999993,,,22,001,2022_Oct_22_1721,Version4,2021.2.0,239.75353336772062,
blue_congruent,1,a,left,blue,-0.6,,,,,,,,,0,0,0,0,,,,,,,196.34060150000002,None,,,,,,,,,,,,197.48344899999998,None,a,1,0.6277418000000239,197.48344899999998,None,,,,,22,001,2022_Oct_22_1721,Version4,2021.2.0,239.75353336772062,
blue_neutral,0,a,middle,blue,0,,,,,,,,,0,1,1,5,,,,,,,198.1299329,None,,,,,,,,,,,,199.20606560000002,None,a,1,0.4173359999999775,199.20606560000002,None,,,,,22,001,2022_Oct_22_1721,Version4,2021.2.0,239.75353336772062,
red_congruent,1,k,right,red,0.6,,,,,,,,,0,2,2,1,,,,,,,199.63994720000002,None,,,,,,,,,,,,200.68265699999998,None,k,1,0.3169321000000309,200.68265699999998,None,,,,,22,001,2022_Oct_22_1721,Version4,2021.2.0,239.75353336772062,
blue_incongruent,0,a,right,blue,0.6,,,,,,,,,0,3,3,2,,,,,,,201.0163247,None,,,,,,,,,,,,202.0632815,None,a,1,0.41656829999999445,202.0632815,None,,,,,22,001,2022_Oct_22_1721,Version4,2021.2.0,239.75353336772062,
red_neutral,0,k,middle,red,0,,,,,,,,,0,4,4,4,,,,,,,202.49311930000002,None,,,,,,,,,,,,203.6108073,None,k,1,0.34121249999998327,203.6108073,None,,,,,22,001,2022_Oct_22_1721,Version4,2021.2.0,239.75353336772062,
blue_neutral,0,a,middle,blue,0,,,,,,,,,0,5,5,5,,,,,,,203.9655162,None,,,,,,,,,,,,204.98304579999999,None,a,1,0.41717110000001867,204.98304579999999,None,,,,,22,001,2022_Oct_22_1721,Version4,2021.2.0,239.75353336772062,
blue_neutral,0,a,middle,blue,0,,,,,,,,,1,0,6,5,,,,,,,205.41294990000003,None,,,,,,,,,,,,206.4804601,None,a,1,0.3679123000000004,206.4804601,None,,,,,22,001,2022_Oct_22_1721,Version4,2021.2.0,239.75353336772062,
red_neutral,0,k,middle,red,0,,,,,,,,,1,1,7,4,,,,,,,206.8600587,None,,,,,,,,,,,,208.098844,None,k,1,0.31778679999996484,208.098844,None,,,,,22,001,2022_Oct_22_1721,Version4,2021.2.0,239.75353336772062,
red_incongruent,0,k,left,red,-0.6,,,,,,,,,1,2,8,3,,,,,,,208.42844570000003,None,,,,,,,,,,,,209.62963069999998,None,k,1,0.5151920000000132,209.62963069999998,None,,,,,22,001,2022_Oct_22_1721,Version4,2021.2.0,239.75353336772062,
red_incongruent,0,k,left,red,-0.6,,,,,,,,,1,3,9,3,,,,,,,210.16363500000003,None,,,,,,,,,,,,211.2813909,None,k,1,0.31964820000001737,211.2813909,None,,,,,22,001,2022_Oct_22_1721,Version4,2021.2.0,239.75353336772062,
blue_incongruent,0,a,right,blue,0.6,,,,,,,,,1,4,10,2,,,,,,,211.6152716,None,,,,,,,,,,,,212.69540550000002,None,a,1,0.4502365000000168,212.69540550000002,None,,,,,22,001,2022_Oct_22_1721,Version4,2021.2.0,239.75353336772062,
red_congruent,1,k,right,red,0.6,,,,,,,,,1,5,11,1,,,,,,,213.15793340000002,None,,,,,,,,,,,,214.28041729999998,None,k,1,0.4250499000000332,214.28041729999998,None,,,,,22,001,2022_Oct_22_1721,Version4,2021.2.0,239.75353336772062,
red_congruent,1,k,right,red,0.6,,,,,,,,,2,0,12,1,,,,,,,214.71837200000002,None,,,,,,,,,,,,215.9154789,None,k,1,0.35824400000001333,215.9154789,None,,,,,22,001,2022_Oct_22_1721,Version4,2021.2.0,239.75353336772062,
blue_neutral,0,a,middle,blue,0,,,,,,,,,2,1,13,5,,,,,,,216.2866925,None,,,,,,,,,,,,217.40037930000003,None,a,1,0.5695391000000427,217.40037930000003,None,,,,,22,001,2022_Oct_22_1721,Version4,2021.2.0,239.75353336772062,
blue_congruent,1,a,left,blue,-0.6,,,,,,,,,2,2,14,0,,,,,,,217.98433459999998,None,,,,,,,,,,,,219.1021772,None,a,1,0.4439548000000286,219.1021772,None,,,,,22,001,2022_Oct_22_1721,Version4,2021.2.0,239.75353336772062,
red_incongruent,0,k,left,red,-0.6,,,,,,,,,2,3,15,3,,,,,,,219.5651609,None,,,,,,,,,,,,220.6455091,None,k,1,0.46082939999996597,220.6455091,None,,,,,22,001,2022_Oct_22_1721,Version4,2021.2.0,239.75353336772062,
blue_congruent,1,a,left,blue,-0.6,,,,,,,,,2,4,16,0,,,,,,,221.1210042,None,,,,,,,,,,,,222.25970370000002,None,k,0,0.4388438000000292,222.25970370000002,None,,,,,22,001,2022_Oct_22_1721,Version4,2021.2.0,239.75353336772062,
blue_congruent,1,a,left,blue,-0.6,,,,,,,,,2,5,17,0,,,,,,,222.71034340000003,None,,,,,,,,,,,,223.90758830000001,None,a,1,0.6632364000000166,223.90758830000001,None,,,,,22,001,2022_Oct_22_1721,Version4,2021.2.0,239.75353336772062,
blue_neutral,0,a,middle,blue,0,,,,,,,,,3,0,18,5,,,,,,,224.58333530000002,None,,,,,,,,,,,,225.6674689,None,a,1,0.42354260000001887,225.6674689,None,,,,,22,001,2022_Oct_22_1721,Version4,2021.2.0,239.75353336772062,
red_congruent,1,k,right,red,0.6,,,,,,,,,3,1,19,1,,,,,,,226.10962379999998,None,,,,,,,,,,,,227.29839410000002,None,k,1,0.4168662000000154,227.29839410000002,None,,,,,22,001,2022_Oct_22_1721,Version4,2021.2.0,239.75353336772062,
blue_neutral,0,a,middle,blue,0,,,,,,,,,3,2,20,5,,,,,,,227.73218060000002,None,,,,,,,,,,,,228.7708034,None,a,1,0.48863399999999046,228.7708034,None,,,,,22,001,2022_Oct_22_1721,Version4,2021.2.0,239.75353336772062,
red_congruent,1,k,right,red,0.6,,,,,,,,,3,3,21,1,,,,,,,229.26720179999998,None,,,,,,,,,,,,230.3307976,None,k,1,0.4168443000000366,230.3307976,None,,,,,22,001,2022_Oct_22_1721,Version4,2021.2.0,239.75353336772062,
red_congruent,1,k,right,red,0.6,,,,,,,,,3,4,22,1,,,,,,,230.76065300000002,None,,,,,,,,,,,,231.8365467,None,k,1,0.4153261000000157,231.8365467,None,,,,,22,001,2022_Oct_22_1721,Version4,2021.2.0,239.75353336772062,
blue_incongruent,0,a,right,blue,0.6,,,,,,,,,3,5,23,2,,,,,,,232.2703139,None,,,,,,,,,,,,233.509148,None,a,1,0.4469342000000438,233.509148,None,,,,,22,001,2022_Oct_22_1721,Version4,2021.2.0,239.75353336772062,
blue_congruent,1,a,left,blue,-0.6,,,,,,,,,4,0,24,0,,,,,,,233.9683221,None,,,,,,,,,,,,235.0649582,None,a,1,0.37133110000002034,235.0649582,None,,,,,22,001,2022_Oct_22_1721,Version4,2021.2.0,239.75353336772062,
red_neutral,0,k,middle,red,0,,,,,,,,,4,1,25,4,,,,,,,235.4528753,None,,,,,,,,,,,,236.5960451,None,k,1,0.3287806999999816,236.5960451,None,,,,,22,001,2022_Oct_22_1721,Version4,2021.2.0,239.75353336772062,
blue_incongruent,0,a,right,blue,0.6,,,,,,,,,4,2,26,2,,,,,,,236.9377855,None,,,,,,,,,,,,238.1682501,None,a,1,0.4525036,238.1682501,None,,,,,22,001,2022_Oct_22_1721,Version4,2021.2.0,239.75353336772062,
red_congruent,1,k,right,red,0.6,,,,,,,,,4,3,27,1,,,,,,,238.63125490000002,None,,,,,,,,,,,,239.78664899999998,None,k,1,0.43459530000001223,239.78664899999998,None,,,,,22,001,2022_Oct_22_1721,Version4,2021.2.0,239.75353336772062,
red_neutral,0,k,middle,red,0,,,,,,,,,4,4,28,4,,,,,,,240.2371409,None,,,,,,,,,,,,241.43006290000002,None,k,1,0.4151099999999701,241.43006290000002,None,,,,,22,001,2022_Oct_22_1721,Version4,2021.2.0,239.75353336772062,
blue_neutral,0,a,middle,blue,0,,,,,,,,,4,5,29,5,,,,,,,241.8641527,None,,,,,,,,,,,,242.99035519999998,None,a,1,0.471039200000007,242.99035519999998,None,,,,,22,001,2022_Oct_22_1721,Version4,2021.2.0,239.75353336772062,
blue_incongruent,0,a,right,blue,0.6,,,,,,,,,5,0,30,2,,,,,,,243.47418639999998,None,,,,,,,,,,,,244.6378796,None,a,1,0.43973980000004076,244.6378796,None,,,,,22,001,2022_Oct_22_1721,Version4,2021.2.0,239.75353336772062,
blue_congruent,1,a,left,blue,-0.6,,,,,,,,,5,1,31,0,,,,,,,245.0966546,None,,,,,,,,,,,,246.2896206,None,a,1,1.1563540999999873,246.2896206,None,,,,,22,001,2022_Oct_22_1721,Version4,2021.2.0,239.75353336772062,
red_neutral,0,k,middle,red,0,,,,,,,,,5,2,32,4,,,,,,,247.4614665,None,,,,,,,,,,,,248.49589369999998,None,k,1,0.5024547000000439,248.49589369999998,None,,,,,22,001,2022_Oct_22_1721,Version4,2021.2.0,239.75353336772062,
blue_incongruent,0,a,right,blue,0.6,,,,,,,,,5,3,33,2,,,,,,,249.01327030000002,None,,,,,,,,,,,,250.1145549,None,a,1,0.5399952000000212,250.1145549,None,,,,,22,001,2022_Oct_22_1721,Version4,2021.2.0,239.75353336772062,
red_congruent,1,k,right,red,0.6,,,,,,,,,5,4,34,1,,,,,,,250.66499460000003,None,,,,,,,,,,,,251.78313090000003,None,k,1,0.4314903000000072,251.78313090000003,None,,,,,22,001,2022_Oct_22_1721,Version4,2021.2.0,239.75353336772062,
blue_incongruent,0,a,right,blue,0.6,,,,,,,,,5,5,35,2,,,,,,,252.23354680000003,None,,,,,,,,,,,,253.35966670000002,None,a,1,0.43114600000001246,253.35966670000002,None,,,,,22,001,2022_Oct_22_1721,Version4,2021.2.0,239.75353336772062,
blue_congruent,1,a,left,blue,-0.6,,,,,,,,,6,0,36,0,,,,,,,253.8015169,None,,,,,,,,,,,,254.8234904,None,a,1,0.46351530000004004,254.8234904,None,,,,,22,001,2022_Oct_22_1721,Version4,2021.2.0,239.75353336772062,
blue_congruent,1,a,left,blue,-0.6,,,,,,,,,6,1,37,0,,,,,,,255.2989375,None,,,,,,,,,,,,256.40852240000004,None,a,1,0.3826889000000051,256.40852240000004,None,,,,,22,001,2022_Oct_22_1721,Version4,2021.2.0,239.75353336772062,
red_incongruent,0,k,left,red,-0.6,,,,,,,,,6,2,38,3,,,,,,,256.8049741,None,,,,,,,,,,,,257.9689078,None,k,1,0.4385414000000196,257.9689078,None,,,,,22,001,2022_Oct_22_1721,Version4,2021.2.0,239.75353336772062,
red_neutral,0,k,middle,red,0,,,,,,,,,6,3,39,4,,,,,,,258.41901989999997,None,,,,,,,,,,,,259.52855420000003,None,k,1,0.503133699999978,259.52855420000003,None,,,,,22,001,2022_Oct_22_1721,Version4,2021.2.0,239.75353336772062,
red_incongruent,0,k,left,red,-0.6,,,,,,,,,6,4,40,3,,,,,,,260.04566250000005,None,,,,,,,,,,,,261.1719075,None,k,1,0.5719662000000199,261.1719075,None,,,,,22,001,2022_Oct_22_1721,Version4,2021.2.0,239.75353336772062,
red_incongruent,0,k,left,red,-0.6,,,,,,,,,6,5,41,3,,,,,,,261.75577869999995,None,,,,,,,,,,,,262.89865310000005,None,k,1,0.3497590000000059,262.89865310000005,None,,,,,22,001,2022_Oct_22_1721,Version4,2021.2.0,239.75353336772062,
blue_neutral,0,a,middle,blue,0,,,,,,,,,7,0,42,5,,,,,,,263.26600399999995,None,,,,,,,,,,,,264.41700690000005,None,a,1,0.3832907999999975,264.41700690000005,None,,,,,22,001,2022_Oct_22_1721,Version4,2021.2.0,239.75353336772062,
red_neutral,0,k,middle,red,0,,,,,,,,,7,1,43,4,,,,,,,264.8131843,None,,,,,,,,,,,,265.91020460000004,None,k,1,0.35430059999998775,265.91020460000004,None,,,,,22,001,2022_Oct_22_1721,Version4,2021.2.0,239.75353336772062,
blue_incongruent,0,a,right,blue,0.6,,,,,,,,,7,2,44,2,,,,,,,266.27318890000004,None,,,,,,,,,,,,267.36171850000005,None,a,1,0.48728790000001254,267.36171850000005,None,,,,,22,001,2022_Oct_22_1721,Version4,2021.2.0,239.75353336772062,
red_incongruent,0,k,left,red,-0.6,,,,,,,,,7,3,45,3,,,,,,,267.8624902,None,,,,,,,,,,,,269.063536,None,k,1,0.38540429999994785,269.063536,None,,,,,22,001,2022_Oct_22_1721,Version4,2021.2.0,239.75353336772062,
red_neutral,0,k,middle,red,0,,,,,,,,,7,4,46,4,,,,,,,269.45991779999997,None,,,,,,,,,,,,270.52364150000005,None,k,1,0.3655360999999857,270.52364150000005,None,,,,,22,001,2022_Oct_22_1721,Version4,2021.2.0,239.75353336772062,
red_incongruent,0,k,left,red,-0.6,,,,,,,,,7,5,47,3,,,,,,,270.9030011,None,,,,,,,,,,,,271.95410590000006,None,k,1,0.46324690000000146,271.95410590000006,None,,,,,22,001,2022_Oct_22_1721,Version4,2021.2.0,239.75353336772062,
,,,,,,,,,,,,,,,,,,,,,,,,,,,,,,,,,,,,,,,,,,,,space,9.016294499999958,,,22,001,2022_Oct_22_1721,Version4,2021.2.0,239.75353336772062,
blue_neutral,0,a,middle,blue,0,,,,,,,,,,,,,0,0,0,5,,,281.48533069999996,None,,,,,,,,,,,,282.59464420000006,None,a,1,0.49615339999996877,282.59464420000006,None,,,,,22,001,2022_Oct_22_1721,Version4,2021.2.0,239.75353336772062,
red_neutral,0,k,middle,red,0,,,,,,,,,,,,,0,1,1,4,,,283.1034426,None,,,,,,,,,,,,284.271352,None,k,1,0.46773790000003146,284.271352,None,,,,,22,001,2022_Oct_22_1721,Version4,2021.2.0,239.75353336772062,
red_congruent,1,k,right,red,0.6,,,,,,,,,,,,,0,2,2,1,,,284.7551766,None,,,,,,,,,,,,285.78127589999997,None,k,1,0.41396420000000944,285.78127589999997,None,,,,,22,001,2022_Oct_22_1721,Version4,2021.2.0,239.75353336772062,
red_congruent,1,k,right,red,0.6,,,,,,,,,,,,,0,3,3,1,,,286.20266890000005,None,,,,,,,,,,,,287.30370949999997,None,k,1,0.3477247999999804,287.30370949999997,None,,,,,22,001,2022_Oct_22_1721,Version4,2021.2.0,239.75353336772062,
red_congruent,1,k,right,red,0.6,,,,,,,,,,,,,0,4,4,1,,,287.6627376,None,,,,,,,,,,,,288.80531570000005,None,k,1,0.42231880000002775,288.80531570000005,None,,,,,22,001,2022_Oct_22_1721,Version4,2021.2.0,239.75353336772062,
blue_congruent,1,a,left,blue,-0.6,,,,,,,,,,,,,0,5,5,0,,,289.23934169999995,None,,,,,,,,,,,,290.36112720000006,None,a,1,0.3227406999999971,290.36112720000006,None,,,,,22,001,2022_Oct_22_1721,Version4,2021.2.0,239.75353336772062,
red_neutral,0,k,middle,red,0,,,,,,,,,,,,,1,0,6,4,,,290.69906530000003,None,,,,,,,,,,,,291.75461099999995,None,k,1,0.4014655000000289,291.75461099999995,None,,,,,22,001,2022_Oct_22_1721,Version4,2021.2.0,239.75353336772062,
blue_congruent,1,a,left,blue,-0.6,,,,,,,,,,,,,1,1,7,0,,,292.17138539999996,None,,,,,,,,,,,,293.3310318,None,a,1,0.3612386000000356,293.3310318,None,,,,,22,001,2022_Oct_22_1721,Version4,2021.2.0,239.75353336772062,
blue_neutral,0,a,middle,blue,0,,,,,,,,,,,,,1,2,8,5,,,293.7022617,None,,,,,,,,,,,,294.82420090000005,None,a,1,0.42057719999996834,294.82420090000005,None,,,,,22,001,2022_Oct_22_1721,Version4,2021.2.0,239.75353336772062,
blue_neutral,0,a,middle,blue,0,,,,,,,,,,,,,1,3,9,5,,,295.2624466,None,,,,,,,,,,,,296.30501760000004,None,a,1,0.3396819000000164,296.30501760000004,None,,,,,22,001,2022_Oct_22_1721,Version4,2021.2.0,239.75353336772062,
blue_congruent,1,a,left,blue,-0.6,,,,,,,,,,,,,1,4,10,0,,,296.6639463,None,,,,,,,,,,,,297.76898389999997,None,a,1,0.4278987000000143,297.76898389999997,None,,,,,22,001,2022_Oct_22_1721,Version4,2021.2.0,239.75353336772062,
blue_neutral,0,a,middle,blue,0,,,,,,,,,,,,,1,5,11,5,,,298.21112500000004,None,,,,,,,,,,,,299.38737260000005,None,a,1,0.35371479999997746,299.38737260000005,None,,,,,22,001,2022_Oct_22_1721,Version4,2021.2.0,239.75353336772062,
blue_incongruent,0,a,right,blue,0.6,,,,,,,,,,,,,2,0,12,2,,,299.7547167,None,,,,,,,,,,,,300.8223127,None,a,1,0.39897980000000643,300.8223127,None,,,,,22,001,2022_Oct_22_1721,Version4,2021.2.0,239.75353336772062,
blue_congruent,1,a,left,blue,-0.6,,,,,,,,,,,,,2,1,13,0,,,301.2393284,None,,,,,,,,,,,,302.3863953,None,k,0,0.3631065000000149,302.3863953,None,,,,,22,001,2022_Oct_22_1721,Version4,2021.2.0,239.75353336772062,
red_neutral,0,k,middle,red,0,,,,,,,,,,,,,2,2,14,4,,,302.76177830000006,None,,,,,,,,,,,,303.8963281,None,k,1,0.3733783999999787,303.8963281,None,,,,,22,001,2022_Oct_22_1721,Version4,2021.2.0,239.75353336772062,
red_neutral,0,k,middle,red,0,,,,,,,,,,,,,2,3,15,4,,,304.2887064,None,,,,,,,,,,,,305.45246099999997,None,k,1,0.4094596000000479,305.45246099999997,None,,,,,22,001,2022_Oct_22_1721,Version4,2021.2.0,239.75353336772062,
blue_incongruent,0,a,right,blue,0.6,,,,,,,,,,,,,2,4,16,2,,,305.8775759,None,,,,,,,,,,,,307.10398010000006,None,a,1,0.38225049999999783,307.10398010000006,None,,,,,22,001,2022_Oct_22_1721,Version4,2021.2.0,239.75353336772062,
red_neutral,0,k,middle,red,0,,,,,,,,,,,,,2,5,17,4,,,307.50042829999995,None,,,,,,,,,,,,308.5221374,None,k,1,0.4285000000000423,308.5221374,None,,,,,22,001,2022_Oct_22_1721,Version4,2021.2.0,239.75353336772062,
red_congruent,1,k,right,red,0.6,,,,,,,,,,,,,3,0,18,1,,,308.96837519999997,None,,,,,,,,,,,,310.06128709999996,None,k,1,0.4012647000000129,310.06128709999996,None,,,,,22,001,2022_Oct_22_1721,Version4,2021.2.0,239.75353336772062,
red_congruent,1,k,right,red,0.6,,,,,,,,,,,,,3,1,19,1,,,310.47829620000005,None,,,,,,,,,,,,311.64620579999996,None,k,1,0.35257570000004534,311.64620579999996,None,,,,,22,001,2022_Oct_22_1721,Version4,2021.2.0,239.75353336772062,
blue_neutral,0,a,middle,blue,0,,,,,,,,,,,,,3,2,20,5,,,312.0135736,None,,,,,,,,,,,,313.08940070000006,None,a,1,0.4055680000000166,313.08940070000006,None,,,,,22,001,2022_Oct_22_1721,Version4,2021.2.0,239.75353336772062,
red_incongruent,0,k,left,red,-0.6,,,,,,,,,,,,,3,3,21,3,,,313.5065327,None,,,,,,,,,,,,314.5659713,None,k,1,0.4171807999999828,314.5659713,None,,,,,22,001,2022_Oct_22_1721,Version4,2021.2.0,239.75353336772062,
blue_congruent,1,a,left,blue,-0.6,,,,,,,,,,,,,3,4,22,0,,,314.9998355,None,,,,,,,,,,,,316.04255250000006,None,a,1,0.5648389999999495,316.04255250000006,None,,,,,22,001,2022_Oct_22_1721,Version4,2021.2.0,239.75353336772062,
blue_incongruent,0,a,right,blue,0.6,,,,,,,,,,,,,3,5,23,2,,,316.621883,None,,,,,,,,,,,,317.71516199999996,None,a,1,0.428765999999996,317.71516199999996,None,,,,,22,001,2022_Oct_22_1721,Version4,2021.2.0,239.75353336772062,
blue_incongruent,0,a,right,blue,0.6,,,,,,,,,,,,,4,0,24,2,,,318.16172159999996,None,,,,,,,,,,,,319.23378190000005,None,a,1,0.34212669999999434,319.23378190000005,None,,,,,22,001,2022_Oct_22_1721,Version4,2021.2.0,239.75353336772062,
red_congruent,1,k,right,red,0.6,,,,,,,,,,,,,4,1,25,1,,,319.5924106,None,,,,,,,,,,,,320.6225362,None,k,1,0.4497363000000405,320.6225362,None,,,,,22,001,2022_Oct_22_1721,Version4,2021.2.0,239.75353336772062,
blue_incongruent,0,a,right,blue,0.6,,,,,,,,,,,,,4,2,26,2,,,321.08973950000006,None,,,,,,,,,,,,322.1409542,None,a,1,0.48354410000001735,322.1409542,None,,,,,22,001,2022_Oct_22_1721,Version4,2021.2.0,239.75353336772062,
red_neutral,0,k,middle,red,0,,,,,,,,,,,,,4,3,27,4,,,322.6413861,None,,,,,,,,,,,,323.68847430000005,None,k,1,0.49596150000002126,323.68847430000005,None,,,,,22,001,2022_Oct_22_1721,Version4,2021.2.0,239.75353336772062,
red_congruent,1,k,right,red,0.6,,,,,,,,,,,,,4,4,28,1,,,324.19718780000005,None,,,,,,,,,,,,325.4320695,None,k,1,0.47258899999997084,325.4320695,None,,,,,22,001,2022_Oct_22_1721,Version4,2021.2.0,239.75353336772062,
red_incongruent,0,k,left,red,-0.6,,,,,,,,,,,,,4,5,29,3,,,325.92409940000005,None,,,,,,,,,,,,326.98331770000004,None,k,1,0.5138421000000335,326.98331770000004,None,,,,,22,001,2022_Oct_22_1721,Version4,2021.2.0,239.75353336772062,
blue_neutral,0,a,middle,blue,0,,,,,,,,,,,,,5,0,30,5,,,327.51333380000005,None,,,,,,,,,,,,328.78145930000005,None,a,1,0.40368599999999333,328.78145930000005,None,,,,,22,001,2022_Oct_22_1721,Version4,2021.2.0,239.75353336772062,
red_neutral,0,k,middle,red,0,,,,,,,,,,,,,5,1,31,4,,,329.19844880000005,None,,,,,,,,,,,,330.23297120000007,None,k,1,0.6325483000000531,330.23297120000007,None,,,,,22,001,2022_Oct_22_1721,Version4,2021.2.0,239.75353336772062,
blue_congruent,1,a,left,blue,-0.6,,,,,,,,,,,,,5,2,32,0,,,330.8834388,None,,,,,,,,,,,,332.0178410000001,None,a,1,0.6797694000000547,332.0178410000001,None,,,,,22,001,2022_Oct_22_1721,Version4,2021.2.0,239.75353336772062,
red_incongruent,0,k,left,red,-0.6,,,,,,,,,,,,,5,3,33,3,,,332.7103509,None,,,,,,,,,,,,333.8865281000001,None,k,1,0.5552834999999732,333.8865281000001,None,,,,,22,001,2022_Oct_22_1721,Version4,2021.2.0,239.75353336772062,
red_congruent,1,k,right,red,0.6,,,,,,,,,,,,,5,4,34,1,,,334.45376580000004,None,,,,,,,,,,,,335.5385206000001,None,k,1,0.45560440000008384,335.5385206000001,None,,,,,22,001,2022_Oct_22_1721,Version4,2021.2.0,239.75353336772062,
red_incongruent,0,k,left,red,-0.6,,,,,,,,,,,,,5,5,35,3,,,336.00986180000007,None,,,,,,,,,,,,337.0735442,None,k,1,0.40072429999997894,337.0735442,None,,,,,22,001,2022_Oct_22_1721,Version4,2021.2.0,239.75353336772062,
blue_incongruent,0,a,right,blue,0.6,,,,,,,,,,,,,6,0,36,2,,,337.4902898,None,,,,,,,,,,,,338.5038876,None,a,1,0.3945833999999877,338.5038876,None,,,,,22,001,2022_Oct_22_1721,Version4,2021.2.0,239.75353336772062,
red_incongruent,0,k,left,red,-0.6,,,,,,,,,,,,,6,1,37,3,,,338.9129240000001,None,,,,,,,,,,,,339.96800540000004,None,a,0,0.42662689999997383,339.96800540000004,None,,,,,22,001,2022_Oct_22_1721,Version4,2021.2.0,239.75353336772062,
red_incongruent,0,k,left,red,-0.6,,,,,,,,,,,,,6,2,38,3,,,340.41032770000004,None,,,,,,,,,,,,341.4570073,None,k,1,0.5462566999999581,341.4570073,None,,,,,22,001,2022_Oct_22_1721,Version4,2021.2.0,239.75353336772062,
blue_neutral,0,a,middle,blue,0,,,,,,,,,,,,,6,3,39,5,,,342.0200983000001,None,,,,,,,,,,,,343.2422279,None,a,1,0.5610732999999755,343.2422279,None,,,,,22,001,2022_Oct_22_1721,Version4,2021.2.0,239.75353336772062,
red_incongruent,0,k,left,red,-0.6,,,,,,,,,,,,,6,4,40,3,,,343.8181066000001,None,,,,,,,,,,,,344.93197680000003,None,k,1,0.5433678000000555,344.93197680000003,None,,,,,22,001,2022_Oct_22_1721,Version4,2021.2.0,239.75353336772062,
red_neutral,0,k,middle,red,0,,,,,,,,,,,,,6,5,41,4,,,345.4907468,None,,,,,,,,,,,,346.5916982,None,k,1,0.4518729000000121,346.5916982,None,,,,,22,001,2022_Oct_22_1721,Version4,2021.2.0,239.75353336772062,
blue_neutral,0,a,middle,blue,0,,,,,,,,,,,,,7,0,42,5,,,347.0588058000001,None,,,,,,,,,,,,348.1641185000001,None,a,1,0.4396439999999302,348.1641185000001,None,,,,,22,001,2022_Oct_22_1721,Version4,2021.2.0,239.75353336772062,
blue_incongruent,0,a,right,blue,0.6,,,,,,,,,,,,,7,1,43,2,,,348.6150079,None,,,,,,,,,,,,349.78706380000006,None,a,1,0.6889549999999645,349.78706380000006,None,,,,,22,001,2022_Oct_22_1721,Version4,2021.2.0,239.75353336772062,
blue_incongruent,0,a,right,blue,0.6,,,,,,,,,,,,,7,2,44,2,,,350.4876286,None,,,,,,,,,,,,351.55938530000003,None,a,1,0.38883880000003046,351.55938530000003,None,,,,,22,001,2022_Oct_22_1721,Version4,2021.2.0,239.75353336772062,
red_incongruent,0,k,left,red,-0.6,,,,,,,,,,,,,7,3,45,3,,,351.95993740000006,None,,,,,,,,,,,,353.04012750000004,None,k,1,0.43630159999997886,353.04012750000004,None,,,,,22,001,2022_Oct_22_1721,Version4,2021.2.0,239.75353336772062,
blue_congruent,1,a,left,blue,-0.6,,,,,,,,,,,,,7,4,46,0,,,353.4906012,None,,,,,,,,,,,,354.6001183000001,None,a,1,0.6605617999999822,354.6001183000001,None,,,,,22,001,2022_Oct_22_1721,Version4,2021.2.0,239.75353336772062,
blue_congruent,1,a,left,blue,-0.6,,,,,,,,,,,,,7,5,47,0,,,355.2800893,None,,,,,,,,,,,,356.36865650000004,None,a,1,0.39623230000006515,356.36865650000004,None,,,,,22,001,2022_Oct_22_1721,Version4,2021.2.0,239.75353336772062,
,,,,,,,,,,,,,,,,,,,,,,,,,,,,,,,,,,,,,,,,,,,,space,1.4711657000000287,,,22,001,2022_Oct_22_1721,Version4,2021.2.0,239.75353336772062,
,,,,,,,,,,,,,,,,,,,,,,,,,,,,,,,,,,,,,,,,,,,,,,space,20.48460250000005,22,001,2022_Oct_22_1721,Version4,2021.2.0,239.75353336772062,
