images,congruentcy,corrAns,box_pos,box_color,box_x,pract.thisRepN,pract.thisTrialN,pract.thisN,pract.thisIndex,trials.thisRepN,trials.thisTrialN,trials.thisN,trials.thisIndex,trials_2.thisRepN,trials_2.thisTrialN,trials_2.thisN,trials_2.thisIndex,trials_3.thisRepN,trials_3.thisTrialN,trials_3.thisN,trials_3.thisIndex,key_resp_instr.keys,key_resp_instr.rt,FixCross.started,FixCross.stopped,Box_p.started,Box_p.stopped,key_resp_P.keys,key_resp_P.corr,key_resp_P.rt,key_resp_P.started,key_resp_P.stopped,text_3.started,text_3.stopped,key_resp_2.keys,key_resp_2.rt,Box.started,Box.stopped,key_resp.keys,key_resp.corr,key_resp.rt,key_resp.started,key_resp.stopped,key_resp_3.keys,key_resp_3.rt,key_resp_4.keys,key_resp_4.rt,participant,session,date,expName,psychopyVersion,frameRate,
,,,,,,,,,,,,,,,,,,,,,,space,35.836859000000004,,,,,,,,,,,,,,,,,,,,,,,,,23,001,2022_Oct_22_1930,Version4,2021.2.0,237.95473149167935,
blue_neutral,0,a,middle,blue,0,0,0,0,5,,,,,,,,,,,,,,,46.582926600000064,None,47.72189100000014,None,a,1,6.532901300000049,47.72189100000014,None,,,,,,,,,,,,,,,,23,001,2022_Oct_22_1930,Version4,2021.2.0,237.95473149167935,
blue_congruent,1,a,left,blue,-0.6,0,1,1,0,,,,,,,,,,,,,,,55.26731269999982,None,56.36830389999977,None,a,1,0.48684680000042135,56.36830389999977,None,,,,,,,,,,,,,,,,23,001,2022_Oct_22_1930,Version4,2021.2.0,237.95473149167935,
red_neutral,0,k,middle,red,0,0,2,2,4,,,,,,,,,,,,,,,57.87006689999998,None,58.92101879999973,None,k,1,0.44651019999946584,58.92101879999973,None,,,,,,,,,,,,,,,,23,001,2022_Oct_22_1930,Version4,2021.2.0,237.95473149167935,
red_neutral,0,k,middle,red,0,0,3,3,4,,,,,,,,,,,,,,,60.3849739999996,None,61.507006300000285,None,k,1,0.4128610999996454,61.507006300000285,None,,,,,,,,,,,,,,,,23,001,2022_Oct_22_1930,Version4,2021.2.0,237.95473149167935,
red_incongruent,0,k,left,red,-0.6,0,4,4,3,,,,,,,,,,,,,,,62.94211799999994,None,64.02666380000028,None,k,1,0.8135347999996156,64.02666380000028,None,,,,,,,,,,,,,,,,23,001,2022_Oct_22_1930,Version4,2021.2.0,237.95473149167935,
blue_neutral,0,a,middle,blue,0,0,5,5,5,,,,,,,,,,,,,,,65.85335049999958,None,67.02962879999995,None,a,1,0.4509247999994841,67.02962879999995,None,,,,,,,,,,,,,,,,23,001,2022_Oct_22_1930,Version4,2021.2.0,237.95473149167935,
red_incongruent,0,k,left,red,-0.6,1,0,6,3,,,,,,,,,,,,,,,68.49775760000011,None,69.60726539999996,None,k,1,0.5296951000000263,69.60726539999996,None,,,,,,,,,,,,,,,,23,001,2022_Oct_22_1930,Version4,2021.2.0,237.95473149167935,
red_incongruent,0,k,left,red,-0.6,1,1,7,3,,,,,,,,,,,,,,,71.15908049999962,None,72.27259690000028,None,k,1,0.5130457999994178,72.27259690000028,None,,,,,,,,,,,,,,,,23,001,2022_Oct_22_1930,Version4,2021.2.0,237.95473149167935,
red_congruent,1,k,right,red,0.6,1,2,8,1,,,,,,,,,,,,,,,73.80365770000026,None,74.83780299999944,None,k,1,0.9879266999996617,74.83780299999944,None,,,,,,,,,,,,,,,,23,001,2022_Oct_22_1930,Version4,2021.2.0,237.95473149167935,
blue_neutral,0,a,middle,blue,0,1,3,9,5,,,,,,,,,,,,,,,76.84033209999961,None,77.87020349999966,None,a,1,0.596198799999911,77.87020349999966,None,,,,,,,,,,,,,,,,23,001,2022_Oct_22_1930,Version4,2021.2.0,237.95473149167935,
red_neutral,0,k,middle,red,0,1,4,10,4,,,,,,,,,,,,,,,79.48477769999954,None,80.62728919999972,None,k,1,0.44711129999996047,80.62728919999972,None,,,,,,,,,,,,,,,,23,001,2022_Oct_22_1930,Version4,2021.2.0,237.95473149167935,
blue_incongruent,0,a,right,blue,0.6,1,5,11,2,,,,,,,,,,,,,,,82.08716949999962,None,83.15911979999964,None,a,1,0.4119960000007268,83.15911979999964,None,,,,,,,,,,,,,,,,23,001,2022_Oct_22_1930,Version4,2021.2.0,237.95473149167935,
blue_congruent,1,a,left,blue,-0.6,2,0,12,0,,,,,,,,,,,,,,,84.58981649999987,None,85.65769509999973,None,a,1,0.5053978999994797,85.65769509999973,None,,,,,,,,,,,,,,,,23,001,2022_Oct_22_1930,Version4,2021.2.0,237.95473149167935,
blue_neutral,0,a,middle,blue,0,2,1,13,5,,,,,,,,,,,,,,,87.1762020999995,None,88.36465109999972,None,a,1,0.3992347000003065,88.36465109999972,None,,,,,,,,,,,,,,,,23,001,2022_Oct_22_1930,Version4,2021.2.0,237.95473149167935,
red_congruent,1,k,right,red,0.6,2,2,14,1,,,,,,,,,,,,,,,89.7832172999997,None,90.8673116,None,k,1,0.43279080000047543,90.8673116,None,,,,,,,,,,,,,,,,23,001,2022_Oct_22_1930,Version4,2021.2.0,237.95473149167935,
blue_congruent,1,a,left,blue,-0.6,2,3,15,0,,,,,,,,,,,,,,,92.31909709999945,None,93.44939919999979,None,a,1,0.3787956000005579,93.44939919999979,None,,,,,,,,,,,,,,,,23,001,2022_Oct_22_1930,Version4,2021.2.0,237.95473149167935,
blue_incongruent,0,a,right,blue,0.6,2,4,16,2,,,,,,,,,,,,,,,94.8423600999995,None,95.95187439999972,None,a,1,0.47664939999958733,95.95187439999972,None,,,,,,,,,,,,,,,,23,001,2022_Oct_22_1930,Version4,2021.2.0,237.95473149167935,
blue_incongruent,0,a,right,blue,0.6,2,5,17,2,,,,,,,,,,,,,,,97.44550429999981,None,98.66724340000019,None,a,1,0.4579508999995596,98.66724340000019,None,,,,,,,,,,,,,,,,23,001,2022_Oct_22_1930,Version4,2021.2.0,237.95473149167935,
red_neutral,0,k,middle,red,0,3,0,18,4,,,,,,,,,,,,,,,100.14405780000016,None,101.30337059999965,None,k,1,0.3818680999993376,101.30337059999965,None,,,,,,,,,,,,,,,,23,001,2022_Oct_22_1930,Version4,2021.2.0,237.95473149167935,
blue_congruent,1,a,left,blue,-0.6,3,1,19,0,,,,,,,,,,,,,,,102.70068699999956,None,103.79352719999952,None,a,1,0.4120367999994414,103.79352719999952,None,,,,,,,,,,,,,,,,23,001,2022_Oct_22_1930,Version4,2021.2.0,237.95473149167935,
blue_incongruent,0,a,right,blue,0.6,3,2,20,2,,,,,,,,,,,,,,,105.22428020000007,None,106.30867190000026,None,a,1,0.48925620000045456,106.30867190000026,None,,,,,,,,,,,,,,,,23,001,2022_Oct_22_1930,Version4,2021.2.0,237.95473149167935,
red_congruent,1,k,right,red,0.6,3,3,21,1,,,,,,,,,,,,,,,107.81895729999997,None,109.04492219999975,None,k,1,0.4333673999999519,109.04492219999975,None,,,,,,,,,,,,,,,,23,001,2022_Oct_22_1930,Version4,2021.2.0,237.95473149167935,
red_congruent,1,k,right,red,0.6,3,4,22,1,,,,,,,,,,,,,,,110.49647099999947,None,111.52255809999951,None,k,1,0.5560529999993378,111.52255809999951,None,,,,,,,,,,,,,,,,23,001,2022_Oct_22_1930,Version4,2021.2.0,237.95473149167935,
red_incongruent,0,k,left,red,-0.6,3,5,23,3,,,,,,,,,,,,,,,113.09955739999987,None,114.23842839999998,None,a,0,0.3045209000001705,114.23842839999998,None,,,,,,,,,,,,,,,,23,001,2022_Oct_22_1930,Version4,2021.2.0,237.95473149167935,
,,,,,,,,,,,,,,,,,,,,,,,,,,,,,,,,,115.56850200000008,None,space,1.7973480000000563,,,,,,,,,,,,23,001,2022_Oct_22_1930,Version4,2021.2.0,237.95473149167935,
blue_neutral,0,a,middle,blue,0,,,,,0,0,0,5,,,,,,,,,,,119.3767969999999,None,,,,,,,,,,,,120.4736954,None,a,1,0.6941563999998834,120.4736954,None,,,,,23,001,2022_Oct_22_1930,Version4,2021.2.0,237.95473149167935,
blue_incongruent,0,a,right,blue,0.6,,,,,0,1,1,2,,,,,,,,,,,121.17871360000026,None,,,,,,,,,,,,122.32174119999945,None,a,1,0.5666424999999435,122.32174119999945,None,,,,,23,001,2022_Oct_22_1930,Version4,2021.2.0,237.95473149167935,
red_congruent,1,k,right,red,0.6,,,,,0,2,2,1,,,,,,,,,,,122.9016160000001,None,,,,,,,,,,,,124.04417149999972,None,k,1,0.48418820000006235,124.04417149999972,None,,,,,23,001,2022_Oct_22_1930,Version4,2021.2.0,237.95473149167935,
blue_incongruent,0,a,right,blue,0.6,,,,,0,3,3,2,,,,,,,,,,,124.54076009999972,None,,,,,,,,,,,,125.60855540000011,None,a,1,0.6962240000002566,125.60855540000011,None,,,,,23,001,2022_Oct_22_1930,Version4,2021.2.0,237.95473149167935,
blue_congruent,1,a,left,blue,-0.6,,,,,0,4,4,0,,,,,,,,,,,126.3215812999997,None,,,,,,,,,,,,127.3935636999995,None,a,1,0.527231899999606,127.3935636999995,None,,,,,23,001,2022_Oct_22_1930,Version4,2021.2.0,237.95473149167935,
red_congruent,1,k,right,red,0.6,,,,,0,5,5,1,,,,,,,,,,,127.93167009999979,None,,,,,,,,,,,,129.07868340000005,None,k,1,0.40230679999967833,129.07868340000005,None,,,,,23,001,2022_Oct_22_1930,Version4,2021.2.0,237.95473149167935,
red_incongruent,0,k,left,red,-0.6,,,,,1,0,6,3,,,,,,,,,,,129.4960615,None,,,,,,,,,,,,130.6469907999999,None,k,1,0.5462135999996462,130.6469907999999,None,,,,,23,001,2022_Oct_22_1930,Version4,2021.2.0,237.95473149167935,
blue_neutral,0,a,middle,blue,0,,,,,1,1,7,5,,,,,,,,,,,131.20592620000025,None,,,,,,,,,,,,132.3529649000002,None,a,1,0.44049400000039896,132.3529649000002,None,,,,,23,001,2022_Oct_22_1930,Version4,2021.2.0,237.95473149167935,
blue_congruent,1,a,left,blue,-0.6,,,,,1,2,8,0,,,,,,,,,,,132.80762890000005,None,,,,,,,,,,,,133.95883669999967,None,a,1,0.642848800000138,133.95883669999967,None,,,,,23,001,2022_Oct_22_1930,Version4,2021.2.0,237.95473149167935,
blue_incongruent,0,a,right,blue,0.6,,,,,1,3,9,2,,,,,,,,,,,134.61788239999987,None,,,,,,,,,,,,135.66066219999993,None,a,1,0.5972185999999056,135.66066219999993,None,,,,,23,001,2022_Oct_22_1930,Version4,2021.2.0,237.95473149167935,
red_neutral,0,k,middle,red,0,,,,,1,4,10,4,,,,,,,,,,,136.26994659999946,None,,,,,,,,,,,,137.37091119999968,None,k,1,0.4231952000000092,137.37091119999968,None,,,,,23,001,2022_Oct_22_1930,Version4,2021.2.0,237.95473149167935,
red_incongruent,0,k,left,red,-0.6,,,,,1,5,11,3,,,,,,,,,,,137.81312979999984,None,,,,,,,,,,,,138.88488619999953,None,k,1,0.5337385000002541,138.88488619999953,None,,,,,23,001,2022_Oct_22_1930,Version4,2021.2.0,237.95473149167935,
red_neutral,0,k,middle,red,0,,,,,2,0,12,4,,,,,,,,,,,139.43575809999948,None,,,,,,,,,,,,140.6200702999995,None,k,1,0.42249420000007376,140.6200702999995,None,,,,,23,001,2022_Oct_22_1930,Version4,2021.2.0,237.95473149167935,
blue_neutral,0,a,middle,blue,0,,,,,2,1,13,5,,,,,,,,,,,141.05810800000017,None,,,,,,,,,,,,142.26347420000002,None,a,1,0.40360510000027716,142.26347420000002,None,,,,,23,001,2022_Oct_22_1930,Version4,2021.2.0,237.95473149167935,
blue_incongruent,0,a,right,blue,0.6,,,,,2,2,14,2,,,,,,,,,,,142.6851644999997,None,,,,,,,,,,,,143.73178589999952,None,a,1,0.4471962999996322,143.73178589999952,None,,,,,23,001,2022_Oct_22_1930,Version4,2021.2.0,237.95473149167935,
red_neutral,0,k,middle,red,0,,,,,2,3,15,4,,,,,,,,,,,144.1946969999999,None,,,,,,,,,,,,145.3417872,None,k,1,0.47743289999925764,145.3417872,None,,,,,23,001,2022_Oct_22_1930,Version4,2021.2.0,237.95473149167935,
red_neutral,0,k,middle,red,0,,,,,2,4,16,4,,,,,,,,,,,145.83394700000008,None,,,,,,,,,,,,146.87678630000028,None,k,1,0.4465941999997085,146.87678630000028,None,,,,,23,001,2022_Oct_22_1930,Version4,2021.2.0,237.95473149167935,
red_congruent,1,k,right,red,0.6,,,,,2,5,17,1,,,,,,,,,,,147.33578289999969,None,,,,,,,,,,,,148.40788599999996,None,k,1,0.5160140999996656,148.40788599999996,None,,,,,23,001,2022_Oct_22_1930,Version4,2021.2.0,237.95473149167935,
blue_neutral,0,a,middle,blue,0,,,,,3,0,18,5,,,,,,,,,,,148.9373426000002,None,,,,,,,,,,,,150.03840899999977,None,a,1,0.3974323000002187,150.03840899999977,None,,,,,23,001,2022_Oct_22_1930,Version4,2021.2.0,237.95473149167935,
blue_incongruent,0,a,right,blue,0.6,,,,,3,1,19,2,,,,,,,,,,,150.44754509999984,None,,,,,,,,,,,,151.50244699999985,None,a,1,0.5256059999992431,151.50244699999985,None,,,,,23,001,2022_Oct_22_1930,Version4,2021.2.0,237.95473149167935,
red_incongruent,0,k,left,red,-0.6,,,,,3,2,20,3,,,,,,,,,,,152.04078000000027,None,,,,,,,,,,,,153.07919049999964,None,k,1,0.4770905000004859,153.07919049999964,None,,,,,23,001,2022_Oct_22_1930,Version4,2021.2.0,237.95473149167935,
red_neutral,0,k,middle,red,0,,,,,3,3,21,4,,,,,,,,,,,153.57131599999957,None,,,,,,,,,,,,154.7350618999999,None,k,1,0.46140769999965414,154.7350618999999,None,,,,,23,001,2022_Oct_22_1930,Version4,2021.2.0,237.95473149167935,
red_incongruent,0,k,left,red,-0.6,,,,,3,4,22,3,,,,,,,,,,,155.2101101999997,None,,,,,,,,,,,,156.2828770999995,None,k,1,0.4500866999997015,156.2828770999995,None,,,,,23,001,2022_Oct_22_1930,Version4,2021.2.0,237.95473149167935,
red_incongruent,0,k,left,red,-0.6,,,,,3,5,23,3,,,,,,,,,,,156.7496731000001,None,,,,,,,,,,,,157.9219922000002,None,k,1,0.3871365999993941,157.9219922000002,None,,,,,23,001,2022_Oct_22_1930,Version4,2021.2.0,237.95473149167935,
red_congruent,1,k,right,red,0.6,,,,,4,0,24,1,,,,,,,,,,,158.32226609999998,None,,,,,,,,,,,,159.46963369999958,None,k,1,0.3514772999997149,159.46963369999958,None,,,,,23,001,2022_Oct_22_1930,Version4,2021.2.0,237.95473149167935,
blue_neutral,0,a,middle,blue,0,,,,,4,1,25,5,,,,,,,,,,,159.83657829999993,None,,,,,,,,,,,,160.92959020000035,None,a,1,0.4597420999998576,160.92959020000035,None,,,,,23,001,2022_Oct_22_1930,Version4,2021.2.0,237.95473149167935,
blue_incongruent,0,a,right,blue,0.6,,,,,4,2,26,2,,,,,,,,,,,161.40485629999966,None,,,,,,,,,,,,162.61461249999957,None,a,1,0.5269772999999986,162.61461249999957,None,,,,,23,001,2022_Oct_22_1930,Version4,2021.2.0,237.95473149167935,
red_congruent,1,k,right,red,0.6,,,,,4,3,27,1,,,,,,,,,,,163.15646939999988,None,,,,,,,,,,,,164.31636369999978,None,k,1,0.42542020000018965,164.31636369999978,None,,,,,23,001,2022_Oct_22_1930,Version4,2021.2.0,237.95473149167935,
blue_neutral,0,a,middle,blue,0,,,,,4,4,28,5,,,,,,,,,,,164.75422739999976,None,,,,,,,,,,,,165.91802800000005,None,a,1,0.6320021999999881,165.91802800000005,None,,,,,23,001,2022_Oct_22_1930,Version4,2021.2.0,237.95473149167935,
red_neutral,0,k,middle,red,0,,,,,4,5,29,4,,,,,,,,,,,166.56864870000027,None,,,,,,,,,,,,167.64905439999984,None,k,1,0.5731725000005099,167.64905439999984,None,,,,,23,001,2022_Oct_22_1930,Version4,2021.2.0,237.95473149167935,
blue_incongruent,0,a,right,blue,0.6,,,,,5,0,30,2,,,,,,,,,,,168.24126290000004,None,,,,,,,,,,,,169.34660619999977,None,a,1,0.46782340000027034,169.34660619999977,None,,,,,23,001,2022_Oct_22_1930,Version4,2021.2.0,237.95473149167935,
red_incongruent,0,k,left,red,-0.6,,,,,5,1,31,3,,,,,,,,,,,169.82629050000014,None,,,,,,,,,,,,170.95665009999993,None,k,1,0.5140215999999782,170.95665009999993,None,,,,,23,001,2022_Oct_22_1930,Version4,2021.2.0,237.95473149167935,
blue_congruent,1,a,left,blue,-0.6,,,,,5,2,32,0,,,,,,,,,,,171.48221850000027,None,,,,,,,,,,,,172.55425250000008,None,a,1,0.4846783000002688,172.55425250000008,None,,,,,23,001,2022_Oct_22_1930,Version4,2021.2.0,237.95473149167935,
red_congruent,1,k,right,red,0.6,,,,,5,3,33,1,,,,,,,,,,,173.0544917999996,None,,,,,,,,,,,,174.10976049999954,None,k,1,0.473365300000296,174.10976049999954,None,,,,,23,001,2022_Oct_22_1930,Version4,2021.2.0,237.95473149167935,
blue_congruent,1,a,left,blue,-0.6,,,,,5,4,34,0,,,,,,,,,,,174.59822129999975,None,,,,,,,,,,,,175.7035446,None,a,1,0.503831099999843,175.7035446,None,,,,,23,001,2022_Oct_22_1930,Version4,2021.2.0,237.95473149167935,
red_incongruent,0,k,left,red,-0.6,,,,,5,5,35,3,,,,,,,,,,,176.2203258999998,None,,,,,,,,,,,,177.35486010000022,None,k,1,0.4126618000000235,177.35486010000022,None,,,,,23,001,2022_Oct_22_1930,Version4,2021.2.0,237.95473149167935,
blue_congruent,1,a,left,blue,-0.6,,,,,6,0,36,0,,,,,,,,,,,177.77627310000025,None,,,,,,,,,,,,178.9398685999995,None,k,0,0.44387730000016745,178.9398685999995,None,,,,,23,001,2022_Oct_22_1930,Version4,2021.2.0,237.95473149167935,
blue_congruent,1,a,left,blue,-0.6,,,,,6,1,37,0,,,,,,,,,,,179.4032089000002,None,,,,,,,,,,,,180.53323290000026,None,a,1,0.4987319000001662,180.53323290000026,None,,,,,23,001,2022_Oct_22_1930,Version4,2021.2.0,237.95473149167935,
red_incongruent,0,k,left,red,-0.6,,,,,6,2,38,3,,,,,,,,,,,181.04665699999987,None,,,,,,,,,,,,182.10156459999962,None,k,1,0.45870670000022074,182.10156459999962,None,,,,,23,001,2022_Oct_22_1930,Version4,2021.2.0,237.95473149167935,
blue_congruent,1,a,left,blue,-0.6,,,,,6,3,39,0,,,,,,,,,,,182.5773608999998,None,,,,,,,,,,,,183.6657438000002,None,a,1,0.40663779999977123,183.6657438000002,None,,,,,23,001,2022_Oct_22_1930,Version4,2021.2.0,237.95473149167935,
blue_neutral,0,a,middle,blue,0,,,,,6,4,40,5,,,,,,,,,,,184.09116819999963,None,,,,,,,,,,,,185.19241820000025,None,a,1,0.6002205000004324,185.19241820000025,None,,,,,23,001,2022_Oct_22_1930,Version4,2021.2.0,237.95473149167935,
blue_congruent,1,a,left,blue,-0.6,,,,,6,5,41,0,,,,,,,,,,,185.80973110000014,None,,,,,,,,,,,,187.0152003000003,None,a,1,0.3856694999994943,187.0152003000003,None,,,,,23,001,2022_Oct_22_1930,Version4,2021.2.0,237.95473149167935,
blue_neutral,0,a,middle,blue,0,,,,,7,0,42,5,,,,,,,,,,,187.41569049999998,None,,,,,,,,,,,,188.49594509999952,None,a,1,0.5293272999997498,188.49594509999952,None,,,,,23,001,2022_Oct_22_1930,Version4,2021.2.0,237.95473149167935,
red_congruent,1,k,right,red,0.6,,,,,7,1,43,1,,,,,,,,,,,189.04236899999978,None,,,,,,,,,,,,190.14762450000035,None,k,1,0.4616656999996849,190.14762450000035,None,,,,,23,001,2022_Oct_22_1930,Version4,2021.2.0,237.95473149167935,
blue_incongruent,0,a,right,blue,0.6,,,,,7,2,44,2,,,,,,,,,,,190.61902959999952,None,,,,,,,,,,,,191.73285039999973,None,a,1,0.5006626999993387,191.73285039999973,None,,,,,23,001,2022_Oct_22_1930,Version4,2021.2.0,237.95473149167935,
red_neutral,0,k,middle,red,0,,,,,7,3,45,4,,,,,,,,,,,192.2501444999998,None,,,,,,,,,,,,193.30539520000002,None,k,1,0.43253379999987374,193.30539520000002,None,,,,,23,001,2022_Oct_22_1930,Version4,2021.2.0,237.95473149167935,
red_neutral,0,k,middle,red,0,,,,,7,4,46,4,,,,,,,,,,,193.75162900000032,None,,,,,,,,,,,,194.98219679999966,None,k,1,0.33171240000046964,194.98219679999966,None,,,,,23,001,2022_Oct_22_1930,Version4,2021.2.0,237.95473149167935,
red_congruent,1,k,right,red,0.6,,,,,7,5,47,1,,,,,,,,,,,195.32764849999967,None,,,,,,,,,,,,196.42530720000013,None,k,1,0.45683479999934207,196.42530720000013,None,,,,,23,001,2022_Oct_22_1930,Version4,2021.2.0,237.95473149167935,
,,,,,,,,,,,,,,,,,,,,,,,,,,,,,,,,,,,,,,,,,,,,space,1.937471799999912,,,23,001,2022_Oct_22_1930,Version4,2021.2.0,237.95473149167935,
blue_neutral,0,a,middle,blue,0,,,,,,,,,0,0,0,5,,,,,,,198.8695448999997,None,,,,,,,,,,,,199.9163077000003,None,a,1,0.6063192000001436,199.9163077000003,None,,,,,23,001,2022_Oct_22_1930,Version4,2021.2.0,237.95473149167935,
blue_incongruent,0,a,right,blue,0.6,,,,,,,,,0,1,1,2,,,,,,,200.54205869999987,None,,,,,,,,,,,,201.76828260000002,None,a,1,0.4826004999995348,201.76828260000002,None,,,,,23,001,2022_Oct_22_1930,Version4,2021.2.0,237.95473149167935,
red_incongruent,0,k,left,red,-0.6,,,,,,,,,0,2,2,3,,,,,,,202.26472079999985,None,,,,,,,,,,,,203.42003010000008,None,a,0,0.3510487000003195,203.42003010000008,None,,,,,23,001,2022_Oct_22_1930,Version4,2021.2.0,237.95473149167935,
blue_incongruent,0,a,right,blue,0.6,,,,,,,,,0,3,3,2,,,,,,,203.7872996999995,None,,,,,,,,,,,,204.7965008000001,None,a,1,0.5907939999997325,204.7965008000001,None,,,,,23,001,2022_Oct_22_1930,Version4,2021.2.0,237.95473149167935,
blue_incongruent,0,a,right,blue,0.6,,,,,,,,,0,4,4,2,,,,,,,205.40566190000027,None,,,,,,,,,,,,206.53591369999958,None,a,1,0.403619499999877,206.53591369999958,None,,,,,23,001,2022_Oct_22_1930,Version4,2021.2.0,237.95473149167935,
red_congruent,1,k,right,red,0.6,,,,,,,,,0,5,5,1,,,,,,,206.9536306,None,,,,,,,,,,,,208.0167620000002,None,k,1,0.43496329999925365,208.0167620000002,None,,,,,23,001,2022_Oct_22_1930,Version4,2021.2.0,237.95473149167935,
blue_congruent,1,a,left,blue,-0.6,,,,,,,,,1,0,6,0,,,,,,,208.46719120000034,None,,,,,,,,,,,,209.55154029999994,None,a,1,0.3803468000005523,209.55154029999994,None,,,,,23,001,2022_Oct_22_1930,Version4,2021.2.0,237.95473149167935,
red_congruent,1,k,right,red,0.6,,,,,,,,,1,1,7,1,,,,,,,209.9436737999995,None,,,,,,,,,,,,211.1366251999998,None,k,1,0.41950830000041606,211.1366251999998,None,,,,,23,001,2022_Oct_22_1930,Version4,2021.2.0,237.95473149167935,
red_neutral,0,k,middle,red,0,,,,,,,,,1,2,8,4,,,,,,,211.57065820000025,None,,,,,,,,,,,,212.62563669999963,None,k,1,0.6187293000002683,212.62563669999963,None,,,,,23,001,2022_Oct_22_1930,Version4,2021.2.0,237.95473149167935,
red_neutral,0,k,middle,red,0,,,,,,,,,1,3,9,4,,,,,,,213.25963260000026,None,,,,,,,,,,,,214.3191694999996,None,k,1,0.30142369999975926,214.3191694999996,None,,,,,23,001,2022_Oct_22_1930,Version4,2021.2.0,237.95473149167935,
red_incongruent,0,k,left,red,-0.6,,,,,,,,,1,4,10,3,,,,,,,214.63671019999947,None,,,,,,,,,,,,215.65807399999994,None,a,0,0.6027191999992283,215.65807399999994,None,,,,,23,001,2022_Oct_22_1930,Version4,2021.2.0,237.95473149167935,
blue_congruent,1,a,left,blue,-0.6,,,,,,,,,1,5,11,0,,,,,,,216.2753289000002,None,,,,,,,,,,,,217.38494739999987,None,a,1,0.4760347000001275,217.38494739999987,None,,,,,23,001,2022_Oct_22_1930,Version4,2021.2.0,237.95473149167935,
red_congruent,1,k,right,red,0.6,,,,,,,,,2,0,12,1,,,,,,,217.8771111999995,None,,,,,,,,,,,,218.9615060999995,None,k,1,0.37165269999968586,218.9615060999995,None,,,,,23,001,2022_Oct_22_1930,Version4,2021.2.0,237.95473149167935,
blue_congruent,1,a,left,blue,-0.6,,,,,,,,,2,1,13,0,,,,,,,219.34540149999975,None,,,,,,,,,,,,220.3926223999997,None,a,1,0.3567518999998356,220.3926223999997,None,,,,,23,001,2022_Oct_22_1930,Version4,2021.2.0,237.95473149167935,
blue_congruent,1,a,left,blue,-0.6,,,,,,,,,2,2,14,0,,,,,,,220.7675908000001,None,,,,,,,,,,,,221.8023493999999,None,a,1,0.3472238999993351,221.8023493999999,None,,,,,23,001,2022_Oct_22_1930,Version4,2021.2.0,237.95473149167935,
blue_neutral,0,a,middle,blue,0,,,,,,,,,2,3,15,5,,,,,,,222.1608937000001,None,,,,,,,,,,,,223.40373649999947,None,a,1,0.5300512000003437,223.40373649999947,None,,,,,23,001,2022_Oct_22_1930,Version4,2021.2.0,237.95473149167935,
red_neutral,0,k,middle,red,0,,,,,,,,,2,4,16,4,,,,,,,223.9462281999995,None,,,,,,,,,,,,225.14723249999952,None,k,1,0.499155200000132,225.14723249999952,None,,,,,23,001,2022_Oct_22_1930,Version4,2021.2.0,237.95473149167935,
blue_neutral,0,a,middle,blue,0,,,,,,,,,2,5,17,5,,,,,,,225.66471420000016,None,,,,,,,,,,,,226.67811079999956,None,a,1,0.44015159999980824,226.67811079999956,None,,,,,23,001,2022_Oct_22_1930,Version4,2021.2.0,237.95473149167935,
blue_incongruent,0,a,right,blue,0.6,,,,,,,,,3,0,18,2,,,,,,,227.13299039999947,None,,,,,,,,,,,,228.27138229999946,None,a,1,0.4630611000002318,228.27138229999946,None,,,,,23,001,2022_Oct_22_1930,Version4,2021.2.0,237.95473149167935,
red_incongruent,0,k,left,red,-0.6,,,,,,,,,3,1,19,3,,,,,,,228.7511115999996,None,,,,,,,,,,,,229.8022589000002,None,k,1,0.4924109000003227,229.8022589000002,None,,,,,23,001,2022_Oct_22_1930,Version4,2021.2.0,237.95473149167935,
red_neutral,0,k,middle,red,0,,,,,,,,,3,2,20,4,,,,,,,230.31121809999968,None,,,,,,,,,,,,231.4374502999999,None,k,1,0.4335929999997461,231.4374502999999,None,,,,,23,001,2022_Oct_22_1930,Version4,2021.2.0,237.95473149167935,
red_neutral,0,k,middle,red,0,,,,,,,,,3,3,21,4,,,,,,,231.88791859999947,None,,,,,,,,,,,,232.92654440000024,None,k,1,0.37650119999943854,232.92654440000024,None,,,,,23,001,2022_Oct_22_1930,Version4,2021.2.0,237.95473149167935,
red_congruent,1,k,right,red,0.6,,,,,,,,,3,4,22,1,,,,,,,233.31445639999947,None,,,,,,,,,,,,234.38642079999954,None,k,1,0.5250206000000617,234.38642079999954,None,,,,,23,001,2022_Oct_22_1930,Version4,2021.2.0,237.95473149167935,
red_incongruent,0,k,left,red,-0.6,,,,,,,,,3,5,23,3,,,,,,,234.92873559999953,None,,,,,,,,,,,,236.04652999999962,None,k,1,0.5532196000003751,236.04652999999962,None,,,,,23,001,2022_Oct_22_1930,Version4,2021.2.0,237.95473149167935,
red_incongruent,0,k,left,red,-0.6,,,,,,,,,4,0,24,3,,,,,,,236.61372529999971,None,,,,,,,,,,,,237.68158760000006,None,k,1,0.43813109999973676,237.68158760000006,None,,,,,23,001,2022_Oct_22_1930,Version4,2021.2.0,237.95473149167935,
blue_incongruent,0,a,right,blue,0.6,,,,,,,,,4,1,25,2,,,,,,,238.1361878000007,None,,,,,,,,,,,,239.21654189999936,None,a,1,0.5916330000000016,239.21654189999936,None,,,,,23,001,2022_Oct_22_1930,Version4,2021.2.0,237.95473149167935,
red_congruent,1,k,right,red,0.6,,,,,,,,,4,2,26,1,,,,,,,239.8254949000002,None,,,,,,,,,,,,240.90166769999996,None,k,1,0.4904772999998386,240.90166769999996,None,,,,,23,001,2022_Oct_22_1930,Version4,2021.2.0,237.95473149167935,
red_congruent,1,k,right,red,0.6,,,,,,,,,4,3,27,1,,,,,,,241.4104583999997,None,,,,,,,,,,,,242.5573487999991,None,k,1,0.5950424000002386,242.5573487999991,None,,,,,23,001,2022_Oct_22_1930,Version4,2021.2.0,237.95473149167935,
blue_incongruent,0,a,right,blue,0.6,,,,,,,,,4,4,28,2,,,,,,,243.1706735000007,None,,,,,,,,,,,,244.28448879999996,None,k,0,0.35612529999889375,244.28448879999996,None,,,,,23,001,2022_Oct_22_1930,Version4,2021.2.0,237.95473149167935,
blue_neutral,0,a,middle,blue,0,,,,,,,,,4,5,29,5,,,,,,,244.65974210000059,None,,,,,,,,,,,,245.74854459999915,None,a,1,0.37225240000043414,245.74854459999915,None,,,,,23,001,2022_Oct_22_1930,Version4,2021.2.0,237.95473149167935,
blue_incongruent,0,a,right,blue,0.6,,,,,,,,,5,0,30,2,,,,,,,246.1321398,None,,,,,,,,,,,,247.24149100000068,None,a,1,0.4637907999986055,247.24149100000068,None,,,,,23,001,2022_Oct_22_1930,Version4,2021.2.0,237.95473149167935,
red_neutral,0,k,middle,red,0,,,,,,,,,5,1,31,4,,,,,,,247.72137719999955,None,,,,,,,,,,,,248.8351645999992,None,k,1,0.4304282000011881,248.8351645999992,None,,,,,23,001,2022_Oct_22_1930,Version4,2021.2.0,237.95473149167935,
blue_congruent,1,a,left,blue,-0.6,,,,,,,,,5,2,32,0,,,,,,,249.2813217999992,None,,,,,,,,,,,,250.3781717999991,None,a,1,0.39129180000054475,250.3781717999991,None,,,,,23,001,2022_Oct_22_1930,Version4,2021.2.0,237.95473149167935,
red_neutral,0,k,middle,red,0,,,,,,,,,5,3,33,4,,,,,,,250.78275819999908,None,,,,,,,,,,,,251.86306669999976,None,k,1,0.5066156000011688,251.86306669999976,None,,,,,23,001,2022_Oct_22_1930,Version4,2021.2.0,237.95473149167935,
blue_congruent,1,a,left,blue,-0.6,,,,,,,,,5,4,34,0,,,,,,,252.3844537999994,None,,,,,,,,,,,,253.51898810000057,None,a,1,0.538878699999259,253.51898810000057,None,,,,,23,001,2022_Oct_22_1930,Version4,2021.2.0,237.95473149167935,
blue_congruent,1,a,left,blue,-0.6,,,,,,,,,5,5,35,0,,,,,,,254.0697192000007,None,,,,,,,,,,,,255.24165429999994,None,a,1,0.392425900001399,255.24165429999994,None,,,,,23,001,2022_Oct_22_1930,Version4,2021.2.0,237.95473149167935,
red_neutral,0,k,middle,red,0,,,,,,,,,6,0,36,4,,,,,,,255.64691660000062,None,,,,,,,,,,,,256.7267809999994,None,k,1,0.43551230000048236,256.7267809999994,None,,,,,23,001,2022_Oct_22_1930,Version4,2021.2.0,237.95473149167935,
red_incongruent,0,k,left,red,-0.6,,,,,,,,,6,1,37,3,,,,,,,257.1770039000003,None,,,,,,,,,,,,258.2492199999997,None,k,1,0.4812657999991643,258.2492199999997,None,,,,,23,001,2022_Oct_22_1930,Version4,2021.2.0,237.95473149167935,
blue_neutral,0,a,middle,blue,0,,,,,,,,,6,2,38,5,,,,,,,258.74973639999916,None,,,,,,,,,,,,259.8301556000006,None,a,1,0.42055600000094273,259.8301556000006,None,,,,,23,001,2022_Oct_22_1930,Version4,2021.2.0,237.95473149167935,
blue_neutral,0,a,middle,blue,0,,,,,,,,,6,3,39,5,,,,,,,260.2639283999997,None,,,,,,,,,,,,261.37738440000066,None,a,1,0.4175217000010889,261.37738440000066,None,,,,,23,001,2022_Oct_22_1930,Version4,2021.2.0,237.95473149167935,
red_incongruent,0,k,left,red,-0.6,,,,,,,,,6,4,40,3,,,,,,,261.80721989999984,None,,,,,,,,,,,,262.98317920000045,None,k,1,0.8680156999998871,262.98317920000045,None,,,,,23,001,2022_Oct_22_1930,Version4,2021.2.0,237.95473149167935,
red_congruent,1,k,right,red,0.6,,,,,,,,,6,5,41,1,,,,,,,263.86334689999967,None,,,,,,,,,,,,264.9143841999994,None,k,1,0.5610489999999118,264.9143841999994,None,,,,,23,001,2022_Oct_22_1930,Version4,2021.2.0,237.95473149167935,
blue_incongruent,0,a,right,blue,0.6,,,,,,,,,7,0,42,2,,,,,,,265.4903467000004,None,,,,,,,,,,,,266.5744835000005,None,a,1,0.44548150000082387,266.5744835000005,None,,,,,23,001,2022_Oct_22_1930,Version4,2021.2.0,237.95473149167935,
red_incongruent,0,k,left,red,-0.6,,,,,,,,,7,1,43,3,,,,,,,267.03783490000023,None,,,,,,,,,,,,268.1928846999999,None,k,1,0.44295670000065,268.1928846999999,None,,,,,23,001,2022_Oct_22_1930,Version4,2021.2.0,237.95473149167935,
blue_neutral,0,a,middle,blue,0,,,,,,,,,7,2,44,5,,,,,,,268.64346750000004,None,,,,,,,,,,,,269.7361605999995,None,a,1,0.4758768000010605,269.7361605999995,None,,,,,23,001,2022_Oct_22_1930,Version4,2021.2.0,237.95473149167935,
red_congruent,1,k,right,red,0.6,,,,,,,,,7,3,45,1,,,,,,,270.22422449999976,None,,,,,,,,,,,,271.41294519999974,None,k,1,0.5754892999993899,271.41294519999974,None,,,,,23,001,2022_Oct_22_1930,Version4,2021.2.0,237.95473149167935,
blue_congruent,1,a,left,blue,-0.6,,,,,,,,,7,4,46,0,,,,,,,272.00081990000035,None,,,,,,,,,,,,273.1106545999992,None,a,1,0.3978433000011137,273.1106545999992,None,,,,,23,001,2022_Oct_22_1930,Version4,2021.2.0,237.95473149167935,
blue_neutral,0,a,middle,blue,0,,,,,,,,,7,5,47,5,,,,,,,273.5279692999993,None,,,,,,,,,,,,274.7998716000002,None,a,1,0.42091030000119645,274.7998716000002,None,,,,,23,001,2022_Oct_22_1930,Version4,2021.2.0,237.95473149167935,
,,,,,,,,,,,,,,,,,,,,,,,,,,,,,,,,,,,,,,,,,,,,space,1.638840400000845,,,23,001,2022_Oct_22_1930,Version4,2021.2.0,237.95473149167935,
red_congruent,1,k,right,red,0.6,,,,,,,,,,,,,0,0,0,1,,,276.90221419999943,None,,,,,,,,,,,,278.024335099999,None,k,1,0.372843200000716,278.024335099999,None,,,,,23,001,2022_Oct_22_1930,Version4,2021.2.0,237.95473149167935,
red_congruent,1,k,right,red,0.6,,,,,,,,,,,,,0,1,1,1,,,278.41620110000076,None,,,,,,,,,,,,279.53827119999914,None,k,1,0.37113250000038533,279.53827119999914,None,,,,,23,001,2022_Oct_22_1930,Version4,2021.2.0,237.95473149167935,
blue_incongruent,0,a,right,blue,0.6,,,,,,,,,,,,,0,2,2,2,,,279.92614689999937,None,,,,,,,,,,,,281.10238410000056,None,a,1,0.4872304999989865,281.10238410000056,None,,,,,23,001,2022_Oct_22_1930,Version4,2021.2.0,237.95473149167935,
red_congruent,1,k,right,red,0.6,,,,,,,,,,,,,0,3,3,1,,,281.6024844000003,None,,,,,,,,,,,,282.6874107000003,None,k,1,0.4864025999995647,282.6874107000003,None,,,,,23,001,2022_Oct_22_1930,Version4,2021.2.0,237.95473149167935,
blue_neutral,0,a,middle,blue,0,,,,,,,,,,,,,0,4,4,5,,,283.18826609999996,None,,,,,,,,,,,,284.19734459999927,None,a,1,0.5766874000000826,284.19734459999927,None,,,,,23,001,2022_Oct_22_1930,Version4,2021.2.0,237.95473149167935,
blue_congruent,1,a,left,blue,-0.6,,,,,,,,,,,,,0,5,5,0,,,284.7858790999999,None,,,,,,,,,,,,285.84497159999955,None,a,1,0.4172571999988577,285.84497159999955,None,,,,,23,001,2022_Oct_22_1930,Version4,2021.2.0,237.95473149167935,
red_neutral,0,k,middle,red,0,,,,,,,,,,,,,1,0,6,4,,,286.27870520000033,None,,,,,,,,,,,,287.50918289999936,None,k,1,0.4575545999996393,287.50918289999936,None,,,,,23,001,2022_Oct_22_1930,Version4,2021.2.0,237.95473149167935,
blue_congruent,1,a,left,blue,-0.6,,,,,,,,,,,,,1,1,7,0,,,287.98469640000076,None,,,,,,,,,,,,289.0566591000006,None,a,1,0.406018599998788,289.0566591000006,None,,,,,23,001,2022_Oct_22_1930,Version4,2021.2.0,237.95473149167935,
blue_congruent,1,a,left,blue,-0.6,,,,,,,,,,,,,1,2,8,0,,,289.48241469999994,None,,,,,,,,,,,,290.5541463999998,None,a,1,0.34111159999883967,290.5541463999998,None,,,,,23,001,2022_Oct_22_1930,Version4,2021.2.0,237.95473149167935,
red_incongruent,0,k,left,red,-0.6,,,,,,,,,,,,,1,3,9,3,,,290.9128242000006,None,,,,,,,,,,,,291.9722440000005,None,k,1,0.5468223999996553,291.9722440000005,None,,,,,23,001,2022_Oct_22_1930,Version4,2021.2.0,237.95473149167935,
blue_incongruent,0,a,right,blue,0.6,,,,,,,,,,,,,1,4,10,2,,,292.53143959999943,None,,,,,,,,,,,,293.6156563000004,None,a,1,0.615883100001156,293.6156563000004,None,,,,,23,001,2022_Oct_22_1930,Version4,2021.2.0,237.95473149167935,
red_neutral,0,k,middle,red,0,,,,,,,,,,,,,1,5,11,4,,,294.2499850999993,None,,,,,,,,,,,,295.3508278999998,None,k,1,0.4167178999996395,295.3508278999998,None,,,,,23,001,2022_Oct_22_1930,Version4,2021.2.0,237.95473149167935,
red_incongruent,0,k,left,red,-0.6,,,,,,,,,,,,,2,0,12,3,,,295.78092020000076,None,,,,,,,,,,,,296.91114559999914,None,k,1,0.5125991000004433,296.91114559999914,None,,,,,23,001,2022_Oct_22_1930,Version4,2021.2.0,237.95473149167935,
red_neutral,0,k,middle,red,0,,,,,,,,,,,,,2,1,13,4,,,297.4366477000003,None,,,,,,,,,,,,298.60845119999976,None,k,1,0.3435193999994226,298.60845119999976,None,,,,,23,001,2022_Oct_22_1930,Version4,2021.2.0,237.95473149167935,
blue_congruent,1,a,left,blue,-0.6,,,,,,,,,,,,,2,2,14,0,,,298.97165119999954,None,,,,,,,,,,,,300.1100499999993,None,a,1,0.42613730000084615,300.1100499999993,None,,,,,23,001,2022_Oct_22_1930,Version4,2021.2.0,237.95473149167935,
blue_congruent,1,a,left,blue,-0.6,,,,,,,,,,,,,2,3,15,0,,,300.55243100000007,None,,,,,,,,,,,,301.6158787000004,None,a,1,0.3285113000001729,301.6158787000004,None,,,,,23,001,2022_Oct_22_1930,Version4,2021.2.0,237.95473149167935,
blue_neutral,0,a,middle,blue,0,,,,,,,,,,,,,2,4,16,5,,,301.9578359999996,None,,,,,,,,,,,,303.1299225999992,None,k,0,0.4466542999998637,303.1299225999992,None,,,,,23,001,2022_Oct_22_1930,Version4,2021.2.0,237.95473149167935,
blue_neutral,0,a,middle,blue,0,,,,,,,,,,,,,2,5,17,5,,,303.58874599999945,None,,,,,,,,,,,,304.6899061999993,None,a,1,0.5269083000002865,304.6899061999993,None,,,,,23,001,2022_Oct_22_1930,Version4,2021.2.0,237.95473149167935,
blue_incongruent,0,a,right,blue,0.6,,,,,,,,,,,,,3,0,18,2,,,305.22831439999936,None,,,,,,,,,,,,306.2376724000005,None,a,1,0.43538789999911387,306.2376724000005,None,,,,,23,001,2022_Oct_22_1930,Version4,2021.2.0,237.95473149167935,
red_congruent,1,k,right,red,0.6,,,,,,,,,,,,,3,1,19,1,,,306.6880168000007,None,,,,,,,,,,,,307.75985749999927,None,k,1,0.5133788000002824,307.75985749999927,None,,,,,23,001,2022_Oct_22_1930,Version4,2021.2.0,237.95473149167935,
blue_neutral,0,a,middle,blue,0,,,,,,,,,,,,,3,2,20,5,,,308.28987489999963,None,,,,,,,,,,,,309.39491389999966,None,a,1,0.3667934000004607,309.39491389999966,None,,,,,23,001,2022_Oct_22_1930,Version4,2021.2.0,237.95473149167935,
red_incongruent,0,k,left,red,-0.6,,,,,,,,,,,,,3,3,21,3,,,309.77894729999934,None,,,,,,,,,,,,310.8632213000001,None,k,1,0.754483300001084,310.8632213000001,None,,,,,23,001,2022_Oct_22_1930,Version4,2021.2.0,237.95473149167935,
blue_incongruent,0,a,right,blue,0.6,,,,,,,,,,,,,3,4,22,2,,,311.6308876000003,None,,,,,,,,,,,,312.6900800000003,None,a,1,0.43182080000042333,312.6900800000003,None,,,,,23,001,2022_Oct_22_1930,Version4,2021.2.0,237.95473149167935,
blue_incongruent,0,a,right,blue,0.6,,,,,,,,,,,,,3,5,23,2,,,313.1365282000006,None,,,,,,,,,,,,314.2876878999996,None,a,1,0.45044469999993453,314.2876878999996,None,,,,,23,001,2022_Oct_22_1930,Version4,2021.2.0,237.95473149167935,
blue_neutral,0,a,middle,blue,0,,,,,,,,,,,,,4,0,24,5,,,314.75015410000015,None,,,,,,,,,,,,315.8017061999999,None,a,1,0.5367972999993071,315.8017061999999,None,,,,,23,001,2022_Oct_22_1930,Version4,2021.2.0,237.95473149167935,
red_neutral,0,k,middle,red,0,,,,,,,,,,,,,4,1,25,4,,,316.35673619999943,None,,,,,,,,,,,,317.41592949999904,None,k,1,0.4826520000005985,317.41592949999904,None,,,,,23,001,2022_Oct_22_1930,Version4,2021.2.0,237.95473149167935,
blue_neutral,0,a,middle,blue,0,,,,,,,,,,,,,4,2,26,5,,,317.9127344999997,None,,,,,,,,,,,,319.06767500000024,None,a,1,0.4073867999995855,319.06767500000024,None,,,,,23,001,2022_Oct_22_1930,Version4,2021.2.0,237.95473149167935,
red_neutral,0,k,middle,red,0,,,,,,,,,,,,,4,3,27,4,,,319.48894400000063,None,,,,,,,,,,,,320.5859512999996,None,k,1,0.46502069999951345,320.5859512999996,None,,,,,23,001,2022_Oct_22_1930,Version4,2021.2.0,237.95473149167935,
red_incongruent,0,k,left,red,-0.6,,,,,,,,,,,,,4,4,28,3,,,321.07001879999916,None,,,,,,,,,,,,322.2254718999993,None,k,1,0.38568320000013046,322.2254718999993,None,,,,,23,001,2022_Oct_22_1930,Version4,2021.2.0,237.95473149167935,
red_incongruent,0,k,left,red,-0.6,,,,,,,,,,,,,4,5,29,3,,,322.6299932999991,None,,,,,,,,,,,,323.7478468999998,None,k,1,0.39984650000042166,323.7478468999998,None,,,,,23,001,2022_Oct_22_1930,Version4,2021.2.0,237.95473149167935,
blue_congruent,1,a,left,blue,-0.6,,,,,,,,,,,,,5,0,30,0,,,324.1647546999993,None,,,,,,,,,,,,325.25778360000004,None,a,1,0.4978008999987651,325.25778360000004,None,,,,,23,001,2022_Oct_22_1930,Version4,2021.2.0,237.95473149167935,
red_congruent,1,k,right,red,0.6,,,,,,,,,,,,,5,1,31,1,,,325.77039220000006,None,,,,,,,,,,,,326.91377009999997,None,k,1,0.5864844000006997,326.91377009999997,None,,,,,23,001,2022_Oct_22_1930,Version4,2021.2.0,237.95473149167935,
blue_incongruent,0,a,right,blue,0.6,,,,,,,,,,,,,5,2,32,2,,,327.51014829999986,None,,,,,,,,,,,,328.61563410000053,None,a,1,0.6927211000001989,328.61563410000053,None,,,,,23,001,2022_Oct_22_1930,Version4,2021.2.0,237.95473149167935,
blue_incongruent,0,a,right,blue,0.6,,,,,,,,,,,,,5,3,33,2,,,329.32459349999954,None,,,,,,,,,,,,330.5133557999998,None,a,1,0.4749554000009084,330.5133557999998,None,,,,,23,001,2022_Oct_22_1930,Version4,2021.2.0,237.95473149167935,
red_incongruent,0,k,left,red,-0.6,,,,,,,,,,,,,5,4,34,3,,,331.0013801999994,None,,,,,,,,,,,,332.10261720000017,None,k,1,0.43013950000022305,332.10261720000017,None,,,,,23,001,2022_Oct_22_1930,Version4,2021.2.0,237.95473149167935,
blue_neutral,0,a,middle,blue,0,,,,,,,,,,,,,5,5,35,5,,,332.54882709999947,None,,,,,,,,,,,,333.6835078999993,None,a,1,0.4655824000001303,333.6835078999993,None,,,,,23,001,2022_Oct_22_1930,Version4,2021.2.0,237.95473149167935,
red_incongruent,0,k,left,red,-0.6,,,,,,,,,,,,,6,0,36,3,,,334.1672108999992,None,,,,,,,,,,,,335.2517000000007,None,k,1,0.5692606000011438,335.2517000000007,None,,,,,23,001,2022_Oct_22_1930,Version4,2021.2.0,237.95473149167935,
blue_neutral,0,a,middle,blue,0,,,,,,,,,,,,,6,1,37,5,,,335.83547369999906,None,,,,,,,,,,,,336.9285777999994,None,a,1,0.4288649999998597,336.9285777999994,None,,,,,23,001,2022_Oct_22_1930,Version4,2021.2.0,237.95473149167935,
red_congruent,1,k,right,red,0.6,,,,,,,,,,,,,6,2,38,1,,,337.37061390000054,None,,,,,,,,,,,,338.48002859999906,None,k,1,0.5173677000002499,338.48002859999906,None,,,,,23,001,2022_Oct_22_1930,Version4,2021.2.0,237.95473149167935,
red_congruent,1,k,right,red,0.6,,,,,,,,,,,,,6,3,39,1,,,339.00985279999986,None,,,,,,,,,,,,340.1235360999999,None,k,1,0.41809029999967606,340.1235360999999,None,,,,,23,001,2022_Oct_22_1930,Version4,2021.2.0,237.95473149167935,
red_congruent,1,k,right,red,0.6,,,,,,,,,,,,,6,4,40,1,,,340.5529452999999,None,,,,,,,,,,,,341.7586289999999,None,k,1,0.40743660000043747,341.7586289999999,None,,,,,23,001,2022_Oct_22_1930,Version4,2021.2.0,237.95473149167935,
red_neutral,0,k,middle,red,0,,,,,,,,,,,,,6,5,41,4,,,342.18414459999985,None,,,,,,,,,,,,343.3144487999998,None,k,1,0.4838757999987138,343.3144487999998,None,,,,,23,001,2022_Oct_22_1930,Version4,2021.2.0,237.95473149167935,
red_neutral,0,k,middle,red,0,,,,,,,,,,,,,7,0,42,4,,,343.81472720000056,None,,,,,,,,,,,,344.85362800000075,None,k,1,0.40863290000015695,344.85362800000075,None,,,,,23,001,2022_Oct_22_1930,Version4,2021.2.0,237.95473149167935,
blue_incongruent,0,a,right,blue,0.6,,,,,,,,,,,,,7,1,43,2,,,345.2748441999993,None,,,,,,,,,,,,346.3342842000002,None,a,1,0.44815619999826595,346.3342842000002,None,,,,,23,001,2022_Oct_22_1930,Version4,2021.2.0,237.95473149167935,
red_neutral,0,k,middle,red,0,,,,,,,,,,,,,7,2,44,4,,,346.8015947999993,None,,,,,,,,,,,,348.0405530000007,None,k,1,0.47014210000088497,348.0405530000007,None,,,,,23,001,2022_Oct_22_1930,Version4,2021.2.0,237.95473149167935,
red_incongruent,0,k,left,red,-0.6,,,,,,,,,,,,,7,3,45,3,,,348.52410059999966,None,,,,,,,,,,,,349.5333723999993,None,k,1,0.4255548999990424,349.5333723999993,None,,,,,23,001,2022_Oct_22_1930,Version4,2021.2.0,237.95473149167935,
blue_congruent,1,a,left,blue,-0.6,,,,,,,,,,,,,7,4,46,0,,,349.9713059000005,None,,,,,,,,,,,,351.1224729000005,None,a,1,0.39658849999977974,351.1224729000005,None,,,,,23,001,2022_Oct_22_1930,Version4,2021.2.0,237.95473149167935,
blue_congruent,1,a,left,blue,-0.6,,,,,,,,,,,,,7,5,47,0,,,351.5312551999996,None,,,,,,,,,,,,352.6407500999994,None,a,1,0.40653629999906116,352.6407500999994,None,,,,,23,001,2022_Oct_22_1930,Version4,2021.2.0,237.95473149167935,
,,,,,,,,,,,,,,,,,,,,,,,,,,,,,,,,,,,,,,,,,,,,space,1.1331294999999955,,,23,001,2022_Oct_22_1930,Version4,2021.2.0,237.95473149167935,
,,,,,,,,,,,,,,,,,,,,,,,,,,,,,,,,,,,,,,,,,,,,,,space,2.085549900000842,23,001,2022_Oct_22_1930,Version4,2021.2.0,237.95473149167935,
