images,congruentcy,corrAns,box_pos,box_color,box_x,pract.thisRepN,pract.thisTrialN,pract.thisN,pract.thisIndex,trials.thisRepN,trials.thisTrialN,trials.thisN,trials.thisIndex,trials_2.thisRepN,trials_2.thisTrialN,trials_2.thisN,trials_2.thisIndex,trials_3.thisRepN,trials_3.thisTrialN,trials_3.thisN,trials_3.thisIndex,key_resp_instr.keys,key_resp_instr.rt,FixCross.started,FixCross.stopped,Box_p.started,Box_p.stopped,key_resp_P.keys,key_resp_P.corr,key_resp_P.rt,key_resp_P.started,key_resp_P.stopped,text_3.started,text_3.stopped,key_resp_2.keys,key_resp_2.rt,Box.started,Box.stopped,key_resp.keys,key_resp.corr,key_resp.rt,key_resp.started,key_resp.stopped,key_resp_3.keys,key_resp_3.rt,key_resp_4.keys,key_resp_4.rt,participant,session,date,expName,psychopyVersion,frameRate,
,,,,,,,,,,,,,,,,,,,,,,space,29.311623500005226,,,,,,,,,,,,,,,,,,,,,,,,,24,001,2022_Oct_23_1743,Version4,2021.2.0,239.67940484232034,
blue_congruent,1,a,left,blue,-0.6,0,0,0,0,,,,,,,,,,,,,,,61.49746340001002,None,62.57329450000543,None,k,0,4.426937600001111,62.57329450000543,None,,,,,,,,,,,,,,,,24,001,2022_Oct_23_1743,Version4,2021.2.0,239.67940484232034,
blue_incongruent,0,a,right,blue,0.6,0,1,1,2,,,,,,,,,,,,,,,68.02086820000841,None,69.13045560001046,None,k,0,4.5986972999962745,69.13045560001046,None,,,,,,,,,,,,,,,,24,001,2022_Oct_23_1743,Version4,2021.2.0,239.67940484232034,
blue_neutral,0,a,middle,blue,0,0,2,2,5,,,,,,,,,,,,,,,74.74452649999876,None,75.91674390000117,None,a,1,2.5250597999984166,75.91674390000117,None,,,,,,,,,,,,,,,,24,001,2022_Oct_23_1743,Version4,2021.2.0,239.67940484232034,
red_incongruent,0,k,left,red,-0.6,0,3,3,3,,,,,,,,,,,,,,,79.45374209999864,None,80.63001570000779,None,k,1,0.6281564999953844,80.63001570000779,None,,,,,,,,,,,,,,,,24,001,2022_Oct_23_1743,Version4,2021.2.0,239.67940484232034,
red_neutral,0,k,middle,red,0,0,4,4,4,,,,,,,,,,,,,,,82.273623400004,None,83.40374340000562,None,a,0,1.2709229000029154,83.40374340000562,None,,,,,,,,,,,,,,,,24,001,2022_Oct_23_1743,Version4,2021.2.0,239.67940484232034,
red_neutral,0,k,middle,red,0,0,5,5,4,,,,,,,,,,,,,,,85.68949620000785,None,86.72822210000595,None,k,1,0.8668344000034267,86.72822210000595,None,,,,,,,,,,,,,,,,24,001,2022_Oct_23_1743,Version4,2021.2.0,239.67940484232034,
blue_congruent,1,a,left,blue,-0.6,1,0,6,0,,,,,,,,,,,,,,,88.60925629999838,None,89.73142619999999,None,a,1,0.4959621000016341,89.73142619999999,None,,,,,,,,,,,,,,,,24,001,2022_Oct_23_1743,Version4,2021.2.0,239.67940484232034,
red_incongruent,0,k,left,red,-0.6,1,1,7,3,,,,,,,,,,,,,,,91.245522600002,None,92.27997240000695,None,a,0,0.6838451999938115,92.27997240000695,None,,,,,,,,,,,,,,,,24,001,2022_Oct_23_1743,Version4,2021.2.0,239.67940484232034,
blue_incongruent,0,a,right,blue,0.6,1,2,8,2,,,,,,,,,,,,,,,93.9818263000052,None,95.1329856000084,None,a,1,1.8315619999921182,95.1329856000084,None,,,,,,,,,,,,,,,,24,001,2022_Oct_23_1743,Version4,2021.2.0,239.67940484232034,
red_incongruent,0,k,left,red,-0.6,1,3,9,3,,,,,,,,,,,,,,,97.98184190000757,None,99.10811560000002,None,k,1,0.864627200004179,99.10811560000002,None,,,,,,,,,,,,,,,,24,001,2022_Oct_23_1743,Version4,2021.2.0,239.67940484232034,
red_congruent,1,k,right,red,0.6,1,4,10,1,,,,,,,,,,,,,,,100.98504090000642,None,102.12359560000186,None,k,1,1.9057927000103518,102.12359560000186,None,,,,,,,,,,,,,,,,24,001,2022_Oct_23_1743,Version4,2021.2.0,239.67940484232034,
red_neutral,0,k,middle,red,0,1,5,11,4,,,,,,,,,,,,,,,105.05171160001191,None,106.20715950000158,None,k,1,1.5986700999928871,106.20715950000158,None,,,,,,,,,,,,,,,,24,001,2022_Oct_23_1743,Version4,2021.2.0,239.67940484232034,
blue_incongruent,0,a,right,blue,0.6,2,0,12,2,,,,,,,,,,,,,,,108.81840689999808,None,109.87778680000338,None,a,1,1.2164749000075972,109.87778680000338,None,,,,,,,,,,,,,,,,24,001,2022_Oct_23_1743,Version4,2021.2.0,239.67940484232034,
blue_neutral,0,a,middle,blue,0,2,1,13,5,,,,,,,,,,,,,,,112.11334500000521,None,113.26875460000883,None,a,1,1.546029199991608,113.26875460000883,None,,,,,,,,,,,,,,,,24,001,2022_Oct_23_1743,Version4,2021.2.0,239.67940484232034,
blue_neutral,0,a,middle,blue,0,2,2,14,5,,,,,,,,,,,,,,,115.82993830001215,None,116.87275720000616,None,a,1,0.7265715999965323,116.87275720000616,None,,,,,,,,,,,,,,,,24,001,2022_Oct_23_1743,Version4,2021.2.0,239.67940484232034,
red_incongruent,0,k,left,red,-0.6,2,3,15,3,,,,,,,,,,,,,,,118.62039530000766,None,119.72160140000051,None,k,1,1.1263761000009254,119.72160140000051,None,,,,,,,,,,,,,,,,24,001,2022_Oct_23_1743,Version4,2021.2.0,239.67940484232034,
blue_neutral,0,a,middle,blue,0,2,4,16,5,,,,,,,,,,,,,,,121.8653733000101,None,123.01675540000724,None,a,1,0.943292099997052,123.01675540000724,None,,,,,,,,,,,,,,,,24,001,2022_Oct_23_1743,Version4,2021.2.0,239.67940484232034,
red_congruent,1,k,right,red,0.6,2,5,17,1,,,,,,,,,,,,,,,124.9772352,None,126.04065890000493,None,k,1,0.9597958999947878,126.04065890000493,None,,,,,,,,,,,,,,,,24,001,2022_Oct_23_1743,Version4,2021.2.0,239.67940484232034,
red_congruent,1,k,right,red,0.6,3,0,18,1,,,,,,,,,,,,,,,128.0179330000101,None,129.13176119999844,None,k,1,0.4930519999907119,129.13176119999844,None,,,,,,,,,,,,,,,,24,001,2022_Oct_23_1743,Version4,2021.2.0,239.67940484232034,
blue_congruent,1,a,left,blue,-0.6,3,1,19,0,,,,,,,,,,,,,,,130.64585260000604,None,131.7551916000084,None,a,1,0.7740263000014238,131.7551916000084,None,,,,,,,,,,,,,,,,24,001,2022_Oct_23_1743,Version4,2021.2.0,239.67940484232034,
red_congruent,1,k,right,red,0.6,3,2,20,1,,,,,,,,,,,,,,,133.5487664000102,None,134.68753860000288,None,k,1,0.9621130000014091,134.68753860000288,None,,,,,,,,,,,,,,,,24,001,2022_Oct_23_1743,Version4,2021.2.0,239.67940484232034,
red_neutral,0,k,middle,red,0,3,3,21,4,,,,,,,,,,,,,,,136.66856600000756,None,137.80729820000124,None,k,1,0.6586956000101054,137.80729820000124,None,,,,,,,,,,,,,,,,24,001,2022_Oct_23_1743,Version4,2021.2.0,239.67940484232034,
blue_congruent,1,a,left,blue,-0.6,3,4,22,0,,,,,,,,,,,,,,,139.48418189999938,None,140.5977630999987,None,a,1,0.5406280000024708,140.5977630999987,None,,,,,,,,,,,,,,,,24,001,2022_Oct_23_1743,Version4,2021.2.0,239.67940484232034,
blue_incongruent,0,a,right,blue,0.6,3,5,23,2,,,,,,,,,,,,,,,142.15776919999917,None,143.21736970001075,None,a,1,0.5135232999891741,143.21736970001075,None,,,,,,,,,,,,,,,,24,001,2022_Oct_23_1743,Version4,2021.2.0,239.67940484232034,
,,,,,,,,,,,,,,,,,,,,,,,,,,,,,,,,,144.77304430000368,None,space,5.085719800001243,,,,,,,,,,,,24,001,2022_Oct_23_1743,Version4,2021.2.0,239.67940484232034,
red_neutral,0,k,middle,red,0,,,,,0,0,0,4,,,,,,,,,,,151.85159130000102,None,,,,,,,,,,,,153.06947110001056,None,a,0,2.7348855000018375,153.06947110001056,None,,,,,24,001,2022_Oct_23_1743,Version4,2021.2.0,239.67940484232034,
red_incongruent,0,k,left,red,-0.6,,,,,0,1,1,3,,,,,,,,,,,155.81846130000486,None,,,,,,,,,,,,156.96530209999764,None,a,0,0.5753347999998368,156.96530209999764,None,,,,,24,001,2022_Oct_23_1743,Version4,2021.2.0,239.67940484232034,
red_congruent,1,k,right,red,0.6,,,,,0,2,2,1,,,,,,,,,,,157.55339000000095,None,,,,,,,,,,,,158.6170911000081,None,a,0,0.907972000000882,158.6170911000081,None,,,,,24,001,2022_Oct_23_1743,Version4,2021.2.0,239.67940484232034,
blue_congruent,1,a,left,blue,-0.6,,,,,0,3,3,0,,,,,,,,,,,159.5430034000019,None,,,,,,,,,,,,160.69421870000951,None,k,0,0.7509768000018084,160.69421870000951,None,,,,,24,001,2022_Oct_23_1743,Version4,2021.2.0,239.67940484232034,
blue_incongruent,0,a,right,blue,0.6,,,,,0,4,4,2,,,,,,,,,,,161.45762710001145,None,,,,,,,,,,,,162.59608899999876,None,k,0,0.601313699997263,162.59608899999876,None,,,,,24,001,2022_Oct_23_1743,Version4,2021.2.0,239.67940484232034,
blue_neutral,0,a,middle,blue,0,,,,,0,5,5,5,,,,,,,,,,,163.21362640000007,None,,,,,,,,,,,,164.27288740000222,None,a,1,1.3168220999941695,164.27288740000222,None,,,,,24,001,2022_Oct_23_1743,Version4,2021.2.0,239.67940484232034,
blue_congruent,1,a,left,blue,-0.6,,,,,1,0,6,0,,,,,,,,,,,165.60360980000405,None,,,,,,,,,,,,166.77991979999933,None,a,1,0.5300255000038305,166.77991979999933,None,,,,,24,001,2022_Oct_23_1743,Version4,2021.2.0,239.67940484232034,
red_incongruent,0,k,left,red,-0.6,,,,,1,1,7,3,,,,,,,,,,,167.3220708000008,None,,,,,,,,,,,,168.38146660001075,None,k,1,0.6169034999911673,168.38146660001075,None,,,,,24,001,2022_Oct_23_1743,Version4,2021.2.0,239.67940484232034,
red_neutral,0,k,middle,red,0,,,,,1,2,8,4,,,,,,,,,,,169.01131080000778,None,,,,,,,,,,,,170.09585789999983,None,k,1,1.4468652999930782,170.09585789999983,None,,,,,24,001,2022_Oct_23_1743,Version4,2021.2.0,239.67940484232034,
red_congruent,1,k,right,red,0.6,,,,,1,3,9,1,,,,,,,,,,,171.55565140000544,None,,,,,,,,,,,,172.62757660000352,None,k,1,0.5231968999869423,172.62757660000352,None,,,,,24,001,2022_Oct_23_1743,Version4,2021.2.0,239.67940484232034,
blue_congruent,1,a,left,blue,-0.6,,,,,1,4,10,0,,,,,,,,,,,173.16980909999984,None,,,,,,,,,,,,174.3127788999991,None,a,1,0.5262308000092162,174.3127788999991,None,,,,,24,001,2022_Oct_23_1743,Version4,2021.2.0,239.67940484232034,
blue_congruent,1,a,left,blue,-0.6,,,,,1,5,11,0,,,,,,,,,,,174.85508510000363,None,,,,,,,,,,,,175.92273650001152,None,a,1,0.5327972000086447,175.92273650001152,None,,,,,24,001,2022_Oct_23_1743,Version4,2021.2.0,239.67940484232034,
blue_incongruent,0,a,right,blue,0.6,,,,,2,0,12,2,,,,,,,,,,,176.47347520000767,None,,,,,,,,,,,,177.6287396000116,None,a,1,0.5147070999955758,177.6287396000116,None,,,,,24,001,2022_Oct_23_1743,Version4,2021.2.0,239.67940484232034,
red_incongruent,0,k,left,red,-0.6,,,,,2,1,13,3,,,,,,,,,,,178.16285659999994,None,,,,,,,,,,,,179.2305858000036,None,k,1,0.5530679000075907,179.2305858000036,None,,,,,24,001,2022_Oct_23_1743,Version4,2021.2.0,239.67940484232034,
red_congruent,1,k,right,red,0.6,,,,,2,2,14,1,,,,,,,,,,,179.79768899999908,None,,,,,,,,,,,,181.01600230000622,None,k,1,0.6639263999968534,181.01600230000622,None,,,,,24,001,2022_Oct_23_1743,Version4,2021.2.0,239.67940484232034,
blue_incongruent,0,a,right,blue,0.6,,,,,2,3,15,2,,,,,,,,,,,181.69154530001106,None,,,,,,,,,,,,182.8260971999989,None,a,1,0.6140746000019135,182.8260971999989,None,,,,,24,001,2022_Oct_23_1743,Version4,2021.2.0,239.67940484232034,
blue_neutral,0,a,middle,blue,0,,,,,2,4,16,5,,,,,,,,,,,183.4515839000087,None,,,,,,,,,,,,184.4609582999983,None,a,1,0.627486500001396,184.4609582999983,None,,,,,24,001,2022_Oct_23_1743,Version4,2021.2.0,239.67940484232034,
red_neutral,0,k,middle,red,0,,,,,2,5,17,4,,,,,,,,,,,185.103654800012,None,,,,,,,,,,,,186.14609090000158,None,k,1,0.6945830000040587,186.14609090000158,None,,,,,24,001,2022_Oct_23_1743,Version4,2021.2.0,239.67940484232034,
red_congruent,1,k,right,red,0.6,,,,,3,0,18,1,,,,,,,,,,,186.85537340000155,None,,,,,,,,,,,,187.95215720000851,None,k,1,0.4249710000003688,187.95215720000851,None,,,,,24,001,2022_Oct_23_1743,Version4,2021.2.0,239.67940484232034,
red_neutral,0,k,middle,red,0,,,,,3,1,19,4,,,,,,,,,,,188.39430520001042,None,,,,,,,,,,,,189.65398400000413,None,k,1,0.3712415000045439,189.65398400000413,None,,,,,24,001,2022_Oct_23_1743,Version4,2021.2.0,239.67940484232034,
blue_incongruent,0,a,right,blue,0.6,,,,,3,2,20,2,,,,,,,,,,,190.04205460000958,None,,,,,,,,,,,,191.10968970000977,None,a,1,0.6516452999931062,191.10968970000977,None,,,,,24,001,2022_Oct_23_1743,Version4,2021.2.0,239.67940484232034,
blue_congruent,1,a,left,blue,-0.6,,,,,3,3,21,0,,,,,,,,,,,191.77708850000636,None,,,,,,,,,,,,192.93663900000683,None,a,1,0.9449456000002101,192.93663900000683,None,,,,,24,001,2022_Oct_23_1743,Version4,2021.2.0,239.67940484232034,
red_neutral,0,k,middle,red,0,,,,,3,4,22,4,,,,,,,,,,,193.90015190000122,None,,,,,,,,,,,,194.9556639000075,None,k,1,0.53416599999764,194.9556639000075,None,,,,,24,001,2022_Oct_23_1743,Version4,2021.2.0,239.67940484232034,
red_congruent,1,k,right,red,0.6,,,,,3,5,23,1,,,,,,,,,,,195.50627740001073,None,,,,,,,,,,,,196.5654712000105,None,k,1,0.5885803999990458,196.5654712000105,None,,,,,24,001,2022_Oct_23_1743,Version4,2021.2.0,239.67940484232034,
red_congruent,1,k,right,red,0.6,,,,,4,0,24,1,,,,,,,,,,,197.16659410001012,None,,,,,,,,,,,,198.32986650000385,None,k,1,0.4167396999982884,198.32986650000385,None,,,,,24,001,2022_Oct_23_1743,Version4,2021.2.0,239.67940484232034,
blue_congruent,1,a,left,blue,-0.6,,,,,4,1,25,0,,,,,,,,,,,198.7596535000048,None,,,,,,,,,,,,199.79400650000025,None,a,1,0.5924720000039088,199.79400650000025,None,,,,,24,001,2022_Oct_23_1743,Version4,2021.2.0,239.67940484232034,
red_incongruent,0,k,left,red,-0.6,,,,,4,2,26,3,,,,,,,,,,,200.40295750000223,None,,,,,,,,,,,,201.49990930000786,None,k,1,0.9912672999926144,201.49990930000786,None,,,,,24,001,2022_Oct_23_1743,Version4,2021.2.0,239.67940484232034,
red_neutral,0,k,middle,red,0,,,,,4,3,27,4,,,,,,,,,,,202.5094744000089,None,,,,,,,,,,,,203.6566099000047,None,k,1,0.5464021000079811,203.6566099000047,None,,,,,24,001,2022_Oct_23_1743,Version4,2021.2.0,239.67940484232034,
blue_neutral,0,a,middle,blue,0,,,,,4,4,28,5,,,,,,,,,,,204.21545400000468,None,,,,,,,,,,,,205.31673750000482,None,a,1,0.6385473999980604,205.31673750000482,None,,,,,24,001,2022_Oct_23_1743,Version4,2021.2.0,239.67940484232034,
blue_incongruent,0,a,right,blue,0.6,,,,,4,5,29,2,,,,,,,,,,,205.96726590000617,None,,,,,,,,,,,,207.08920729999954,None,a,1,1.602567199995974,207.08920729999954,None,,,,,24,001,2022_Oct_23_1743,Version4,2021.2.0,239.67940484232034,
red_congruent,1,k,right,red,0.6,,,,,5,0,30,1,,,,,,,,,,,208.70770320000884,None,,,,,,,,,,,,209.77951000000758,None,k,1,0.5286468999984208,209.77951000000758,None,,,,,24,001,2022_Oct_23_1743,Version4,2021.2.0,239.67940484232034,
blue_congruent,1,a,left,blue,-0.6,,,,,5,1,31,0,,,,,,,,,,,210.32592370000202,None,,,,,,,,,,,,211.44378630000574,None,a,1,0.8563372999924468,211.44378630000574,None,,,,,24,001,2022_Oct_23_1743,Version4,2021.2.0,239.67940484232034,
red_incongruent,0,k,left,red,-0.6,,,,,5,2,32,3,,,,,,,,,,,212.31136130000232,None,,,,,,,,,,,,213.40848160001042,None,k,1,0.8439358999894466,213.40848160001042,None,,,,,24,001,2022_Oct_23_1743,Version4,2021.2.0,239.67940484232034,
blue_congruent,1,a,left,blue,-0.6,,,,,5,3,33,0,,,,,,,,,,,214.267740700001,None,,,,,,,,,,,,215.398099500002,None,a,1,0.6145420999964699,215.398099500002,None,,,,,24,001,2022_Oct_23_1743,Version4,2021.2.0,239.67940484232034,
red_congruent,1,k,right,red,0.6,,,,,5,4,34,1,,,,,,,,,,,216.02385640000284,None,,,,,,,,,,,,217.14584959999775,None,k,1,0.44306720000167843,217.14584959999775,None,,,,,24,001,2022_Oct_23_1743,Version4,2021.2.0,239.67940484232034,
red_neutral,0,k,middle,red,0,,,,,5,5,35,4,,,,,,,,,,,217.60472070000833,None,,,,,,,,,,,,218.67223530000774,None,k,1,2.8851482000027318,218.67223530000774,None,,,,,24,001,2022_Oct_23_1743,Version4,2021.2.0,239.67940484232034,
red_incongruent,0,k,left,red,-0.6,,,,,6,0,36,3,,,,,,,,,,,221.57121930000721,None,,,,,,,,,,,,222.66417270000966,None,k,1,0.501540199998999,222.66417270000966,None,,,,,24,001,2022_Oct_23_1743,Version4,2021.2.0,239.67940484232034,
blue_neutral,0,a,middle,blue,0,,,,,6,1,37,5,,,,,,,,,,,223.1813897000102,None,,,,,,,,,,,,224.29081760000554,None,a,1,0.5470069000002695,224.29081760000554,None,,,,,24,001,2022_Oct_23_1743,Version4,2021.2.0,239.67940484232034,
red_incongruent,0,k,left,red,-0.6,,,,,6,2,38,3,,,,,,,,,,,224.84979820001172,None,,,,,,,,,,,,225.9676618000085,None,k,1,1.4225473999977112,225.9676618000085,None,,,,,24,001,2022_Oct_23_1743,Version4,2021.2.0,239.67940484232034,
blue_neutral,0,a,middle,blue,0,,,,,6,3,39,5,,,,,,,,,,,227.40251330001047,None,,,,,,,,,,,,228.51606829999946,None,a,1,1.6905246999958763,228.51606829999946,None,,,,,24,001,2022_Oct_23_1743,Version4,2021.2.0,239.67940484232034,
red_incongruent,0,k,left,red,-0.6,,,,,6,4,40,3,,,,,,,,,,,230.21800639999856,None,,,,,,,,,,,,231.31495770000038,None,k,1,0.6599953999975696,231.31495770000038,None,,,,,24,001,2022_Oct_23_1743,Version4,2021.2.0,239.67940484232034,
blue_neutral,0,a,middle,blue,0,,,,,6,5,41,5,,,,,,,,,,,231.99073090001184,None,,,,,,,,,,,,233.2128398000059,None,a,1,1.0262900999950944,233.2128398000059,None,,,,,24,001,2022_Oct_23_1743,Version4,2021.2.0,239.67940484232034,
blue_neutral,0,a,middle,blue,0,,,,,7,0,42,5,,,,,,,,,,,234.2556356999994,None,,,,,,,,,,,,235.32342159999826,None,a,1,0.6522465000016382,235.32342159999826,None,,,,,24,001,2022_Oct_23_1743,Version4,2021.2.0,239.67940484232034,
blue_neutral,0,a,middle,blue,0,,,,,7,1,43,5,,,,,,,,,,,235.9908340000111,None,,,,,,,,,,,,237.13394759999937,None,a,1,0.633770700005698,237.13394759999937,None,,,,,24,001,2022_Oct_23_1743,Version4,2021.2.0,239.67940484232034,
blue_incongruent,0,a,right,blue,0.6,,,,,7,2,44,2,,,,,,,,,,,237.78436360000342,None,,,,,,,,,,,,238.88970800000243,None,a,1,1.374237500000163,238.88970800000243,None,,,,,24,001,2022_Oct_23_1743,Version4,2021.2.0,239.67940484232034,
blue_incongruent,0,a,right,blue,0.6,,,,,7,3,45,2,,,,,,,,,,,240.28285040000628,None,,,,,,,,,,,,241.35067330001038,None,a,1,0.36948449999908917,241.35067330001038,None,,,,,24,001,2022_Oct_23_1743,Version4,2021.2.0,239.67940484232034,
red_neutral,0,k,middle,red,0,,,,,7,4,46,4,,,,,,,,,,,241.7344710000034,None,,,,,,,,,,,,242.80207180000434,None,k,1,0.43833570000424515,242.80207180000434,None,,,,,24,001,2022_Oct_23_1743,Version4,2021.2.0,239.67940484232034,
blue_incongruent,0,a,right,blue,0.6,,,,,7,5,47,2,,,,,,,,,,,243.2526860000071,None,,,,,,,,,,,,244.47478090001096,None,a,1,0.5579739999957383,244.47478090001096,None,,,,,24,001,2022_Oct_23_1743,Version4,2021.2.0,239.67940484232034,
,,,,,,,,,,,,,,,,,,,,,,,,,,,,,,,,,,,,,,,,,,,,space,5.074480299997958,,,24,001,2022_Oct_23_1743,Version4,2021.2.0,239.67940484232034,
blue_neutral,0,a,middle,blue,0,,,,,,,,,0,0,0,5,,,,,,,250.1599930000084,None,,,,,,,,,,,,251.19025630000397,None,a,1,2.11546040000394,251.19025630000397,None,,,,,24,001,2022_Oct_23_1743,Version4,2021.2.0,239.67940484232034,
red_incongruent,0,k,left,red,-0.6,,,,,,,,,0,1,1,3,,,,,,,253.3173536000104,None,,,,,,,,,,,,254.47706980000657,None,k,1,0.5648826999968151,254.47706980000657,None,,,,,24,001,2022_Oct_23_1743,Version4,2021.2.0,239.67940484232034,
blue_incongruent,0,a,right,blue,0.6,,,,,,,,,0,2,2,2,,,,,,,255.0608685000043,None,,,,,,,,,,,,256.08293770000455,None,a,1,1.727562800006126,256.08293770000455,None,,,,,24,001,2022_Oct_23_1743,Version4,2021.2.0,239.67940484232034,
blue_congruent,1,a,left,blue,-0.6,,,,,,,,,0,3,3,0,,,,,,,257.8264540000091,None,,,,,,,,,,,,258.9569516000047,None,a,1,0.8696865000092657,258.9569516000047,None,,,,,24,001,2022_Oct_23_1743,Version4,2021.2.0,239.67940484232034,
blue_congruent,1,a,left,blue,-0.6,,,,,,,,,0,4,4,0,,,,,,,259.8410769000038,None,,,,,,,,,,,,261.09659480000846,None,a,1,0.4664130000019213,261.09659480000846,None,,,,,24,001,2022_Oct_23_1743,Version4,2021.2.0,239.67940484232034,
red_neutral,0,k,middle,red,0,,,,,,,,,0,5,5,4,,,,,,,261.57566830000724,None,,,,,,,,,,,,262.8359446000104,None,k,1,0.7033379999920726,262.8359446000104,None,,,,,24,001,2022_Oct_23_1743,Version4,2021.2.0,239.67940484232034,
blue_congruent,1,a,left,blue,-0.6,,,,,,,,,1,0,6,0,,,,,,,263.5534168000013,None,,,,,,,,,,,,264.6418776000064,None,a,1,0.47346129998913966,264.6418776000064,None,,,,,24,001,2022_Oct_23_1743,Version4,2021.2.0,239.67940484232034,
red_congruent,1,k,right,red,0.6,,,,,,,,,1,1,7,1,,,,,,,265.1300246000028,None,,,,,,,,,,,,266.2854742000054,None,k,1,0.47813160000077914,266.2854742000054,None,,,,,24,001,2022_Oct_23_1743,Version4,2021.2.0,239.67940484232034,
red_incongruent,0,k,left,red,-0.6,,,,,,,,,1,2,8,3,,,,,,,266.7776240000094,None,,,,,,,,,,,,267.92883879999863,None,k,1,0.9470204000099329,267.92883879999863,None,,,,,24,001,2022_Oct_23_1743,Version4,2021.2.0,239.67940484232034,
blue_neutral,0,a,middle,blue,0,,,,,,,,,1,3,9,5,,,,,,,268.88820900001156,None,,,,,,,,,,,,269.96015690000786,None,a,1,0.7319512999965809,269.96015690000786,None,,,,,24,001,2022_Oct_23_1743,Version4,2021.2.0,239.67940484232034,
red_neutral,0,k,middle,red,0,,,,,,,,,1,4,10,4,,,,,,,270.70261000000755,None,,,,,,,,,,,,271.787107000011,None,k,1,0.9372528999956558,271.787107000011,None,,,,,24,001,2022_Oct_23_1743,Version4,2021.2.0,239.67940484232034,
red_congruent,1,k,right,red,0.6,,,,,,,,,1,5,11,1,,,,,,,272.73811289999867,None,,,,,,,,,,,,273.8434569000092,None,k,1,2.8974950999981957,273.8434569000092,None,,,,,24,001,2022_Oct_23_1743,Version4,2021.2.0,239.67940484232034,
blue_congruent,1,a,left,blue,-0.6,,,,,,,,,2,0,12,0,,,,,,,276.75486790000286,None,,,,,,,,,,,,277.8685458000109,None,a,1,0.5368936000013491,277.8685458000109,None,,,,,24,001,2022_Oct_23_1743,Version4,2021.2.0,239.67940484232034,
red_incongruent,0,k,left,red,-0.6,,,,,,,,,2,1,13,3,,,,,,,278.41899080001167,None,,,,,,,,,,,,279.6329153000115,None,k,1,0.6846681000024546,279.6329153000115,None,,,,,24,001,2022_Oct_23_1743,Version4,2021.2.0,239.67940484232034,
red_congruent,1,k,right,red,0.6,,,,,,,,,2,2,14,1,,,,,,,280.3336607000092,None,,,,,,,,,,,,281.49332030001096,None,a,0,1.4724516999995103,281.49332030001096,None,,,,,24,001,2022_Oct_23_1743,Version4,2021.2.0,239.67940484232034,
red_incongruent,0,k,left,red,-0.6,,,,,,,,,2,3,15,3,,,,,,,282.97820490000595,None,,,,,,,,,,,,284.0210234999977,None,a,0,0.5770219000114594,284.0210234999977,None,,,,,24,001,2022_Oct_23_1743,Version4,2021.2.0,239.67940484232034,
red_incongruent,0,k,left,red,-0.6,,,,,,,,,2,4,16,3,,,,,,,284.6130858000106,None,,,,,,,,,,,,285.7812058999989,None,a,0,0.4010872000071686,285.7812058999989,None,,,,,24,001,2022_Oct_23_1743,Version4,2021.2.0,239.67940484232034,
blue_neutral,0,a,middle,blue,0,,,,,,,,,2,5,17,5,,,,,,,286.19810230001167,None,,,,,,,,,,,,287.2368412000069,None,k,0,0.51358079999045,287.2368412000069,None,,,,,24,001,2022_Oct_23_1743,Version4,2021.2.0,239.67940484232034,
blue_incongruent,0,a,right,blue,0.6,,,,,,,,,3,0,18,2,,,,,,,287.76238349999767,None,,,,,,,,,,,,288.876067300007,None,k,0,1.1466605000023264,288.876067300007,None,,,,,24,001,2022_Oct_23_1743,Version4,2021.2.0,239.67940484232034,
blue_neutral,0,a,middle,blue,0,,,,,,,,,3,1,19,5,,,,,,,290.0357018000068,None,,,,,,,,,,,,291.1369057999982,None,a,1,1.5822359999874607,291.1369057999982,None,,,,,24,001,2022_Oct_23_1743,Version4,2021.2.0,239.67940484232034,
blue_incongruent,0,a,right,blue,0.6,,,,,,,,,3,2,20,2,,,,,,,292.7301659000077,None,,,,,,,,,,,,293.94395060000534,None,a,1,0.6314374000066891,293.94395060000534,None,,,,,24,001,2022_Oct_23_1743,Version4,2021.2.0,239.67940484232034,
red_neutral,0,k,middle,red,0,,,,,,,,,3,3,21,4,,,,,,,294.5863129000063,None,,,,,,,,,,,,295.6958062000049,None,k,1,2.2240084999939427,295.6958062000049,None,,,,,24,001,2022_Oct_23_1743,Version4,2021.2.0,239.67940484232034,
blue_neutral,0,a,middle,blue,0,,,,,,,,,3,4,22,5,,,,,,,297.93151750000834,None,,,,,,,,,,,,299.0034891000105,None,a,1,0.6207522999902721,299.0034891000105,None,,,,,24,001,2022_Oct_23_1743,Version4,2021.2.0,239.67940484232034,
blue_neutral,0,a,middle,blue,0,,,,,,,,,3,5,23,5,,,,,,,299.64158809999935,None,,,,,,,,,,,,300.71787340000446,None,a,1,0.386647899998934,300.71787340000446,None,,,,,24,001,2022_Oct_23_1743,Version4,2021.2.0,239.67940484232034,
blue_congruent,1,a,left,blue,-0.6,,,,,,,,,4,0,24,0,,,,,,,301.11827070001164,None,,,,,,,,,,,,302.1776888000022,None,a,1,0.3429727000038838,302.1776888000022,None,,,,,24,001,2022_Oct_23_1743,Version4,2021.2.0,239.67940484232034,
red_neutral,0,k,middle,red,0,,,,,,,,,4,1,25,4,,,,,,,302.53642280001077,None,,,,,,,,,,,,303.6126130000048,None,k,1,0.48422410000057425,303.6126130000048,None,,,,,24,001,2022_Oct_23_1743,Version4,2021.2.0,239.67940484232034,
blue_congruent,1,a,left,blue,-0.6,,,,,,,,,4,2,26,0,,,,,,,304.1130717000051,None,,,,,,,,,,,,305.2725705000048,None,a,1,0.8167969000060111,305.2725705000048,None,,,,,24,001,2022_Oct_23_1743,Version4,2021.2.0,239.67940484232034,
red_congruent,1,k,right,red,0.6,,,,,,,,,4,3,27,1,,,,,,,306.1028510000033,None,,,,,,,,,,,,307.2456058000098,None,k,1,1.027638500003377,307.2456058000098,None,,,,,24,001,2022_Oct_23_1743,Version4,2021.2.0,239.67940484232034,
blue_incongruent,0,a,right,blue,0.6,,,,,,,,,4,4,28,2,,,,,,,308.2925307999976,None,,,,,,,,,,,,309.46039480000036,None,a,1,0.5012762999976985,309.46039480000036,None,,,,,24,001,2022_Oct_23_1743,Version4,2021.2.0,239.67940484232034,
blue_neutral,0,a,middle,blue,0,,,,,,,,,4,5,29,5,,,,,,,309.97762330000114,None,,,,,,,,,,,,311.0704478999978,None,a,1,1.1073291999928188,311.0704478999978,None,,,,,24,001,2022_Oct_23_1743,Version4,2021.2.0,239.67940484232034,
red_neutral,0,k,middle,red,0,,,,,,,,,5,0,30,4,,,,,,,312.1966405999992,None,,,,,,,,,,,,313.3603732000047,None,k,1,1.4657693000044674,313.3603732000047,None,,,,,24,001,2022_Oct_23_1743,Version4,2021.2.0,239.67940484232034,
red_neutral,0,k,middle,red,0,,,,,,,,,5,1,31,4,,,,,,,314.8453242000105,None,,,,,,,,,,,,315.89236700000765,None,k,1,0.5020296000002418,315.89236700000765,None,,,,,24,001,2022_Oct_23_1743,Version4,2021.2.0,239.67940484232034,
red_congruent,1,k,right,red,0.6,,,,,,,,,5,2,32,1,,,,,,,316.4051701999997,None,,,,,,,,,,,,317.5689272000018,None,k,1,0.8980161000072258,317.5689272000018,None,,,,,24,001,2022_Oct_23_1743,Version4,2021.2.0,239.67940484232034,
blue_neutral,0,a,middle,blue,0,,,,,,,,,5,3,33,5,,,,,,,318.4825267999986,None,,,,,,,,,,,,319.57530280000356,None,a,1,0.46770230001129676,319.57530280000356,None,,,,,24,001,2022_Oct_23_1743,Version4,2021.2.0,239.67940484232034,
red_incongruent,0,k,left,red,-0.6,,,,,,,,,5,4,34,3,,,,,,,320.0591810000042,None,,,,,,,,,,,,321.1603444000066,None,k,1,0.8671303000010084,321.1603444000066,None,,,,,24,001,2022_Oct_23_1743,Version4,2021.2.0,239.67940484232034,
red_congruent,1,k,right,red,0.6,,,,,,,,,5,5,35,1,,,,,,,322.03981750000094,None,,,,,,,,,,,,323.06232610000006,None,k,1,0.6212588000053074,323.06232610000006,None,,,,,24,001,2022_Oct_23_1743,Version4,2021.2.0,239.67940484232034,
red_neutral,0,k,middle,red,0,,,,,,,,,6,0,36,4,,,,,,,323.7005011000001,None,,,,,,,,,,,,324.8393408999982,None,k,1,0.3403470000048401,324.8393408999982,None,,,,,24,001,2022_Oct_23_1743,Version4,2021.2.0,239.67940484232034,
blue_incongruent,0,a,right,blue,0.6,,,,,,,,,6,1,37,2,,,,,,,325.19795790000353,None,,,,,,,,,,,,326.332475800009,None,a,1,0.5435402000002796,326.332475800009,None,,,,,24,001,2022_Oct_23_1743,Version4,2021.2.0,239.67940484232034,
red_incongruent,0,k,left,red,-0.6,,,,,,,,,6,2,38,3,,,,,,,326.89140829999815,None,,,,,,,,,,,,328.06348389999766,None,k,1,0.6366975999990245,328.06348389999766,None,,,,,24,001,2022_Oct_23_1743,Version4,2021.2.0,239.67940484232034,
red_incongruent,0,k,left,red,-0.6,,,,,,,,,6,3,39,3,,,,,,,328.71835490000376,None,,,,,,,,,,,,329.85703850000573,None,k,1,1.0196029000071576,329.85703850000573,None,,,,,24,001,2022_Oct_23_1743,Version4,2021.2.0,239.67940484232034,
blue_incongruent,0,a,right,blue,0.6,,,,,,,,,6,4,40,2,,,,,,,330.891495200005,None,,,,,,,,,,,,331.9634956000082,None,a,1,0.6251916000037454,331.9634956000082,None,,,,,24,001,2022_Oct_23_1743,Version4,2021.2.0,239.67940484232034,
blue_incongruent,0,a,right,blue,0.6,,,,,,,,,6,5,41,2,,,,,,,332.605845099999,None,,,,,,,,,,,,333.8029341000074,None,a,1,2.5224577999906614,333.8029341000074,None,,,,,24,001,2022_Oct_23_1743,Version4,2021.2.0,239.67940484232034,
red_neutral,0,k,middle,red,0,,,,,,,,,7,0,42,4,,,,,,,336.33475819999876,None,,,,,,,,,,,,337.3608419000084,None,k,1,0.6207560000038939,337.3608419000084,None,,,,,24,001,2022_Oct_23_1743,Version4,2021.2.0,239.67940484232034,
blue_congruent,1,a,left,blue,-0.6,,,,,,,,,7,1,43,0,,,,,,,337.99486800000886,None,,,,,,,,,,,,339.2254433000053,None,a,1,0.41213739999511745,339.2254433000053,None,,,,,24,001,2022_Oct_23_1743,Version4,2021.2.0,239.67940484232034,
blue_congruent,1,a,left,blue,-0.6,,,,,,,,,7,2,44,0,,,,,,,339.65084200000274,None,,,,,,,,,,,,340.710227100004,None,a,1,0.35150800000701565,340.710227100004,None,,,,,24,001,2022_Oct_23_1743,Version4,2021.2.0,239.67940484232034,
red_congruent,1,k,right,red,0.6,,,,,,,,,7,3,45,1,,,,,,,341.0730755000113,None,,,,,,,,,,,,342.17833530000644,None,k,1,0.4435639000002993,342.17833530000644,None,,,,,24,001,2022_Oct_23_1743,Version4,2021.2.0,239.67940484232034,
blue_incongruent,0,a,right,blue,0.6,,,,,,,,,7,4,46,2,,,,,,,342.6371458000067,None,,,,,,,,,,,,343.73009060000186,None,a,1,0.5961017000081483,343.73009060000186,None,,,,,24,001,2022_Oct_23_1743,Version4,2021.2.0,239.67940484232034,
red_congruent,1,k,right,red,0.6,,,,,,,,,7,5,47,1,,,,,,,344.33907090000866,None,,,,,,,,,,,,345.5403338000033,None,k,1,0.9783527999970829,345.5403338000033,None,,,,,24,001,2022_Oct_23_1743,Version4,2021.2.0,239.67940484232034,
,,,,,,,,,,,,,,,,,,,,,,,,,,,,,,,,,,,,,,,,,,,,space,2.197889100003522,,,24,001,2022_Oct_23_1743,Version4,2021.2.0,239.67940484232034,
red_neutral,0,k,middle,red,0,,,,,,,,,,,,,0,0,0,4,,,348.7686659000028,None,,,,,,,,,,,,349.9578049999982,None,k,1,5.569903499999782,349.9578049999982,None,,,,,24,001,2022_Oct_23_1743,Version4,2021.2.0,239.67940484232034,
blue_incongruent,0,a,right,blue,0.6,,,,,,,,,,,,,0,1,1,2,,,355.5466701000114,None,,,,,,,,,,,,356.6228225000086,None,a,1,0.9291507000016281,356.6228225000086,None,,,,,24,001,2022_Oct_23_1743,Version4,2021.2.0,239.67940484232034,
blue_incongruent,0,a,right,blue,0.6,,,,,,,,,,,,,0,2,2,2,,,357.5654924999981,None,,,,,,,,,,,,358.6791586000036,None,a,1,1.281126600006246,358.6791586000036,None,,,,,24,001,2022_Oct_23_1743,Version4,2021.2.0,239.67940484232034,
blue_congruent,1,a,left,blue,-0.6,,,,,,,,,,,,,0,3,3,0,,,359.9722091000003,None,,,,,,,,,,,,361.1192544000078,None,a,1,0.4173002000025008,361.1192544000078,None,,,,,24,001,2022_Oct_23_1743,Version4,2021.2.0,239.67940484232034,
blue_neutral,0,a,middle,blue,0,,,,,,,,,,,,,0,4,4,5,,,361.5489411000017,None,,,,,,,,,,,,362.7668459999986,None,a,1,0.44196570001076907,362.7668459999986,None,,,,,24,001,2022_Oct_23_1743,Version4,2021.2.0,239.67940484232034,
red_neutral,0,k,middle,red,0,,,,,,,,,,,,,0,5,5,4,,,363.22578410001006,None,,,,,,,,,,,,364.3268903999997,None,k,1,0.3700546000036411,364.3268903999997,None,,,,,24,001,2022_Oct_23_1743,Version4,2021.2.0,239.67940484232034,
blue_incongruent,0,a,right,blue,0.6,,,,,,,,,,,,,1,0,6,2,,,364.71056770000723,None,,,,,,,,,,,,365.73246970000037,None,a,1,0.5886969000130193,365.73246970000037,None,,,,,24,001,2022_Oct_23_1743,Version4,2021.2.0,239.67940484232034,
red_incongruent,0,k,left,red,-0.6,,,,,,,,,,,,,1,1,7,3,,,366.33728020000854,None,,,,,,,,,,,,367.5093701000005,None,k,1,0.8280642000027001,367.5093701000005,None,,,,,24,001,2022_Oct_23_1743,Version4,2021.2.0,239.67940484232034,
blue_congruent,1,a,left,blue,-0.6,,,,,,,,,,,,,1,2,8,0,,,368.35191750001104,None,,,,,,,,,,,,369.37385040000663,None,a,1,0.6038258000044152,369.37385040000663,None,,,,,24,001,2022_Oct_23_1743,Version4,2021.2.0,239.67940484232034,
blue_congruent,1,a,left,blue,-0.6,,,,,,,,,,,,,1,3,9,0,,,369.99116720000166,None,,,,,,,,,,,,371.1257001000049,None,a,1,0.460229000003892,371.1257001000049,None,,,,,24,001,2022_Oct_23_1743,Version4,2021.2.0,239.67940484232034,
red_neutral,0,k,middle,red,0,,,,,,,,,,,,,1,4,10,4,,,371.6014131999982,None,,,,,,,,,,,,372.8110686,None,k,1,6.903957000002265,372.8110686,None,,,,,24,001,2022_Oct_23_1743,Version4,2021.2.0,239.67940484232034,
red_incongruent,0,k,left,red,-0.6,,,,,,,,,,,,,1,5,11,3,,,379.73090850000153,None,,,,,,,,,,,,380.80296539999836,None,k,1,0.5763028999936068,380.80296539999836,None,,,,,24,001,2022_Oct_23_1743,Version4,2021.2.0,239.67940484232034,
red_incongruent,0,k,left,red,-0.6,,,,,,,,,,,,,2,0,12,3,,,381.39520240000274,None,,,,,,,,,,,,382.5545736000058,None,k,1,0.46487660000275355,382.5545736000058,None,,,,,24,001,2022_Oct_23_1743,Version4,2021.2.0,239.67940484232034,
blue_incongruent,0,a,right,blue,0.6,,,,,,,,,,,,,2,1,13,2,,,383.0384739000001,None,,,,,,,,,,,,384.23127610000665,None,a,1,0.9884782000008272,384.23127610000665,None,,,,,24,001,2022_Oct_23_1743,Version4,2021.2.0,239.67940484232034,
blue_congruent,1,a,left,blue,-0.6,,,,,,,,,,,,,2,2,14,0,,,385.232488300011,None,,,,,,,,,,,,386.3668755000108,None,a,1,4.13363599999866,386.3668755000108,None,,,,,24,001,2022_Oct_23_1743,Version4,2021.2.0,239.67940484232034,
red_congruent,1,k,right,red,0.6,,,,,,,,,,,,,2,3,15,1,,,390.5132442000031,None,,,,,,,,,,,,391.7016905000055,None,k,1,0.5990416999993613,391.7016905000055,None,,,,,24,001,2022_Oct_23_1743,Version4,2021.2.0,239.67940484232034,
blue_incongruent,0,a,right,blue,0.6,,,,,,,,,,,,,2,4,16,2,,,392.3143810000038,None,,,,,,,,,,,,393.39100490001147,None,a,1,0.5259398999914993,393.39100490001147,None,,,,,24,001,2022_Oct_23_1743,Version4,2021.2.0,239.67940484232034,
blue_congruent,1,a,left,blue,-0.6,,,,,,,,,,,,,2,5,17,0,,,393.9332465000043,None,,,,,,,,,,,,395.02187609999964,None,a,1,1.2553943000093568,395.02187609999964,None,,,,,24,001,2022_Oct_23_1743,Version4,2021.2.0,239.67940484232034,
blue_neutral,0,a,middle,blue,0,,,,,,,,,,,,,3,0,18,5,,,396.290067599999,None,,,,,,,,,,,,397.3910598000075,None,a,1,0.4624275999958627,397.3910598000075,None,,,,,24,001,2022_Oct_23_1743,Version4,2021.2.0,239.67940484232034,
blue_congruent,1,a,left,blue,-0.6,,,,,,,,,,,,,3,1,19,0,,,397.86663780000526,None,,,,,,,,,,,,399.1054516000004,None,a,1,0.4922682000033092,399.1054516000004,None,,,,,24,001,2022_Oct_23_1743,Version4,2021.2.0,239.67940484232034,
blue_neutral,0,a,middle,blue,0,,,,,,,,,,,,,3,2,20,5,,,399.61440940000466,None,,,,,,,,,,,,400.8409423999983,None,a,1,0.5735680999932811,400.8409423999983,None,,,,,24,001,2022_Oct_23_1743,Version4,2021.2.0,239.67940484232034,
red_incongruent,0,k,left,red,-0.6,,,,,,,,,,,,,3,3,21,3,,,401.43302080000285,None,,,,,,,,,,,,402.54655120000825,None,k,1,0.4516257999930531,402.54655120000825,None,,,,,24,001,2022_Oct_23_1743,Version4,2021.2.0,239.67940484232034,
red_congruent,1,k,right,red,0.6,,,,,,,,,,,,,3,4,22,1,,,403.01397369999904,None,,,,,,,,,,,,404.1149454999977,None,k,1,0.38747119999607094,404.1149454999977,None,,,,,24,001,2022_Oct_23_1743,Version4,2021.2.0,239.67940484232034,
red_incongruent,0,k,left,red,-0.6,,,,,,,,,,,,,3,5,23,3,,,404.5154356999992,None,,,,,,,,,,,,405.6039443000045,None,k,1,0.35466599999926984,405.6039443000045,None,,,,,24,001,2022_Oct_23_1743,Version4,2021.2.0,239.67940484232034,
red_neutral,0,k,middle,red,0,,,,,,,,,,,,,4,0,24,4,,,405.97119690000545,None,,,,,,,,,,,,407.0262900000089,None,k,1,0.41261389999999665,407.0262900000089,None,,,,,24,001,2022_Oct_23_1743,Version4,2021.2.0,239.67940484232034,
blue_incongruent,0,a,right,blue,0.6,,,,,,,,,,,,,4,1,25,2,,,407.451724700004,None,,,,,,,,,,,,408.60710140000447,None,a,1,0.5120716999954311,408.60710140000447,None,,,,,24,001,2022_Oct_23_1743,Version4,2021.2.0,239.67940484232034,
blue_neutral,0,a,middle,blue,0,,,,,,,,,,,,,4,2,26,5,,,409.1326676000026,None,,,,,,,,,,,,410.3506522000098,None,a,1,0.6486182999942685,410.3506522000098,None,,,,,24,001,2022_Oct_23_1743,Version4,2021.2.0,239.67940484232034,
red_congruent,1,k,right,red,0.6,,,,,,,,,,,,,4,3,27,1,,,411.0180307999981,None,,,,,,,,,,,,412.1068393000023,None,k,1,0.4446529999986524,412.1068393000023,None,,,,,24,001,2022_Oct_23_1743,Version4,2021.2.0,239.67940484232034,
red_neutral,0,k,middle,red,0,,,,,,,,,,,,,4,4,28,4,,,412.56995520000055,None,,,,,,,,,,,,413.60838050000893,None,k,1,0.527322699999786,413.60838050000893,None,,,,,24,001,2022_Oct_23_1743,Version4,2021.2.0,239.67940484232034,
blue_neutral,0,a,middle,blue,0,,,,,,,,,,,,,4,5,29,5,,,414.1507011000067,None,,,,,,,,,,,,415.23937020001176,None,a,1,0.8087787999975262,415.23937020001176,None,,,,,24,001,2022_Oct_23_1743,Version4,2021.2.0,239.67940484232034,
red_neutral,0,k,middle,red,0,,,,,,,,,,,,,5,0,30,4,,,416.0650488000101,None,,,,,,,,,,,,417.27894540000125,None,k,1,1.6494469000026584,417.27894540000125,None,,,,,24,001,2022_Oct_23_1743,Version4,2021.2.0,239.67940484232034,
blue_incongruent,0,a,right,blue,0.6,,,,,,,,,,,,,5,1,31,2,,,418.9433144000068,None,,,,,,,,,,,,420.0443904999993,None,a,1,0.868454199997359,420.0443904999993,None,,,,,24,001,2022_Oct_23_1743,Version4,2021.2.0,239.67940484232034,
red_congruent,1,k,right,red,0.6,,,,,,,,,,,,,5,2,32,1,,,420.9286718000076,None,,,,,,,,,,,,422.07996390000335,None,k,1,0.9049687000078848,422.07996390000335,None,,,,,24,001,2022_Oct_23_1743,Version4,2021.2.0,239.67940484232034,
blue_incongruent,0,a,right,blue,0.6,,,,,,,,,,,,,5,3,33,2,,,422.9975256000034,None,,,,,,,,,,,,424.1028517000086,None,a,1,0.6103074999991804,424.1028517000086,None,,,,,24,001,2022_Oct_23_1743,Version4,2021.2.0,239.67940484232034,
red_congruent,1,k,right,red,0.6,,,,,,,,,,,,,5,4,34,1,,,424.7285324000113,None,,,,,,,,,,,,425.9129697000026,None,k,1,0.4247685000009369,425.9129697000026,None,,,,,24,001,2022_Oct_23_1743,Version4,2021.2.0,239.67940484232034,
red_congruent,1,k,right,red,0.6,,,,,,,,,,,,,5,5,35,1,,,426.3510801000084,None,,,,,,,,,,,,427.4939557000034,None,k,1,0.9237228999991203,427.4939557000034,None,,,,,24,001,2022_Oct_23_1743,Version4,2021.2.0,239.67940484232034,
blue_congruent,1,a,left,blue,-0.6,,,,,,,,,,,,,6,0,36,0,,,428.43663209999795,None,,,,,,,,,,,,429.4501925000077,None,a,1,1.0960679999989225,429.4501925000077,None,,,,,24,001,2022_Oct_23_1743,Version4,2021.2.0,239.67940484232034,
red_congruent,1,k,right,red,0.6,,,,,,,,,,,,,6,1,37,1,,,430.5595764000027,None,,,,,,,,,,,,431.75690790000954,None,k,1,1.0853930000012042,431.75690790000954,None,,,,,24,001,2022_Oct_23_1743,Version4,2021.2.0,239.67940484232034,
red_neutral,0,k,middle,red,0,,,,,,,,,,,,,6,2,38,4,,,432.8578944000037,None,,,,,,,,,,,,433.942472499999,None,k,1,0.564027399988845,433.942472499999,None,,,,,24,001,2022_Oct_23_1743,Version4,2021.2.0,239.67940484232034,
red_incongruent,0,k,left,red,-0.6,,,,,,,,,,,,,6,3,39,3,,,434.51812820001214,None,,,,,,,,,,,,435.5902927999996,None,k,1,0.6446695000049658,435.5902927999996,None,,,,,24,001,2022_Oct_23_1743,Version4,2021.2.0,239.67940484232034,
red_congruent,1,k,right,red,0.6,,,,,,,,,,,,,6,4,40,1,,,436.24909070000285,None,,,,,,,,,,,,437.4126585000049,None,k,1,0.3982986000046367,437.4126585000049,None,,,,,24,001,2022_Oct_23_1743,Version4,2021.2.0,239.67940484232034,
blue_neutral,0,a,middle,blue,0,,,,,,,,,,,,,6,5,41,5,,,437.8299107000057,None,,,,,,,,,,,,438.9645038000017,None,a,1,0.31866220000665635,438.9645038000017,None,,,,,24,001,2022_Oct_23_1743,Version4,2021.2.0,239.67940484232034,
red_neutral,0,k,middle,red,0,,,,,,,,,,,,,7,0,42,4,,,439.2981514999992,None,,,,,,,,,,,,440.44529960000364,None,k,1,0.38233419999596663,440.44529960000364,None,,,,,24,001,2022_Oct_23_1743,Version4,2021.2.0,239.67940484232034,
red_incongruent,0,k,left,red,-0.6,,,,,,,,,,,,,7,1,43,3,,,440.84131689999776,None,,,,,,,,,,,,441.9967008000094,None,k,1,0.5349237000045832,441.9967008000094,None,,,,,24,001,2022_Oct_23_1743,Version4,2021.2.0,239.67940484232034,
blue_congruent,1,a,left,blue,-0.6,,,,,,,,,,,,,7,2,44,0,,,442.54322990000946,None,,,,,,,,,,,,443.58607000000484,None,a,1,0.4338841999997385,443.58607000000484,None,,,,,24,001,2022_Oct_23_1743,Version4,2021.2.0,239.67940484232034,
red_incongruent,0,k,left,red,-0.6,,,,,,,,,,,,,7,3,45,3,,,444.0365002000035,None,,,,,,,,,,,,445.2503746000002,None,k,1,0.8256727999978466,445.2503746000002,None,,,,,24,001,2022_Oct_23_1743,Version4,2021.2.0,239.67940484232034,
blue_neutral,0,a,middle,blue,0,,,,,,,,,,,,,7,4,46,5,,,446.08869720000075,None,,,,,,,,,,,,447.2942245000013,None,a,1,0.542109400004847,447.2942245000013,None,,,,,24,001,2022_Oct_23_1743,Version4,2021.2.0,239.67940484232034,
blue_neutral,0,a,middle,blue,0,,,,,,,,,,,,,7,5,47,5,,,447.85315210001136,None,,,,,,,,,,,,448.97509030000947,None,a,1,1.5338071000005584,448.97509030000947,None,,,,,24,001,2022_Oct_23_1743,Version4,2021.2.0,239.67940484232034,
,,,,,,,,,,,,,,,,,,,,,,,,,,,,,,,,,,,,,,,,,,,,space,2.621881300001405,,,24,001,2022_Oct_23_1743,Version4,2021.2.0,239.67940484232034,
,,,,,,,,,,,,,,,,,,,,,,,,,,,,,,,,,,,,,,,,,,,,,,space,2.5143410000018775,24,001,2022_Oct_23_1743,Version4,2021.2.0,239.67940484232034,
