images,congruentcy,corrAns,box_pos,box_color,box_x,pract.thisRepN,pract.thisTrialN,pract.thisN,pract.thisIndex,trials.thisRepN,trials.thisTrialN,trials.thisN,trials.thisIndex,trials_2.thisRepN,trials_2.thisTrialN,trials_2.thisN,trials_2.thisIndex,trials_3.thisRepN,trials_3.thisTrialN,trials_3.thisN,trials_3.thisIndex,key_resp_instr.keys,key_resp_instr.rt,FixCross.started,FixCross.stopped,Box_p.started,Box_p.stopped,key_resp_P.keys,key_resp_P.corr,key_resp_P.rt,key_resp_P.started,key_resp_P.stopped,text_3.started,text_3.stopped,key_resp_2.keys,key_resp_2.rt,Box.started,Box.stopped,key_resp.keys,key_resp.corr,key_resp.rt,key_resp.started,key_resp.stopped,key_resp_3.keys,key_resp_3.rt,key_resp_4.keys,key_resp_4.rt,participant,session,date,expName,psychopyVersion,frameRate,
,,,,,,,,,,,,,,,,,,,,,,space,16.37148959999999,,,,,,,,,,,,,,,,,,,,,,,,,2,001,2022_Aug_05_1708,Version4,2021.2.0,238.66234528705024,
red_neutral,0,k,middle,red,0,0,0,0,4,,,,,,,,,,,,,,,34.427413599999994,None,35.55338810000001,None,k,1,1.2688526000000024,35.55338810000001,None,,,,,,,,,,,,,,,,2,001,2022_Aug_05_1708,Version4,2021.2.0,238.66234528705024,
blue_incongruent,0,a,right,blue,0.6,0,1,1,2,,,,,,,,,,,,,,,37.838957599999986,None,38.96505149999999,None,a,1,0.6895696999999927,38.96505149999999,None,,,,,,,,,,,,,,,,2,001,2022_Aug_05_1708,Version4,2021.2.0,238.66234528705024,
blue_congruent,1,a,left,blue,-0.6,0,2,2,0,,,,,,,,,,,,,,,40.6751989,None,41.7847017,None,a,1,0.51826250000002,41.7847017,None,,,,,,,,,,,,,,,,2,001,2022_Aug_05_1708,Version4,2021.2.0,238.66234528705024,
blue_incongruent,0,a,right,blue,0.6,0,3,3,2,,,,,,,,,,,,,,,43.32385819999999,None,44.40837149999999,None,a,1,0.5749916000000042,44.40837149999999,None,,,,,,,,,,,,,,,,2,001,2022_Aug_05_1708,Version4,2021.2.0,238.66234528705024,
blue_incongruent,0,a,right,blue,0.6,0,4,4,2,,,,,,,,,,,,,,,46.00168199999999,None,47.102952999999985,None,a,1,0.5447312000000011,47.102952999999985,None,,,,,,,,,,,,,,,,2,001,2022_Aug_05_1708,Version4,2021.2.0,238.66234528705024,
red_incongruent,0,k,left,red,-0.6,0,5,5,3,,,,,,,,,,,,,,,48.6669904,None,49.7556941,None,k,1,0.6123197000000005,49.7556941,None,,,,,,,,,,,,,,,,2,001,2022_Aug_05_1708,Version4,2021.2.0,238.66234528705024,
blue_congruent,1,a,left,blue,-0.6,1,0,6,0,,,,,,,,,,,,,,,51.386568600000004,None,52.521061799999984,None,a,1,0.4793316999999888,52.521061799999984,None,,,,,,,,,,,,,,,,2,001,2022_Aug_05_1708,Version4,2021.2.0,238.66234528705024,
red_incongruent,0,k,left,red,-0.6,1,1,7,3,,,,,,,,,,,,,,,54.01851439999999,None,55.186516600000004,None,a,0,0.44628099999999904,55.186516600000004,None,,,,,,,,,,,,,,,,2,001,2022_Aug_05_1708,Version4,2021.2.0,238.66234528705024,
blue_neutral,0,a,middle,blue,0,1,2,8,5,,,,,,,,,,,,,,,56.650463099999996,None,57.7600348,None,a,1,0.8731435999999917,57.7600348,None,,,,,,,,,,,,,,,,2,001,2022_Aug_05_1708,Version4,2021.2.0,238.66234528705024,
red_neutral,0,k,middle,red,0,1,3,9,4,,,,,,,,,,,,,,,59.64969639999998,None,60.7342318,None,k,1,0.843563099999983,60.7342318,None,,,,,,,,,,,,,,,,2,001,2022_Aug_05_1708,Version4,2021.2.0,238.66234528705024,
red_congruent,1,k,right,red,0.6,1,4,10,1,,,,,,,,,,,,,,,62.594510799999995,None,63.7166187,None,k,1,0.6454784999999958,63.7166187,None,,,,,,,,,,,,,,,,2,001,2022_Aug_05_1708,Version4,2021.2.0,238.66234528705024,
blue_neutral,0,a,middle,blue,0,1,5,11,5,,,,,,,,,,,,,,,65.3807907,None,66.48587949999998,None,a,1,0.6524226999999883,66.48587949999998,None,,,,,,,,,,,,,,,,2,001,2022_Aug_05_1708,Version4,2021.2.0,238.66234528705024,
red_congruent,1,k,right,red,0.6,2,0,12,1,,,,,,,,,,,,,,,68.1502418,None,69.2600301,None,k,1,0.6790233999999487,69.2600301,None,,,,,,,,,,,,,,,,2,001,2022_Aug_05_1708,Version4,2021.2.0,238.66234528705024,
blue_incongruent,0,a,right,blue,0.6,2,1,13,2,,,,,,,,,,,,,,,70.95753969999998,None,72.045995,None,a,1,0.5252662999999984,72.045995,None,,,,,,,,,,,,,,,,2,001,2022_Aug_05_1708,Version4,2021.2.0,238.66234528705024,
blue_congruent,1,a,left,blue,-0.6,2,2,14,0,,,,,,,,,,,,,,,73.58945940000001,None,74.59890439999998,None,a,1,0.4847695999999928,74.59890439999998,None,,,,,,,,,,,,,,,,2,001,2022_Aug_05_1708,Version4,2021.2.0,238.66234528705024,
red_neutral,0,k,middle,red,0,2,3,15,4,,,,,,,,,,,,,,,76.10049879999997,None,77.193311,None,k,1,0.4426932000000079,77.193311,None,,,,,,,,,,,,,,,,2,001,2022_Aug_05_1708,Version4,2021.2.0,238.66234528705024,
red_congruent,1,k,right,red,0.6,2,4,16,1,,,,,,,,,,,,,,,78.65736950000002,None,79.71279040000002,None,k,1,0.49152860000003784,79.71279040000002,None,,,,,,,,,,,,,,,,2,001,2022_Aug_05_1708,Version4,2021.2.0,238.66234528705024,
red_neutral,0,k,middle,red,0,2,5,17,4,,,,,,,,,,,,,,,81.22650549999997,None,82.33209979999998,None,k,1,0.47231979999997975,82.33209979999998,None,,,,,,,,,,,,,,,,2,001,2022_Aug_05_1708,Version4,2021.2.0,238.66234528705024,
red_congruent,1,k,right,red,0.6,3,0,18,1,,,,,,,,,,,,,,,83.82104559999999,None,85.0221745,None,k,1,0.3825433000000089,85.0221745,None,,,,,,,,,,,,,,,,2,001,2022_Aug_05_1708,Version4,2021.2.0,238.66234528705024,
red_incongruent,0,k,left,red,-0.6,3,1,19,3,,,,,,,,,,,,,,,86.4281001,None,87.52925809999999,None,k,1,0.5160423000000378,87.52925809999999,None,,,,,,,,,,,,,,,,2,001,2022_Aug_05_1708,Version4,2021.2.0,238.66234528705024,
blue_congruent,1,a,left,blue,-0.6,3,2,20,0,,,,,,,,,,,,,,,89.0681224,None,90.21558440000001,None,a,1,0.41384070000003703,90.21558440000001,None,,,,,,,,,,,,,,,,2,001,2022_Aug_05_1708,Version4,2021.2.0,238.66234528705024,
red_incongruent,0,k,left,red,-0.6,3,3,21,3,,,,,,,,,,,,,,,91.64203099999997,None,92.73032419999998,None,a,0,0.4914655999999695,92.73032419999998,None,,,,,,,,,,,,,,,,2,001,2022_Aug_05_1708,Version4,2021.2.0,238.66234528705024,
blue_neutral,0,a,middle,blue,0,3,4,22,5,,,,,,,,,,,,,,,94.23608719999999,None,95.40406050000001,None,a,1,0.5940971999999647,95.40406050000001,None,,,,,,,,,,,,,,,,2,001,2022_Aug_05_1708,Version4,2021.2.0,238.66234528705024,
blue_neutral,0,a,middle,blue,0,3,5,23,5,,,,,,,,,,,,,,,97.01817210000002,None,98.17775669999997,None,a,1,0.44477870000002895,98.17775669999997,None,,,,,,,,,,,,,,,,2,001,2022_Aug_05_1708,Version4,2021.2.0,238.66234528705024,
,,,,,,,,,,,,,,,,,,,,,,,,,,,,,,,,,99.6626905,None,space,7.3043063000000075,,,,,,,,,,,,2,001,2022_Aug_05_1708,Version4,2021.2.0,238.66234528705024,
blue_incongruent,0,a,right,blue,0.6,,,,,0,0,0,2,,,,,,,,,,,108.96446750000001,None,,,,,,,,,,,,110.01977490000002,None,a,1,0.7246296000000143,110.01977490000002,None,,,,,2,001,2022_Aug_05_1708,Version4,2021.2.0,238.66234528705024,
red_incongruent,0,k,left,red,-0.6,,,,,0,1,1,3,,,,,,,,,,,110.76224730000001,None,,,,,,,,,,,,111.83424689999998,None,k,1,0.5824615999999878,111.83424689999998,None,,,,,2,001,2022_Aug_05_1708,Version4,2021.2.0,238.66234528705024,
red_neutral,0,k,middle,red,0,,,,,0,2,2,4,,,,,,,,,,,112.4348205,None,,,,,,,,,,,,113.61085800000001,None,k,1,0.6057187999999769,113.61085800000001,None,,,,,2,001,2022_Aug_05_1708,Version4,2021.2.0,238.66234528705024,
blue_incongruent,0,a,right,blue,0.6,,,,,0,3,3,2,,,,,,,,,,,114.22837370000002,None,,,,,,,,,,,,115.34175390000001,None,a,1,0.5710655000000315,115.34175390000001,None,,,,,2,001,2022_Aug_05_1708,Version4,2021.2.0,238.66234528705024,
blue_neutral,0,a,middle,blue,0,,,,,0,4,4,5,,,,,,,,,,,115.92573010000001,None,,,,,,,,,,,,116.95181389999999,None,a,1,0.5692176000000018,116.95181389999999,None,,,,,2,001,2022_Aug_05_1708,Version4,2021.2.0,238.66234528705024,
blue_neutral,0,a,middle,blue,0,,,,,0,5,5,5,,,,,,,,,,,117.53993969999999,None,,,,,,,,,,,,118.69956229999997,None,a,1,0.4136676999999622,118.69956229999997,None,,,,,2,001,2022_Aug_05_1708,Version4,2021.2.0,238.66234528705024,
blue_incongruent,0,a,right,blue,0.6,,,,,1,0,6,2,,,,,,,,,,,119.1203094,None,,,,,,,,,,,,120.25112100000001,None,k,0,0.4783606999999961,120.25112100000001,None,,,,,2,001,2022_Aug_05_1708,Version4,2021.2.0,238.66234528705024,
blue_congruent,1,a,left,blue,-0.6,,,,,1,1,7,0,,,,,,,,,,,120.74337509999998,None,,,,,,,,,,,,121.90731110000002,None,a,1,0.5665414000000055,121.90731110000002,None,,,,,2,001,2022_Aug_05_1708,Version4,2021.2.0,238.66234528705024,
red_incongruent,0,k,left,red,-0.6,,,,,1,2,8,3,,,,,,,,,,,122.49102899999997,None,,,,,,,,,,,,123.65891349999998,None,k,1,0.6550667000000203,123.65891349999998,None,,,,,2,001,2022_Aug_05_1708,Version4,2021.2.0,238.66234528705024,
red_congruent,1,k,right,red,0.6,,,,,1,3,9,1,,,,,,,,,,,124.32630059999997,None,,,,,,,,,,,,125.51919779999997,None,k,1,0.5550026999999886,125.51919779999997,None,,,,,2,001,2022_Aug_05_1708,Version4,2021.2.0,238.66234528705024,
red_congruent,1,k,right,red,0.6,,,,,1,4,10,1,,,,,,,,,,,126.08235810000002,None,,,,,,,,,,,,127.17150329999998,None,k,1,0.446880799999974,127.17150329999998,None,,,,,2,001,2022_Aug_05_1708,Version4,2021.2.0,238.66234528705024,
blue_congruent,1,a,left,blue,-0.6,,,,,1,5,11,0,,,,,,,,,,,127.63839569999999,None,,,,,,,,,,,,128.71017080000001,None,a,1,0.41242549999998346,128.71017080000001,None,,,,,2,001,2022_Aug_05_1708,Version4,2021.2.0,238.66234528705024,
red_neutral,0,k,middle,red,0,,,,,2,0,12,4,,,,,,,,,,,129.1355461,None,,,,,,,,,,,,130.28675169999997,None,k,1,0.48404440000001614,130.28675169999997,None,,,,,2,001,2022_Aug_05_1708,Version4,2021.2.0,238.66234528705024,
red_neutral,0,k,middle,red,0,,,,,2,1,13,4,,,,,,,,,,,130.7831144,None,,,,,,,,,,,,131.8592537,None,k,1,0.42374849999998787,131.8592537,None,,,,,2,001,2022_Aug_05_1708,Version4,2021.2.0,238.66234528705024,
red_congruent,1,k,right,red,0.6,,,,,2,2,14,1,,,,,,,,,,,132.2972987,None,,,,,,,,,,,,133.4735372,None,k,1,0.5297217000000387,133.4735372,None,,,,,2,001,2022_Aug_05_1708,Version4,2021.2.0,238.66234528705024,
red_incongruent,0,k,left,red,-0.6,,,,,2,3,15,3,,,,,,,,,,,134.02022,None,,,,,,,,,,,,135.0918461,None,k,1,0.528062900000009,135.0918461,None,,,,,2,001,2022_Aug_05_1708,Version4,2021.2.0,238.66234528705024,
red_incongruent,0,k,left,red,-0.6,,,,,2,4,16,3,,,,,,,,,,,135.6385715,None,,,,,,,,,,,,136.75193989999997,None,k,1,0.3877876000000242,136.75193989999997,None,,,,,2,001,2022_Aug_05_1708,Version4,2021.2.0,238.66234528705024,
red_congruent,1,k,right,red,0.6,,,,,2,5,17,1,,,,,,,,,,,137.1523446,None,,,,,,,,,,,,138.2159795,None,k,1,0.36387399999995296,138.2159795,None,,,,,2,001,2022_Aug_05_1708,Version4,2021.2.0,238.66234528705024,
red_incongruent,0,k,left,red,-0.6,,,,,3,0,18,3,,,,,,,,,,,138.5913736,None,,,,,,,,,,,,139.7092204,None,k,1,0.4709430999999995,139.7092204,None,,,,,2,001,2022_Aug_05_1708,Version4,2021.2.0,238.66234528705024,
red_incongruent,0,k,left,red,-0.6,,,,,3,1,19,3,,,,,,,,,,,140.19315260000002,None,,,,,,,,,,,,141.29423930000002,None,k,1,0.3900470000000382,141.29423930000002,None,,,,,2,001,2022_Aug_05_1708,Version4,2021.2.0,238.66234528705024,
blue_congruent,1,a,left,blue,-0.6,,,,,3,2,20,0,,,,,,,,,,,141.6990416,None,,,,,,,,,,,,142.89175669999997,None,a,1,0.43273920000001453,142.89175669999997,None,,,,,2,001,2022_Aug_05_1708,Version4,2021.2.0,238.66234528705024,
red_incongruent,0,k,left,red,-0.6,,,,,3,3,21,3,,,,,,,,,,,143.33831370000001,None,,,,,,,,,,,,144.47299270000002,None,k,1,0.5557228000000123,144.47299270000002,None,,,,,2,001,2022_Aug_05_1708,Version4,2021.2.0,238.66234528705024,
blue_congruent,1,a,left,blue,-0.6,,,,,3,4,22,0,,,,,,,,,,,145.0401802,None,,,,,,,,,,,,146.1618926,None,a,1,0.3870392000000038,146.1618926,None,,,,,2,001,2022_Aug_05_1708,Version4,2021.2.0,238.66234528705024,
blue_incongruent,0,a,right,blue,0.6,,,,,3,5,23,2,,,,,,,,,,,146.56231229999997,None,,,,,,,,,,,,147.7054701,None,k,0,0.4676731999999788,147.7054701,None,,,,,2,001,2022_Aug_05_1708,Version4,2021.2.0,238.66234528705024,
blue_incongruent,0,a,right,blue,0.6,,,,,4,0,24,2,,,,,,,,,,,148.189029,None,,,,,,,,,,,,149.24460240000002,None,a,1,0.6807655999999724,149.24460240000002,None,,,,,2,001,2022_Aug_05_1708,Version4,2021.2.0,238.66234528705024,
red_congruent,1,k,right,red,0.6,,,,,4,1,25,1,,,,,,,,,,,149.9370442,None,,,,,,,,,,,,150.9840259,None,k,1,0.5015445999999883,150.9840259,None,,,,,2,001,2022_Aug_05_1708,Version4,2021.2.0,238.66234528705024,
blue_incongruent,0,a,right,blue,0.6,,,,,4,2,26,2,,,,,,,,,,,151.50087939999997,None,,,,,,,,,,,,152.5686789,None,a,1,0.5091194000000314,152.5686789,None,,,,,2,001,2022_Aug_05_1708,Version4,2021.2.0,238.66234528705024,
blue_neutral,0,a,middle,blue,0,,,,,4,3,27,5,,,,,,,,,,,153.0945673,None,,,,,,,,,,,,154.2120928,None,a,1,0.4819214000000329,154.2120928,None,,,,,2,001,2022_Aug_05_1708,Version4,2021.2.0,238.66234528705024,
blue_neutral,0,a,middle,blue,0,,,,,4,4,28,5,,,,,,,,,,,154.7126182,None,,,,,,,,,,,,155.8975759,None,a,1,0.46065849999996544,155.8975759,None,,,,,2,001,2022_Aug_05_1708,Version4,2021.2.0,238.66234528705024,
blue_incongruent,0,a,right,blue,0.6,,,,,4,5,29,2,,,,,,,,,,,156.37271829999997,None,,,,,,,,,,,,157.4405051,None,a,1,0.5019609000000287,157.4405051,None,,,,,2,001,2022_Aug_05_1708,Version4,2021.2.0,238.66234528705024,
red_neutral,0,k,middle,red,0,,,,,5,0,30,4,,,,,,,,,,,157.9579691,None,,,,,,,,,,,,159.163162,None,k,1,0.41152759999999944,159.163162,None,,,,,2,001,2022_Aug_05_1708,Version4,2021.2.0,238.66234528705024,
red_neutral,0,k,middle,red,0,,,,,5,1,31,4,,,,,,,,,,,159.58860090000002,None,,,,,,,,,,,,160.66482359999998,None,k,1,0.558101400000055,160.66482359999998,None,,,,,2,001,2022_Aug_05_1708,Version4,2021.2.0,238.66234528705024,
blue_incongruent,0,a,right,blue,0.6,,,,,5,2,32,2,,,,,,,,,,,161.2362182,None,,,,,,,,,,,,162.43789850000002,None,a,1,0.4892152000000465,162.43789850000002,None,,,,,2,001,2022_Aug_05_1708,Version4,2021.2.0,238.66234528705024,
blue_neutral,0,a,middle,blue,0,,,,,5,3,33,5,,,,,,,,,,,162.94632280000002,None,,,,,,,,,,,,164.15219150000001,None,a,1,0.383156299999996,164.15219150000001,None,,,,,2,001,2022_Aug_05_1708,Version4,2021.2.0,238.66234528705024,
red_neutral,0,k,middle,red,0,,,,,5,4,34,4,,,,,,,,,,,164.5524501,None,,,,,,,,,,,,165.69098409999998,None,k,1,0.8686162000000195,165.69098409999998,None,,,,,2,001,2022_Aug_05_1708,Version4,2021.2.0,238.66234528705024,
blue_congruent,1,a,left,blue,-0.6,,,,,5,5,35,0,,,,,,,,,,,166.5710105,None,,,,,,,,,,,,167.73054860000002,None,a,1,0.4616116000000261,167.73054860000002,None,,,,,2,001,2022_Aug_05_1708,Version4,2021.2.0,238.66234528705024,
blue_neutral,0,a,middle,blue,0,,,,,6,0,36,5,,,,,,,,,,,168.2106905,None,,,,,,,,,,,,169.31981960000002,None,a,1,0.3761877999999683,169.31981960000002,None,,,,,2,001,2022_Aug_05_1708,Version4,2021.2.0,238.66234528705024,
blue_congruent,1,a,left,blue,-0.6,,,,,6,1,37,0,,,,,,,,,,,169.7076796,None,,,,,,,,,,,,170.8088441,None,a,1,0.4714159000000109,170.8088441,None,,,,,2,001,2022_Aug_05_1708,Version4,2021.2.0,238.66234528705024,
blue_congruent,1,a,left,blue,-0.6,,,,,6,2,38,0,,,,,,,,,,,171.29264589999997,None,,,,,,,,,,,,172.3604292,None,a,1,0.37601369999998724,172.3604292,None,,,,,2,001,2022_Aug_05_1708,Version4,2021.2.0,238.66234528705024,
red_congruent,1,k,right,red,0.6,,,,,6,3,39,1,,,,,,,,,,,172.74840569999998,None,,,,,,,,,,,,173.81199449999997,None,k,1,0.5489850999999817,173.81199449999997,None,,,,,2,001,2022_Aug_05_1708,Version4,2021.2.0,238.66234528705024,
red_neutral,0,k,middle,red,0,,,,,6,4,40,4,,,,,,,,,,,174.37953140000002,None,,,,,,,,,,,,175.5054526,None,k,1,0.5514168000000268,175.5054526,None,,,,,2,001,2022_Aug_05_1708,Version4,2021.2.0,238.66234528705024,
blue_congruent,1,a,left,blue,-0.6,,,,,6,5,41,0,,,,,,,,,,,176.0727883,None,,,,,,,,,,,,177.18276529999997,None,a,1,0.39431289999998853,177.18276529999997,None,,,,,2,001,2022_Aug_05_1708,Version4,2021.2.0,238.66234528705024,
red_congruent,1,k,right,red,0.6,,,,,7,0,42,1,,,,,,,,,,,177.5913847,None,,,,,,,,,,,,178.7422242,None,k,1,0.49133960000000343,178.7422242,None,,,,,2,001,2022_Aug_05_1708,Version4,2021.2.0,238.66234528705024,
blue_neutral,0,a,middle,blue,0,,,,,7,1,43,5,,,,,,,,,,,179.25137969999997,None,,,,,,,,,,,,180.44818779999997,None,a,1,0.48138089999997646,180.44818779999997,None,,,,,2,001,2022_Aug_05_1708,Version4,2021.2.0,238.66234528705024,
red_congruent,1,k,right,red,0.6,,,,,7,2,44,1,,,,,,,,,,,180.94488710000002,None,,,,,,,,,,,,182.1250452,None,k,1,0.5567181999999775,182.1250452,None,,,,,2,001,2022_Aug_05_1708,Version4,2021.2.0,238.66234528705024,
red_incongruent,0,k,left,red,-0.6,,,,,7,3,45,3,,,,,,,,,,,182.70090399999998,None,,,,,,,,,,,,183.81424149999998,None,k,1,0.5797453999999789,183.81424149999998,None,,,,,2,001,2022_Aug_05_1708,Version4,2021.2.0,238.66234528705024,
red_neutral,0,k,middle,red,0,,,,,7,4,46,4,,,,,,,,,,,184.40654949999998,None,,,,,,,,,,,,185.52439099999998,None,k,1,0.36582809999998744,185.52439099999998,None,,,,,2,001,2022_Aug_05_1708,Version4,2021.2.0,238.66234528705024,
blue_neutral,0,a,middle,blue,0,,,,,7,5,47,5,,,,,,,,,,,185.9041889,None,,,,,,,,,,,,186.984304,None,a,1,0.4823978000000011,186.984304,None,,,,,2,001,2022_Aug_05_1708,Version4,2021.2.0,238.66234528705024,
,,,,,,,,,,,,,,,,,,,,,,,,,,,,,,,,,,,,,,,,,,,,space,4.249642999999992,,,2,001,2022_Aug_05_1708,Version4,2021.2.0,238.66234528705024,
red_incongruent,0,k,left,red,-0.6,,,,,,,,,0,0,0,3,,,,,,,191.76849829999998,None,,,,,,,,,,,,192.8696673,None,k,1,0.685550400000011,192.8696673,None,,,,,2,001,2022_Aug_05_1708,Version4,2021.2.0,238.66234528705024,
red_congruent,1,k,right,red,0.6,,,,,,,,,0,1,1,1,,,,,,,193.57459590000002,None,,,,,,,,,,,,194.7258951,None,k,1,0.4615220000000022,194.7258951,None,,,,,2,001,2022_Aug_05_1708,Version4,2021.2.0,238.66234528705024,
blue_incongruent,0,a,right,blue,0.6,,,,,,,,,0,2,2,2,,,,,,,195.20142370000002,None,,,,,,,,,,,,196.36929700000002,None,a,1,0.4423537000000124,196.36929700000002,None,,,,,2,001,2022_Aug_05_1708,Version4,2021.2.0,238.66234528705024,
blue_neutral,0,a,middle,blue,0,,,,,,,,,0,3,3,5,,,,,,,196.82385899999997,None,,,,,,,,,,,,197.8832959,None,a,1,0.3365410000000111,197.8832959,None,,,,,2,001,2022_Aug_05_1708,Version4,2021.2.0,238.66234528705024,
red_incongruent,0,k,left,red,-0.6,,,,,,,,,0,4,4,3,,,,,,,198.2337506,None,,,,,,,,,,,,199.3932476,None,k,1,0.46680390000000216,199.3932476,None,,,,,2,001,2022_Aug_05_1708,Version4,2021.2.0,238.66234528705024,
blue_congruent,1,a,left,blue,-0.6,,,,,,,,,0,5,5,0,,,,,,,199.8729194,None,,,,,,,,,,,,201.0950773,None,a,1,0.4692335999999955,201.0950773,None,,,,,2,001,2022_Aug_05_1708,Version4,2021.2.0,238.66234528705024,
red_incongruent,0,k,left,red,-0.6,,,,,,,,,1,0,6,3,,,,,,,201.57890249999997,None,,,,,,,,,,,,202.64677460000001,None,k,1,0.5097545000000423,202.64677460000001,None,,,,,2,001,2022_Aug_05_1708,Version4,2021.2.0,238.66234528705024,
red_neutral,0,k,middle,red,0,,,,,,,,,1,1,7,4,,,,,,,203.17251699999997,None,,,,,,,,,,,,204.19035209999998,None,k,1,0.4704383999999777,204.19035209999998,None,,,,,2,001,2022_Aug_05_1708,Version4,2021.2.0,238.66234528705024,
blue_congruent,1,a,left,blue,-0.6,,,,,,,,,1,2,8,0,,,,,,,204.67425909999997,None,,,,,,,,,,,,205.74580070000002,None,a,1,0.46710559999996804,205.74580070000002,None,,,,,2,001,2022_Aug_05_1708,Version4,2021.2.0,238.66234528705024,
red_neutral,0,k,middle,red,0,,,,,,,,,1,3,9,4,,,,,,,206.22579100000002,None,,,,,,,,,,,,207.40171220000002,None,k,1,0.5154256999999802,207.40171220000002,None,,,,,2,001,2022_Aug_05_1708,Version4,2021.2.0,238.66234528705024,
red_neutral,0,k,middle,red,0,,,,,,,,,1,4,10,4,,,,,,,207.93589809999997,None,,,,,,,,,,,,209.12854240000001,None,k,1,0.3808190999999965,209.12854240000001,None,,,,,2,001,2022_Aug_05_1708,Version4,2021.2.0,238.66234528705024,
red_neutral,0,k,middle,red,0,,,,,,,,,1,5,11,4,,,,,,,209.5249147,None,,,,,,,,,,,,210.6802786,None,k,1,0.38128699999998616,210.6802786,None,,,,,2,001,2022_Aug_05_1708,Version4,2021.2.0,238.66234528705024,
blue_congruent,1,a,left,blue,-0.6,,,,,,,,,2,0,12,0,,,,,,,211.07649800000002,None,,,,,,,,,,,,212.0858482,None,a,1,0.4479000000000042,212.0858482,None,,,,,2,001,2022_Aug_05_1708,Version4,2021.2.0,238.66234528705024,
red_neutral,0,k,middle,red,0,,,,,,,,,2,1,13,4,,,,,,,212.5532892,None,,,,,,,,,,,,213.65415259999997,None,k,1,0.43180650000005016,213.65415259999997,None,,,,,2,001,2022_Aug_05_1708,Version4,2021.2.0,238.66234528705024,
blue_incongruent,0,a,right,blue,0.6,,,,,,,,,2,2,14,2,,,,,,,214.1046493,None,,,,,,,,,,,,215.22258269999998,None,a,1,0.47960129999995615,215.22258269999998,None,,,,,2,001,2022_Aug_05_1708,Version4,2021.2.0,238.66234528705024,
red_incongruent,0,k,left,red,-0.6,,,,,,,,,2,3,15,3,,,,,,,215.7149759,None,,,,,,,,,,,,216.8575641,None,k,1,0.4212041000000113,216.8575641,None,,,,,2,001,2022_Aug_05_1708,Version4,2021.2.0,238.66234528705024,
blue_neutral,0,a,middle,blue,0,,,,,,,,,2,4,16,5,,,,,,,217.2955741,None,,,,,,,,,,,,218.4676667,None,a,1,0.4349470000000224,218.4676667,None,,,,,2,001,2022_Aug_05_1708,Version4,2021.2.0,238.66234528705024,
blue_incongruent,0,a,right,blue,0.6,,,,,,,,,2,5,17,2,,,,,,,218.9183731,None,,,,,,,,,,,,220.05261480000001,None,a,1,0.698255999999958,220.05261480000001,None,,,,,2,001,2022_Aug_05_1708,Version4,2021.2.0,238.66234528705024,
red_neutral,0,k,middle,red,0,,,,,,,,,3,0,18,4,,,,,,,220.7659862,None,,,,,,,,,,,,221.8211399,None,k,1,0.4419104000000402,221.8211399,None,,,,,2,001,2022_Aug_05_1708,Version4,2021.2.0,238.66234528705024,
blue_neutral,0,a,middle,blue,0,,,,,,,,,3,1,19,5,,,,,,,222.2799602,None,,,,,,,,,,,,223.4270158,None,a,1,0.4682649000000083,223.4270158,None,,,,,2,001,2022_Aug_05_1708,Version4,2021.2.0,238.66234528705024,
red_congruent,1,k,right,red,0.6,,,,,,,,,3,2,20,1,,,,,,,223.90669079999998,None,,,,,,,,,,,,225.06209109999998,None,k,1,0.44176549999997405,225.06209109999998,None,,,,,2,001,2022_Aug_05_1708,Version4,2021.2.0,238.66234528705024,
red_neutral,0,k,middle,red,0,,,,,,,,,3,3,21,4,,,,,,,225.52090859999998,None,,,,,,,,,,,,226.61379799999997,None,k,1,0.409901399999967,226.61379799999997,None,,,,,2,001,2022_Aug_05_1708,Version4,2021.2.0,238.66234528705024,
red_congruent,1,k,right,red,0.6,,,,,,,,,3,4,22,1,,,,,,,227.03917330000002,None,,,,,,,,,,,,228.24461530000002,None,k,1,0.5393285000000105,228.24461530000002,None,,,,,2,001,2022_Aug_05_1708,Version4,2021.2.0,238.66234528705024,
red_congruent,1,k,right,red,0.6,,,,,,,,,3,5,23,1,,,,,,,228.79521340000002,None,,,,,,,,,,,,229.8213037,None,k,1,0.4028258999999821,229.8213037,None,,,,,2,001,2022_Aug_05_1708,Version4,2021.2.0,238.66234528705024,
blue_neutral,0,a,middle,blue,0,,,,,,,,,4,0,24,5,,,,,,,230.2383956,None,,,,,,,,,,,,231.40213089999997,None,a,1,0.44623330000001715,231.40213089999997,None,,,,,2,001,2022_Aug_05_1708,Version4,2021.2.0,238.66234528705024,
blue_incongruent,0,a,right,blue,0.6,,,,,,,,,4,1,25,2,,,,,,,231.8610235,None,,,,,,,,,,,,232.9204021,None,a,1,0.45617260000000215,232.9204021,None,,,,,2,001,2022_Aug_05_1708,Version4,2021.2.0,238.66234528705024,
blue_neutral,0,a,middle,blue,0,,,,,,,,,4,2,26,5,,,,,,,233.3918582,None,,,,,,,,,,,,234.6138727,None,a,1,0.3708904000000075,234.6138727,None,,,,,2,001,2022_Aug_05_1708,Version4,2021.2.0,238.66234528705024,
red_congruent,1,k,right,red,0.6,,,,,,,,,4,3,27,1,,,,,,,234.9978751,None,,,,,,,,,,,,236.1237739,None,k,1,0.4212251000000151,236.1237739,None,,,,,2,001,2022_Aug_05_1708,Version4,2021.2.0,238.66234528705024,
blue_congruent,1,a,left,blue,-0.6,,,,,,,,,4,4,28,0,,,,,,,236.5617823,None,,,,,,,,,,,,237.6215322,None,a,1,0.5396560000000363,237.6215322,None,,,,,2,001,2022_Aug_05_1708,Version4,2021.2.0,238.66234528705024,
red_incongruent,0,k,left,red,-0.6,,,,,,,,,4,5,29,3,,,,,,,238.1717964,None,,,,,,,,,,,,239.37731430000002,None,k,1,0.5201165999999944,239.37731430000002,None,,,,,2,001,2022_Aug_05_1708,Version4,2021.2.0,238.66234528705024,
blue_incongruent,0,a,right,blue,0.6,,,,,,,,,5,0,30,2,,,,,,,239.9111623,None,,,,,,,,,,,,241.10415940000001,None,a,1,0.48161210000000665,241.10415940000001,None,,,,,2,001,2022_Aug_05_1708,Version4,2021.2.0,238.66234528705024,
red_incongruent,0,k,left,red,-0.6,,,,,,,,,5,1,31,3,,,,,,,241.6007209,None,,,,,,,,,,,,242.64735480000002,None,k,1,0.48255309999996143,242.64735480000002,None,,,,,2,001,2022_Aug_05_1708,Version4,2021.2.0,238.66234528705024,
blue_neutral,0,a,middle,blue,0,,,,,,,,,5,2,32,5,,,,,,,243.14373210000002,None,,,,,,,,,,,,244.3366525,None,a,1,0.4734350999999606,244.3366525,None,,,,,2,001,2022_Aug_05_1708,Version4,2021.2.0,238.66234528705024,
blue_congruent,1,a,left,blue,-0.6,,,,,,,,,5,3,33,0,,,,,,,244.82466089999997,None,,,,,,,,,,,,245.9425205,None,a,1,0.4037885999999844,245.9425205,None,,,,,2,001,2022_Aug_05_1708,Version4,2021.2.0,238.66234528705024,
blue_neutral,0,a,middle,blue,0,,,,,,,,,5,4,34,5,,,,,,,246.3596599,None,,,,,,,,,,,,247.47332790000002,None,a,1,0.40913369999998395,247.47332790000002,None,,,,,2,001,2022_Aug_05_1708,Version4,2021.2.0,238.66234528705024,
blue_incongruent,0,a,right,blue,0.6,,,,,,,,,5,5,35,2,,,,,,,247.8945971,None,,,,,,,,,,,,249.0417023,None,a,1,0.641043599999989,249.0417023,None,,,,,2,001,2022_Aug_05_1708,Version4,2021.2.0,238.66234528705024,
blue_incongruent,0,a,right,blue,0.6,,,,,,,,,6,0,36,2,,,,,,,249.6964871,None,,,,,,,,,,,,250.78522979999997,None,a,1,0.5297330000000215,250.78522979999997,None,,,,,2,001,2022_Aug_05_1708,Version4,2021.2.0,238.66234528705024,
red_incongruent,0,k,left,red,-0.6,,,,,,,,,6,1,37,3,,,,,,,251.3316249,None,,,,,,,,,,,,252.4494987,None,k,1,0.5056609000000094,252.4494987,None,,,,,2,001,2022_Aug_05_1708,Version4,2021.2.0,238.66234528705024,
blue_congruent,1,a,left,blue,-0.6,,,,,,,,,6,2,38,0,,,,,,,252.9666325,None,,,,,,,,,,,,254.1220222,None,a,1,0.3933686000000307,254.1220222,None,,,,,2,001,2022_Aug_05_1708,Version4,2021.2.0,238.66234528705024,
red_incongruent,0,k,left,red,-0.6,,,,,,,,,6,3,39,3,,,,,,,254.535434,None,,,,,,,,,,,,255.57771279999997,None,k,1,0.529897300000016,255.57771279999997,None,,,,,2,001,2022_Aug_05_1708,Version4,2021.2.0,238.66234528705024,
blue_congruent,1,a,left,blue,-0.6,,,,,,,,,6,4,40,0,,,,,,,256.119997,None,,,,,,,,,,,,257.2586724,None,k,0,0.5052238999999759,257.2586724,None,,,,,2,001,2022_Aug_05_1708,Version4,2021.2.0,238.66234528705024,
red_congruent,1,k,right,red,0.6,,,,,,,,,6,5,41,1,,,,,,,257.7800956,None,,,,,,,,,,,,258.8603438,None,k,1,1.11181449999998,258.8603438,None,,,,,2,001,2022_Aug_05_1708,Version4,2021.2.0,238.66234528705024,
blue_congruent,1,a,left,blue,-0.6,,,,,,,,,7,0,42,0,,,,,,,259.9866419,None,,,,,,,,,,,,261.1377802,None,a,1,0.4345323999999664,261.1377802,None,,,,,2,001,2022_Aug_05_1708,Version4,2021.2.0,238.66234528705024,
red_congruent,1,k,right,red,0.6,,,,,,,,,7,1,43,1,,,,,,,261.5841096,None,,,,,,,,,,,,262.6146142,None,k,1,0.718139199999996,262.6146142,None,,,,,2,001,2022_Aug_05_1708,Version4,2021.2.0,238.66234528705024,
red_neutral,0,k,middle,red,0,,,,,,,,,7,2,44,4,,,,,,,263.348456,None,,,,,,,,,,,,264.4038077,None,k,1,0.6329966999999783,264.4038077,None,,,,,2,001,2022_Aug_05_1708,Version4,2021.2.0,238.66234528705024,
red_congruent,1,k,right,red,0.6,,,,,,,,,7,3,45,1,,,,,,,265.0544969,None,,,,,,,,,,,,266.163928,None,k,1,0.4731863999999746,266.163928,None,,,,,2,001,2022_Aug_05_1708,Version4,2021.2.0,238.66234528705024,
blue_incongruent,0,a,right,blue,0.6,,,,,,,,,7,4,46,2,,,,,,,266.6519504,None,,,,,,,,,,,,267.7656253,None,a,1,0.4956046000000356,267.7656253,None,,,,,2,001,2022_Aug_05_1708,Version4,2021.2.0,238.66234528705024,
blue_neutral,0,a,middle,blue,0,,,,,,,,,7,5,47,5,,,,,,,268.27450369999997,None,,,,,,,,,,,,269.4677029,None,a,1,0.36974010000000135,269.4677029,None,,,,,2,001,2022_Aug_05_1708,Version4,2021.2.0,238.66234528705024,
,,,,,,,,,,,,,,,,,,,,,,,,,,,,,,,,,,,,,,,,,,,,space,7.59892880000001,,,2,001,2022_Aug_05_1708,Version4,2021.2.0,238.66234528705024,
red_neutral,0,k,middle,red,0,,,,,,,,,,,,,0,0,0,4,,,277.4886807,None,,,,,,,,,,,,278.6607735,None,k,1,0.4739316999999801,278.6607735,None,,,,,2,001,2022_Aug_05_1708,Version4,2021.2.0,238.66234528705024,
blue_congruent,1,a,left,blue,-0.6,,,,,,,,,,,,,0,1,1,0,,,279.1488135,None,,,,,,,,,,,,280.2457905,None,a,1,0.44110009999997146,280.2457905,None,,,,,2,001,2022_Aug_05_1708,Version4,2021.2.0,238.66234528705024,
red_incongruent,0,k,left,red,-0.6,,,,,,,,,,,,,0,2,2,3,,,280.7044863,None,,,,,,,,,,,,281.7470906,None,k,1,0.5639934000000153,281.7470906,None,,,,,2,001,2022_Aug_05_1708,Version4,2021.2.0,238.66234528705024,
blue_neutral,0,a,middle,blue,0,,,,,,,,,,,,,0,3,3,5,,,282.3228688,None,,,,,,,,,,,,283.4156284,None,a,1,0.5276825000000258,283.4156284,None,,,,,2,001,2022_Aug_05_1708,Version4,2021.2.0,238.66234528705024,
red_incongruent,0,k,left,red,-0.6,,,,,,,,,,,,,0,4,4,3,,,283.9621085,None,,,,,,,,,,,,285.0969489,None,k,1,0.6790328999999815,285.0969489,None,,,,,2,001,2022_Aug_05_1708,Version4,2021.2.0,238.66234528705024,
red_neutral,0,k,middle,red,0,,,,,,,,,,,,,0,5,5,4,,,285.7890826,None,,,,,,,,,,,,286.8316794,None,k,1,0.67216099999996,286.8316794,None,,,,,2,001,2022_Aug_05_1708,Version4,2021.2.0,238.66234528705024,
blue_neutral,0,a,middle,blue,0,,,,,,,,,,,,,1,0,6,5,,,287.5199099,None,,,,,,,,,,,,288.5543286,None,a,1,0.4697239000000195,288.5543286,None,,,,,2,001,2022_Aug_05_1708,Version4,2021.2.0,238.66234528705024,
blue_congruent,1,a,left,blue,-0.6,,,,,,,,,,,,,1,1,7,0,,,289.0383077,None,,,,,,,,,,,,290.1315525,None,a,1,0.4927009000000453,290.1315525,None,,,,,2,001,2022_Aug_05_1708,Version4,2021.2.0,238.66234528705024,
red_incongruent,0,k,left,red,-0.6,,,,,,,,,,,,,1,2,8,3,,,290.6400992,None,,,,,,,,,,,,291.7368586,None,k,1,0.49574100000000954,291.7368586,None,,,,,2,001,2022_Aug_05_1708,Version4,2021.2.0,238.66234528705024,
red_neutral,0,k,middle,red,0,,,,,,,,,,,,,1,3,9,4,,,292.2501312,None,,,,,,,,,,,,293.4261439,None,k,1,0.39852319999999963,293.4261439,None,,,,,2,001,2022_Aug_05_1708,Version4,2021.2.0,238.66234528705024,
blue_neutral,0,a,middle,blue,0,,,,,,,,,,,,,1,4,10,5,,,293.8392839,None,,,,,,,,,,,,294.9616163,None,a,1,0.6552854000000252,294.9616163,None,,,,,2,001,2022_Aug_05_1708,Version4,2021.2.0,238.66234528705024,
red_congruent,1,k,right,red,0.6,,,,,,,,,,,,,1,5,11,1,,,295.6286675,None,,,,,,,,,,,,296.7630118,None,k,1,0.7502003999999829,296.7630118,None,,,,,2,001,2022_Aug_05_1708,Version4,2021.2.0,238.66234528705024,
red_neutral,0,k,middle,red,0,,,,,,,,,,,,,2,0,12,4,,,297.5264679,None,,,,,,,,,,,,298.6066304,None,k,1,0.434748500000012,298.6066304,None,,,,,2,001,2022_Aug_05_1708,Version4,2021.2.0,238.66234528705024,
blue_congruent,1,a,left,blue,-0.6,,,,,,,,,,,,,2,1,13,0,,,299.0572605,None,,,,,,,,,,,,300.2417747,None,a,1,0.447834700000044,300.2417747,None,,,,,2,001,2022_Aug_05_1708,Version4,2021.2.0,238.66234528705024,
blue_incongruent,0,a,right,blue,0.6,,,,,,,,,,,,,2,2,14,2,,,300.7047641,None,,,,,,,,,,,,301.8434032,None,a,1,0.638385000000028,301.8434032,None,,,,,2,001,2022_Aug_05_1708,Version4,2021.2.0,238.66234528705024,
blue_neutral,0,a,middle,blue,0,,,,,,,,,,,,,2,3,15,5,,,302.4943449,None,,,,,,,,,,,,303.7203712,None,a,1,0.3856439999999566,303.7203712,None,,,,,2,001,2022_Aug_05_1708,Version4,2021.2.0,238.66234528705024,
blue_neutral,0,a,middle,blue,0,,,,,,,,,,,,,2,4,16,5,,,304.1249697,None,,,,,,,,,,,,305.1594139,None,a,1,0.3788450999999782,305.1594139,None,,,,,2,001,2022_Aug_05_1708,Version4,2021.2.0,238.66234528705024,
blue_congruent,1,a,left,blue,-0.6,,,,,,,,,,,,,2,5,17,0,,,305.54742799999997,None,,,,,,,,,,,,306.711059,None,a,1,0.4035705000000007,306.711059,None,,,,,2,001,2022_Aug_05_1708,Version4,2021.2.0,238.66234528705024,
blue_congruent,1,a,left,blue,-0.6,,,,,,,,,,,,,3,0,18,0,,,307.13237399999997,None,,,,,,,,,,,,308.4300344,None,a,1,0.3966118000000165,308.4300344,None,,,,,2,001,2022_Aug_05_1708,Version4,2021.2.0,238.66234528705024,
blue_congruent,1,a,left,blue,-0.6,,,,,,,,,,,,,3,1,19,0,,,308.83855,None,,,,,,,,,,,,309.9228576,None,a,1,0.39199059999998553,309.9228576,None,,,,,2,001,2022_Aug_05_1708,Version4,2021.2.0,238.66234528705024,
red_congruent,1,k,right,red,0.6,,,,,,,,,,,,,3,2,20,1,,,310.327521,None,,,,,,,,,,,,311.4535682,None,k,1,0.5336682000000224,311.4535682,None,,,,,2,001,2022_Aug_05_1708,Version4,2021.2.0,238.66234528705024,
blue_incongruent,0,a,right,blue,0.6,,,,,,,,,,,,,3,3,21,2,,,312.0042921,None,,,,,,,,,,,,313.0969624,None,a,1,0.45035680000000866,313.0969624,None,,,,,2,001,2022_Aug_05_1708,Version4,2021.2.0,238.66234528705024,
red_congruent,1,k,right,red,0.6,,,,,,,,,,,,,3,4,22,1,,,313.5643023,None,,,,,,,,,,,,314.5819495,None,k,1,0.6215899999999692,314.5819495,None,,,,,2,001,2022_Aug_05_1708,Version4,2021.2.0,238.66234528705024,
red_congruent,1,k,right,red,0.6,,,,,,,,,,,,,3,5,23,1,,,315.2201968,None,,,,,,,,,,,,316.4129781,None,k,1,0.4067590000000223,316.4129781,None,,,,,2,001,2022_Aug_05_1708,Version4,2021.2.0,238.66234528705024,
red_neutral,0,k,middle,red,0,,,,,,,,,,,,,4,0,24,4,,,316.8385145,None,,,,,,,,,,,,317.9313271,None,k,1,0.4006195000000048,317.9313271,None,,,,,2,001,2022_Aug_05_1708,Version4,2021.2.0,238.66234528705024,
red_incongruent,0,k,left,red,-0.6,,,,,,,,,,,,,4,1,25,3,,,318.3485064,None,,,,,,,,,,,,319.4036549,None,k,1,0.5045006999999941,319.4036549,None,,,,,2,001,2022_Aug_05_1708,Version4,2021.2.0,238.66234528705024,
blue_incongruent,0,a,right,blue,0.6,,,,,,,,,,,,,4,2,26,2,,,319.9208621,None,,,,,,,,,,,,321.0428786,None,a,1,0.5054652000000033,321.0428786,None,,,,,2,001,2022_Aug_05_1708,Version4,2021.2.0,238.66234528705024,
red_incongruent,0,k,left,red,-0.6,,,,,,,,,,,,,4,3,27,3,,,321.5560319,None,,,,,,,,,,,,322.6362378,None,k,1,0.48033930000002556,322.6362378,None,,,,,2,001,2022_Aug_05_1708,Version4,2021.2.0,238.66234528705024,
red_congruent,1,k,right,red,0.6,,,,,,,,,,,,,4,4,28,1,,,323.1285648,None,,,,,,,,,,,,324.16703079999996,None,k,1,0.38986309999995683,324.16703079999996,None,,,,,2,001,2022_Aug_05_1708,Version4,2021.2.0,238.66234528705024,
blue_neutral,0,a,middle,blue,0,,,,,,,,,,,,,4,5,29,5,,,324.57176350000003,None,,,,,,,,,,,,325.72699930000005,None,a,1,0.3502063000000817,325.72699930000005,None,,,,,2,001,2022_Aug_05_1708,Version4,2021.2.0,238.66234528705024,
red_congruent,1,k,right,red,0.6,,,,,,,,,,,,,5,0,30,1,,,326.09404309999996,None,,,,,,,,,,,,327.2494105,None,k,1,0.4917818999999781,327.2494105,None,,,,,2,001,2022_Aug_05_1708,Version4,2021.2.0,238.66234528705024,
red_neutral,0,k,middle,red,0,,,,,,,,,,,,,5,1,31,4,,,327.75439220000004,None,,,,,,,,,,,,328.80941649999994,None,k,1,0.4279589999999871,328.80941649999994,None,,,,,2,001,2022_Aug_05_1708,Version4,2021.2.0,238.66234528705024,
red_neutral,0,k,middle,red,0,,,,,,,,,,,,,5,2,32,4,,,329.2515497,None,,,,,,,,,,,,330.41535730000004,None,k,1,0.35840399999995043,330.41535730000004,None,,,,,2,001,2022_Aug_05_1708,Version4,2021.2.0,238.66234528705024,
red_incongruent,0,k,left,red,-0.6,,,,,,,,,,,,,5,3,33,3,,,330.78661159999996,None,,,,,,,,,,,,332.00452190000004,None,k,1,0.5376598000000286,332.00452190000004,None,,,,,2,001,2022_Aug_05_1708,Version4,2021.2.0,238.66234528705024,
blue_incongruent,0,a,right,blue,0.6,,,,,,,,,,,,,5,4,34,2,,,332.55504379999996,None,,,,,,,,,,,,333.68958260000005,None,a,1,0.5804851000000326,333.68958260000005,None,,,,,2,001,2022_Aug_05_1708,Version4,2021.2.0,238.66234528705024,
blue_incongruent,0,a,right,blue,0.6,,,,,,,,,,,,,5,5,35,2,,,334.2819536,None,,,,,,,,,,,,335.38303060000004,None,a,1,0.4072426000000178,335.38303060000004,None,,,,,2,001,2022_Aug_05_1708,Version4,2021.2.0,238.66234528705024,
blue_neutral,0,a,middle,blue,0,,,,,,,,,,,,,6,0,36,5,,,335.8046037,None,,,,,,,,,,,,336.90964449999996,None,a,1,0.4968387999999777,336.90964449999996,None,,,,,2,001,2022_Aug_05_1708,Version4,2021.2.0,238.66234528705024,
red_incongruent,0,k,left,red,-0.6,,,,,,,,,,,,,6,1,37,3,,,337.42271320000003,None,,,,,,,,,,,,338.50717790000004,None,k,1,0.5395141999999851,338.50717790000004,None,,,,,2,001,2022_Aug_05_1708,Version4,2021.2.0,238.66234528705024,
blue_congruent,1,a,left,blue,-0.6,,,,,,,,,,,,,6,2,38,0,,,339.0577725,None,,,,,,,,,,,,340.2173261,None,a,1,0.4215880000000425,340.2173261,None,,,,,2,001,2022_Aug_05_1708,Version4,2021.2.0,238.66234528705024,
red_congruent,1,k,right,red,0.6,,,,,,,,,,,,,6,3,39,1,,,340.6556817,None,,,,,,,,,,,,341.6856234,None,k,1,0.5295363999999836,341.6856234,None,,,,,2,001,2022_Aug_05_1708,Version4,2021.2.0,238.66234528705024,
red_neutral,0,k,middle,red,0,,,,,,,,,,,,,6,4,40,4,,,342.2322618,None,,,,,,,,,,,,343.3956906,None,k,1,0.4036410999999589,343.3956906,None,,,,,2,001,2022_Aug_05_1708,Version4,2021.2.0,238.66234528705024,
blue_incongruent,0,a,right,blue,0.6,,,,,,,,,,,,,6,5,41,2,,,343.81286919999997,None,,,,,,,,,,,,344.97248729999995,None,a,1,0.5390899999999874,344.97248729999995,None,,,,,2,001,2022_Aug_05_1708,Version4,2021.2.0,238.66234528705024,
red_incongruent,0,k,left,red,-0.6,,,,,,,,,,,,,7,0,42,3,,,345.52711489999996,None,,,,,,,,,,,,346.5950936,None,k,1,0.47668110000006436,346.5950936,None,,,,,2,001,2022_Aug_05_1708,Version4,2021.2.0,238.66234528705024,
blue_congruent,1,a,left,blue,-0.6,,,,,,,,,,,,,7,1,43,0,,,347.0873697,None,,,,,,,,,,,,348.2007765,None,a,1,0.5032258999999613,348.2007765,None,,,,,2,001,2022_Aug_05_1708,Version4,2021.2.0,238.66234528705024,
blue_neutral,0,a,middle,blue,0,,,,,,,,,,,,,7,2,44,5,,,348.71799200000004,None,,,,,,,,,,,,349.8316653,None,a,1,0.5285735999999588,349.8316653,None,,,,,2,001,2022_Aug_05_1708,Version4,2021.2.0,238.66234528705024,
red_congruent,1,k,right,red,0.6,,,,,,,,,,,,,7,3,45,1,,,350.3741326,None,,,,,,,,,,,,351.4587608,None,k,1,0.5578292999999803,351.4587608,None,,,,,2,001,2022_Aug_05_1708,Version4,2021.2.0,238.66234528705024,
blue_incongruent,0,a,right,blue,0.6,,,,,,,,,,,,,7,4,46,2,,,352.03416050000004,None,,,,,,,,,,,,353.089587,None,a,1,0.5590902000000142,353.089587,None,,,,,2,001,2022_Aug_05_1708,Version4,2021.2.0,238.66234528705024,
blue_incongruent,0,a,right,blue,0.6,,,,,,,,,,,,,7,5,47,2,,,353.665053,None,,,,,,,,,,,,354.7036,None,a,1,0.5055191999999806,354.7036,None,,,,,2,001,2022_Aug_05_1708,Version4,2021.2.0,238.66234528705024,
,,,,,,,,,,,,,,,,,,,,,,,,,,,,,,,,,,,,,,,,,,,,space,5.008270400000015,,,2,001,2022_Aug_05_1708,Version4,2021.2.0,238.66234528705024,
,,,,,,,,,,,,,,,,,,,,,,,,,,,,,,,,,,,,,,,,,,,,,,space,6.747370299999943,2,001,2022_Aug_05_1708,Version4,2021.2.0,238.66234528705024,
