images,congruentcy,corrAns,box_pos,box_color,box_x,pract.thisRepN,pract.thisTrialN,pract.thisN,pract.thisIndex,trials.thisRepN,trials.thisTrialN,trials.thisN,trials.thisIndex,trials_2.thisRepN,trials_2.thisTrialN,trials_2.thisN,trials_2.thisIndex,trials_3.thisRepN,trials_3.thisTrialN,trials_3.thisN,trials_3.thisIndex,key_resp_instr.keys,key_resp_instr.rt,FixCross.started,FixCross.stopped,Box_p.started,Box_p.stopped,key_resp_P.keys,key_resp_P.corr,key_resp_P.rt,key_resp_P.started,key_resp_P.stopped,text_3.started,text_3.stopped,key_resp_2.keys,key_resp_2.rt,Box.started,Box.stopped,key_resp.keys,key_resp.corr,key_resp.rt,key_resp.started,key_resp.stopped,key_resp_3.keys,key_resp_3.rt,key_resp_4.keys,key_resp_4.rt,participant,session,date,expName,psychopyVersion,frameRate,
,,,,,,,,,,,,,,,,,,,,,,space,9.18404819999978,,,,,,,,,,,,,,,,,,,,,,,,,3,001,2022_Aug_05_1856,Version4,2021.2.0,239.68744756545786,
red_neutral,0,k,middle,red,0,0,0,0,4,,,,,,,,,,,,,,,18.871099899999535,None,20.09740299999976,None,k,1,0.9043204999998125,20.09740299999976,None,,,,,,,,,,,,,,,,3,001,2022_Aug_05_1856,Version4,2021.2.0,239.68744756545786,
blue_congruent,1,a,left,blue,-0.6,0,1,1,0,,,,,,,,,,,,,,,22.01608479999959,None,23.033906199999365,None,a,1,0.6963176999997813,23.033906199999365,None,,,,,,,,,,,,,,,,3,001,2022_Aug_05_1856,Version4,2021.2.0,239.68744756545786,
red_congruent,1,k,right,red,0.6,0,2,2,1,,,,,,,,,,,,,,,24.748412899999494,None,25.849475099999836,None,k,1,0.5689786000002641,25.849475099999836,None,,,,,,,,,,,,,,,,3,001,2022_Aug_05_1856,Version4,2021.2.0,239.68744756545786,
red_neutral,0,k,middle,red,0,0,3,3,4,,,,,,,,,,,,,,,27.438623499999267,None,28.472918899999968,None,k,1,0.6821953999997277,28.472918899999968,None,,,,,,,,,,,,,,,,3,001,2022_Aug_05_1856,Version4,2021.2.0,239.68744756545786,
blue_incongruent,0,a,right,blue,0.6,0,4,4,2,,,,,,,,,,,,,,,30.174861999999848,None,31.334401099999923,None,a,1,0.6291103000003204,31.334401099999923,None,,,,,,,,,,,,,,,,3,001,2022_Aug_05_1856,Version4,2021.2.0,239.68744756545786,
red_neutral,0,k,middle,red,0,0,5,5,4,,,,,,,,,,,,,,,32.98204599999917,None,34.104018499999256,None,k,1,0.5555098000004364,34.104018499999256,None,,,,,,,,,,,,,,,,3,001,2022_Aug_05_1856,Version4,2021.2.0,239.68744756545786,
red_incongruent,0,k,left,red,-0.6,1,0,6,3,,,,,,,,,,,,,,,35.676497099999324,None,36.89849959999992,None,k,1,0.5857624999998734,36.89849959999992,None,,,,,,,,,,,,,,,,3,001,2022_Aug_05_1856,Version4,2021.2.0,239.68744756545786,
blue_congruent,1,a,left,blue,-0.6,1,1,7,0,,,,,,,,,,,,,,,38.500425399999585,None,39.65569830000004,None,a,1,0.8927615000002334,39.65569830000004,None,,,,,,,,,,,,,,,,3,001,2022_Aug_05_1856,Version4,2021.2.0,239.68744756545786,
blue_neutral,0,a,middle,blue,0,1,2,8,5,,,,,,,,,,,,,,,41.57024099999944,None,42.642091899999286,None,a,1,1.538897200000065,42.642091899999286,None,,,,,,,,,,,,,,,,3,001,2022_Aug_05_1856,Version4,2021.2.0,239.68744756545786,
red_congruent,1,k,right,red,0.6,1,3,9,1,,,,,,,,,,,,,,,45.20331019999958,None,46.23761719999948,None,k,1,0.5676862999998775,46.23761719999948,None,,,,,,,,,,,,,,,,3,001,2022_Aug_05_1856,Version4,2021.2.0,239.68744756545786,
blue_incongruent,0,a,right,blue,0.6,1,4,10,2,,,,,,,,,,,,,,,47.82266759999948,None,48.90303679999943,None,a,1,0.646472200000062,48.90303679999943,None,,,,,,,,,,,,,,,,3,001,2022_Aug_05_1856,Version4,2021.2.0,239.68744756545786,
blue_incongruent,0,a,right,blue,0.6,1,5,11,2,,,,,,,,,,,,,,,50.56316599999991,None,51.66425099999924,None,a,1,0.5577734999997119,51.66425099999924,None,,,,,,,,,,,,,,,,3,001,2022_Aug_05_1856,Version4,2021.2.0,239.68744756545786,
blue_congruent,1,a,left,blue,-0.6,2,0,12,0,,,,,,,,,,,,,,,53.24077419999958,None,54.29620569999952,None,a,1,0.5900231999994503,54.29620569999952,None,,,,,,,,,,,,,,,,3,001,2022_Aug_05_1856,Version4,2021.2.0,239.68744756545786,
blue_neutral,0,a,middle,blue,0,2,1,13,5,,,,,,,,,,,,,,,55.90625959999943,None,57.04063759999917,None,a,1,0.5179784000001746,57.04063759999917,None,,,,,,,,,,,,,,,,3,001,2022_Aug_05_1856,Version4,2021.2.0,239.68744756545786,
red_neutral,0,k,middle,red,0,2,2,14,4,,,,,,,,,,,,,,,58.57997019999948,None,59.61423019999984,None,k,1,0.6487002000003486,59.61423019999984,None,,,,,,,,,,,,,,,,3,001,2022_Aug_05_1856,Version4,2021.2.0,239.68744756545786,
red_congruent,1,k,right,red,0.6,2,3,15,1,,,,,,,,,,,,,,,61.2867813999992,None,62.488198199999715,None,k,1,0.4952693999994153,62.488198199999715,None,,,,,,,,,,,,,,,,3,001,2022_Aug_05_1856,Version4,2021.2.0,239.68744756545786,
blue_neutral,0,a,middle,blue,0,2,4,16,5,,,,,,,,,,,,,,,63.998009199999615,None,65.12443609999991,None,a,1,0.7552652000003945,65.12443609999991,None,,,,,,,,,,,,,,,,3,001,2022_Aug_05_1856,Version4,2021.2.0,239.68744756545786,
red_incongruent,0,k,left,red,-0.6,2,5,17,3,,,,,,,,,,,,,,,66.89275669999915,None,68.01906389999931,None,a,0,0.40514299999995274,68.01906389999931,None,,,,,,,,,,,,,,,,3,001,2022_Aug_05_1856,Version4,2021.2.0,239.68744756545786,
red_incongruent,0,k,left,red,-0.6,3,0,18,3,,,,,,,,,,,,,,,69.44575480000003,None,70.56329889999961,None,k,1,0.6210927999991327,70.56329889999961,None,,,,,,,,,,,,,,,,3,001,2022_Aug_05_1856,Version4,2021.2.0,239.68744756545786,
blue_incongruent,0,a,right,blue,0.6,3,1,19,2,,,,,,,,,,,,,,,72.19867019999947,None,73.31210429999919,None,a,1,0.928722700000435,73.31210429999919,None,,,,,,,,,,,,,,,,3,001,2022_Aug_05_1856,Version4,2021.2.0,239.68744756545786,
blue_congruent,1,a,left,blue,-0.6,3,2,20,0,,,,,,,,,,,,,,,75.25588199999947,None,76.36121490000005,None,a,1,1.136062700000366,76.36121490000005,None,,,,,,,,,,,,,,,,3,001,2022_Aug_05_1856,Version4,2021.2.0,239.68744756545786,
red_incongruent,0,k,left,red,-0.6,3,3,21,3,,,,,,,,,,,,,,,78.51348929999949,None,79.5353669999995,None,k,1,0.6185187000000951,79.5353669999995,None,,,,,,,,,,,,,,,,3,001,2022_Aug_05_1856,Version4,2021.2.0,239.68744756545786,
blue_neutral,0,a,middle,blue,0,3,4,22,5,,,,,,,,,,,,,,,81.17047029999958,None,82.26313839999966,None,a,1,0.6670243999997183,82.26313839999966,None,,,,,,,,,,,,,,,,3,001,2022_Aug_05_1856,Version4,2021.2.0,239.68744756545786,
red_congruent,1,k,right,red,0.6,3,5,23,1,,,,,,,,,,,,,,,83.94841969999925,None,85.09136390000003,None,k,1,0.6149921000005634,85.09136390000003,None,,,,,,,,,,,,,,,,3,001,2022_Aug_05_1856,Version4,2021.2.0,239.68744756545786,
,,,,,,,,,,,,,,,,,,,,,,,,,,,,,,,,,86.73476009999922,None,space,2.0586900000007518,,,,,,,,,,,,3,001,2022_Aug_05_1856,Version4,2021.2.0,239.68744756545786,
blue_congruent,1,a,left,blue,-0.6,,,,,0,0,0,0,,,,,,,,,,,90.80972069999916,None,,,,,,,,,,,,91.94841649999944,None,a,1,0.9828836999995474,91.94841649999944,None,,,,,3,001,2022_Aug_05_1856,Version4,2021.2.0,239.68744756545786,
blue_neutral,0,a,middle,blue,0,,,,,0,1,1,5,,,,,,,,,,,92.94971309999983,None,,,,,,,,,,,,94.05900799999927,None,a,1,0.40860820000034437,94.05900799999927,None,,,,,3,001,2022_Aug_05_1856,Version4,2021.2.0,239.68744756545786,
blue_congruent,1,a,left,blue,-0.6,,,,,0,2,2,0,,,,,,,,,,,94.48466409999946,None,,,,,,,,,,,,95.58985929999926,None,a,1,0.42181630000050063,95.58985929999926,None,,,,,3,001,2022_Aug_05_1856,Version4,2021.2.0,239.68744756545786,
red_congruent,1,k,right,red,0.6,,,,,0,3,3,1,,,,,,,,,,,96.02357979999942,None,,,,,,,,,,,,97.12890729999981,None,k,1,0.40301109999927576,97.12890729999981,None,,,,,3,001,2022_Aug_05_1856,Version4,2021.2.0,239.68744756545786,
blue_neutral,0,a,middle,blue,0,,,,,0,4,4,5,,,,,,,,,,,97.5461381999994,None,,,,,,,,,,,,98.58898059999956,None,a,1,0.4953005999996094,98.58898059999956,None,,,,,3,001,2022_Aug_05_1856,Version4,2021.2.0,239.68744756545786,
blue_incongruent,0,a,right,blue,0.6,,,,,0,5,5,2,,,,,,,,,,,99.09778599999936,None,,,,,,,,,,,,100.14058059999934,None,a,1,0.3917671999997765,100.14058059999934,None,,,,,3,001,2022_Aug_05_1856,Version4,2021.2.0,239.68744756545786,
red_neutral,0,k,middle,red,0,,,,,1,0,6,4,,,,,,,,,,,100.54502609999963,None,,,,,,,,,,,,101.67984230000002,None,k,1,0.5328419000006761,101.67984230000002,None,,,,,3,001,2022_Aug_05_1856,Version4,2021.2.0,239.68744756545786,
blue_incongruent,0,a,right,blue,0.6,,,,,1,1,7,2,,,,,,,,,,,102.23037849999946,None,,,,,,,,,,,,103.35228029999962,None,a,1,0.5806433999996443,103.35228029999962,None,,,,,3,001,2022_Aug_05_1856,Version4,2021.2.0,239.68744756545786,
red_incongruent,0,k,left,red,-0.6,,,,,1,2,8,3,,,,,,,,,,,103.94878459999927,None,,,,,,,,,,,,105.0373912999994,None,k,1,0.6077765999998519,105.0373912999994,None,,,,,3,001,2022_Aug_05_1856,Version4,2021.2.0,239.68744756545786,
blue_congruent,1,a,left,blue,-0.6,,,,,1,3,9,0,,,,,,,,,,,105.66310469999917,None,,,,,,,,,,,,106.71822229999998,None,a,1,0.46325550000074145,106.71822229999998,None,,,,,3,001,2022_Aug_05_1856,Version4,2021.2.0,239.68744756545786,
red_congruent,1,k,right,red,0.6,,,,,1,4,10,1,,,,,,,,,,,107.19803759999922,None,,,,,,,,,,,,108.24920139999995,None,k,1,0.388187000000471,108.24920139999995,None,,,,,3,001,2022_Aug_05_1856,Version4,2021.2.0,239.68744756545786,
red_neutral,0,k,middle,red,0,,,,,1,5,11,4,,,,,,,,,,,108.64966599999934,None,,,,,,,,,,,,109.93420999999944,None,k,1,0.39156980000007025,109.93420999999944,None,,,,,3,001,2022_Aug_05_1856,Version4,2021.2.0,239.68744756545786,
blue_neutral,0,a,middle,blue,0,,,,,2,0,12,5,,,,,,,,,,,110.34303499999987,None,,,,,,,,,,,,111.46097819999977,None,a,1,0.43302029999995284,111.46097819999977,None,,,,,3,001,2022_Aug_05_1856,Version4,2021.2.0,239.68744756545786,
red_neutral,0,k,middle,red,0,,,,,2,1,13,4,,,,,,,,,,,111.91135569999915,None,,,,,,,,,,,,113.02919549999933,None,k,1,0.3851142000003165,113.02919549999933,None,,,,,3,001,2022_Aug_05_1856,Version4,2021.2.0,239.68744756545786,
red_congruent,1,k,right,red,0.6,,,,,2,2,14,1,,,,,,,,,,,113.42968709999968,None,,,,,,,,,,,,114.48073159999967,None,k,1,0.7815399999999499,114.48073159999967,None,,,,,3,001,2022_Aug_05_1856,Version4,2021.2.0,239.68744756545786,
blue_neutral,0,a,middle,blue,0,,,,,2,3,15,5,,,,,,,,,,,115.27321779999966,None,,,,,,,,,,,,116.36590559999968,None,k,0,0.4087157000003572,116.36590559999968,None,,,,,3,001,2022_Aug_05_1856,Version4,2021.2.0,239.68744756545786,
blue_neutral,0,a,middle,blue,0,,,,,2,4,16,5,,,,,,,,,,,116.79157749999922,None,,,,,,,,,,,,117.90934560000005,None,a,1,0.7934125000001586,117.90934560000005,None,,,,,3,001,2022_Aug_05_1856,Version4,2021.2.0,239.68744756545786,
blue_incongruent,0,a,right,blue,0.6,,,,,2,5,17,2,,,,,,,,,,,118.71862059999967,None,,,,,,,,,,,,119.77380959999937,None,a,1,0.6491639999994732,119.77380959999937,None,,,,,3,001,2022_Aug_05_1856,Version4,2021.2.0,239.68744756545786,
red_neutral,0,k,middle,red,0,,,,,3,0,18,4,,,,,,,,,,,120.44123199999922,None,,,,,,,,,,,,121.60074509999959,None,k,1,0.5904681000001801,121.60074509999959,None,,,,,3,001,2022_Aug_05_1856,Version4,2021.2.0,239.68744756545786,
red_congruent,1,k,right,red,0.6,,,,,3,1,19,1,,,,,,,,,,,122.20556739999938,None,,,,,,,,,,,,123.38598229999934,None,k,1,0.6214829000000464,123.38598229999934,None,,,,,3,001,2022_Aug_05_1856,Version4,2021.2.0,239.68744756545786,
red_incongruent,0,k,left,red,-0.6,,,,,3,2,20,3,,,,,,,,,,,124.02417349999996,None,,,,,,,,,,,,125.06692099999964,None,k,1,0.5328719000008277,125.06692099999964,None,,,,,3,001,2022_Aug_05_1856,Version4,2021.2.0,239.68744756545786,
blue_neutral,0,a,middle,blue,0,,,,,3,3,21,5,,,,,,,,,,,125.61756889999924,None,,,,,,,,,,,,126.70196889999988,None,a,1,0.45804970000062895,126.70196889999988,None,,,,,3,001,2022_Aug_05_1856,Version4,2021.2.0,239.68744756545786,
blue_neutral,0,a,middle,blue,0,,,,,3,4,22,5,,,,,,,,,,,127.17756949999966,None,,,,,,,,,,,,128.25362029999997,None,a,1,0.3544448000002376,128.25362029999997,None,,,,,3,001,2022_Aug_05_1856,Version4,2021.2.0,239.68744756545786,
blue_incongruent,0,a,right,blue,0.6,,,,,3,5,23,2,,,,,,,,,,,128.62074559999928,None,,,,,,,,,,,,129.7260168999992,None,a,1,0.4822353999998086,129.7260168999992,None,,,,,3,001,2022_Aug_05_1856,Version4,2021.2.0,239.68744756545786,
red_congruent,1,k,right,red,0.6,,,,,4,0,24,1,,,,,,,,,,,130.2265527999998,None,,,,,,,,,,,,131.34856079999918,None,k,1,0.516233899999861,131.34856079999918,None,,,,,3,001,2022_Aug_05_1856,Version4,2021.2.0,239.68744756545786,
red_incongruent,0,k,left,red,-0.6,,,,,4,1,25,3,,,,,,,,,,,131.88246639999943,None,,,,,,,,,,,,132.96695309999996,None,k,1,0.5217602000002444,132.96695309999996,None,,,,,3,001,2022_Aug_05_1856,Version4,2021.2.0,239.68744756545786,
red_congruent,1,k,right,red,0.6,,,,,4,2,26,1,,,,,,,,,,,133.5009958999999,None,,,,,,,,,,,,134.61039019999953,None,k,1,0.43052979999993113,134.61039019999953,None,,,,,3,001,2022_Aug_05_1856,Version4,2021.2.0,239.68744756545786,
blue_congruent,1,a,left,blue,-0.6,,,,,4,3,27,0,,,,,,,,,,,135.05248969999957,None,,,,,,,,,,,,136.20370609999918,None,k,0,0.4213980000004085,136.20370609999918,None,,,,,3,001,2022_Aug_05_1856,Version4,2021.2.0,239.68744756545786,
red_incongruent,0,k,left,red,-0.6,,,,,4,4,28,3,,,,,,,,,,,136.63749049999933,None,,,,,,,,,,,,137.7345378,None,k,1,0.5709908999997424,137.7345378,None,,,,,3,001,2022_Aug_05_1856,Version4,2021.2.0,239.68744756545786,
red_incongruent,0,k,left,red,-0.6,,,,,4,5,29,3,,,,,,,,,,,138.32254759999978,None,,,,,,,,,,,,139.41544199999953,None,k,1,0.5782773000000816,139.41544199999953,None,,,,,3,001,2022_Aug_05_1856,Version4,2021.2.0,239.68744756545786,
red_neutral,0,k,middle,red,0,,,,,5,0,30,4,,,,,,,,,,,140.00777729999936,None,,,,,,,,,,,,141.12573229999998,None,k,1,0.548027899999397,141.12573229999998,None,,,,,3,001,2022_Aug_05_1856,Version4,2021.2.0,239.68744756545786,
blue_congruent,1,a,left,blue,-0.6,,,,,5,1,31,0,,,,,,,,,,,141.68867079999927,None,,,,,,,,,,,,142.7312947999999,None,a,1,0.8147515000000567,142.7312947999999,None,,,,,3,001,2022_Aug_05_1856,Version4,2021.2.0,239.68744756545786,
blue_incongruent,0,a,right,blue,0.6,,,,,5,2,32,2,,,,,,,,,,,143.56137789999957,None,,,,,,,,,,,,144.7417676999994,None,a,1,0.5805356000000756,144.7417676999994,None,,,,,3,001,2022_Aug_05_1856,Version4,2021.2.0,239.68744756545786,
blue_congruent,1,a,left,blue,-0.6,,,,,5,3,33,0,,,,,,,,,,,145.33830419999958,None,,,,,,,,,,,,146.45229419999941,None,a,1,0.6541973000003054,146.45229419999941,None,,,,,3,001,2022_Aug_05_1856,Version4,2021.2.0,239.68744756545786,
red_neutral,0,k,middle,red,0,,,,,5,4,34,4,,,,,,,,,,,147.11942439999984,None,,,,,,,,,,,,148.1829147999997,None,k,1,0.6278280999995332,148.1829147999997,None,,,,,3,001,2022_Aug_05_1856,Version4,2021.2.0,239.68744756545786,
red_neutral,0,k,middle,red,0,,,,,5,5,35,4,,,,,,,,,,,148.82560529999955,None,,,,,,,,,,,,149.86386129999937,None,k,1,0.43507360000057815,149.86386129999937,None,,,,,3,001,2022_Aug_05_1856,Version4,2021.2.0,239.68744756545786,
red_congruent,1,k,right,red,0.6,,,,,6,0,36,1,,,,,,,,,,,150.31032159999995,None,,,,,,,,,,,,151.39046549999966,None,k,1,0.6526874000001044,151.39046549999966,None,,,,,3,001,2022_Aug_05_1856,Version4,2021.2.0,239.68744756545786,
red_incongruent,0,k,left,red,-0.6,,,,,6,1,37,3,,,,,,,,,,,152.05799389999993,None,,,,,,,,,,,,153.1298012999996,None,k,1,0.5616100999995979,153.1298012999996,None,,,,,3,001,2022_Aug_05_1856,Version4,2021.2.0,239.68744756545786,
blue_incongruent,0,a,right,blue,0.6,,,,,6,2,38,2,,,,,,,,,,,153.70561309999994,None,,,,,,,,,,,,154.90714299999945,None,a,1,0.44062619999931485,154.90714299999945,None,,,,,3,001,2022_Aug_05_1856,Version4,2021.2.0,239.68744756545786,
red_neutral,0,k,middle,red,0,,,,,6,3,39,4,,,,,,,,,,,155.36132709999947,None,,,,,,,,,,,,156.50018490000002,None,k,1,0.39161249999961,156.50018490000002,None,,,,,3,001,2022_Aug_05_1856,Version4,2021.2.0,239.68744756545786,
red_congruent,1,k,right,red,0.6,,,,,6,4,40,1,,,,,,,,,,,156.9047828999992,None,,,,,,,,,,,,157.99345579999954,None,k,1,0.6906201000001602,157.99345579999954,None,,,,,3,001,2022_Aug_05_1856,Version4,2021.2.0,239.68744756545786,
blue_congruent,1,a,left,blue,-0.6,,,,,6,5,41,0,,,,,,,,,,,158.70253019999927,None,,,,,,,,,,,,159.7786647999992,None,a,1,0.4976298000001407,159.7786647999992,None,,,,,3,001,2022_Aug_05_1856,Version4,2021.2.0,239.68744756545786,
red_incongruent,0,k,left,red,-0.6,,,,,7,0,42,3,,,,,,,,,,,160.28754319999916,None,,,,,,,,,,,,161.3636805999995,None,a,0,0.4169302999998763,161.3636805999995,None,,,,,3,001,2022_Aug_05_1856,Version4,2021.2.0,239.68744756545786,
blue_neutral,0,a,middle,blue,0,,,,,7,1,43,5,,,,,,,,,,,161.79749829999946,None,,,,,,,,,,,,162.87379919999967,None,a,1,1.6272603000006711,162.87379919999967,None,,,,,3,001,2022_Aug_05_1856,Version4,2021.2.0,239.68744756545786,
blue_congruent,1,a,left,blue,-0.6,,,,,7,2,44,0,,,,,,,,,,,164.5170374999998,None,,,,,,,,,,,,165.6430496999992,None,a,1,0.7220555000003515,165.6430496999992,None,,,,,3,001,2022_Aug_05_1856,Version4,2021.2.0,239.68744756545786,
red_incongruent,0,k,left,red,-0.6,,,,,7,3,45,3,,,,,,,,,,,166.3774567999999,None,,,,,,,,,,,,167.49098679999952,None,k,1,1.0904061000001093,167.49098679999952,None,,,,,3,001,2022_Aug_05_1856,Version4,2021.2.0,239.68744756545786,
blue_incongruent,0,a,right,blue,0.6,,,,,7,4,46,2,,,,,,,,,,,168.60059639999963,None,,,,,,,,,,,,169.70584309999958,None,a,1,0.7079423000004681,169.70584309999958,None,,,,,3,001,2022_Aug_05_1856,Version4,2021.2.0,239.68744756545786,
blue_incongruent,0,a,right,blue,0.6,,,,,7,5,47,2,,,,,,,,,,,170.43160839999928,None,,,,,,,,,,,,171.53284369999983,None,a,1,0.6890448000003744,171.53284369999983,None,,,,,3,001,2022_Aug_05_1856,Version4,2021.2.0,239.68744756545786,
,,,,,,,,,,,,,,,,,,,,,,,,,,,,,,,,,,,,,,,,,,,,space,4.820781199999146,,,3,001,2022_Aug_05_1856,Version4,2021.2.0,239.68744756545786,
blue_incongruent,0,a,right,blue,0.6,,,,,,,,,0,0,0,2,,,,,,,177.09705569999915,None,,,,,,,,,,,,178.12725219999993,None,a,1,1.287592599999698,178.12725219999993,None,,,,,3,001,2022_Aug_05_1856,Version4,2021.2.0,239.68744756545786,
red_congruent,1,k,right,red,0.6,,,,,,,,,0,1,1,1,,,,,,,179.42849260000003,None,,,,,,,,,,,,180.51310159999957,None,k,1,0.45393809999950463,180.51310159999957,None,,,,,3,001,2022_Aug_05_1856,Version4,2021.2.0,239.68744756545786,
red_congruent,1,k,right,red,0.6,,,,,,,,,0,2,2,1,,,,,,,180.9760540999996,None,,,,,,,,,,,,182.06044719999954,None,k,1,0.4187779000003502,182.06044719999954,None,,,,,3,001,2022_Aug_05_1856,Version4,2021.2.0,239.68744756545786,
blue_neutral,0,a,middle,blue,0,,,,,,,,,0,3,3,5,,,,,,,182.49440199999935,None,,,,,,,,,,,,183.62043949999952,None,a,1,0.4590227999997296,183.62043949999952,None,,,,,3,001,2022_Aug_05_1856,Version4,2021.2.0,239.68744756545786,
blue_neutral,0,a,middle,blue,0,,,,,,,,,0,4,4,5,,,,,,,184.09607419999975,None,,,,,,,,,,,,185.13036909999937,None,a,1,0.38930160000018077,185.13036909999937,None,,,,,3,001,2022_Aug_05_1856,Version4,2021.2.0,239.68744756545786,
blue_congruent,1,a,left,blue,-0.6,,,,,,,,,0,5,5,0,,,,,,,185.53511600000002,None,,,,,,,,,,,,186.56522489999952,None,a,1,0.6669874999997774,186.56522489999952,None,,,,,3,001,2022_Aug_05_1856,Version4,2021.2.0,239.68744756545786,
blue_neutral,0,a,middle,blue,0,,,,,,,,,1,0,6,5,,,,,,,187.24520159999975,None,,,,,,,,,,,,188.30872969999928,None,a,1,0.3393335000000661,188.30872969999928,None,,,,,3,001,2022_Aug_05_1856,Version4,2021.2.0,239.68744756545786,
red_incongruent,0,k,left,red,-0.6,,,,,,,,,1,1,7,3,,,,,,,188.65910389999954,None,,,,,,,,,,,,189.77278599999954,None,k,1,0.6115101999994295,189.77278599999954,None,,,,,3,001,2022_Aug_05_1856,Version4,2021.2.0,239.68744756545786,
red_neutral,0,k,middle,red,0,,,,,,,,,1,2,8,4,,,,,,,190.3984462999997,None,,,,,,,,,,,,191.49127059999955,None,k,1,0.509231500000169,191.49127059999955,None,,,,,3,001,2022_Aug_05_1856,Version4,2021.2.0,239.68744756545786,
blue_incongruent,0,a,right,blue,0.6,,,,,,,,,1,3,9,2,,,,,,,192.01276039999993,None,,,,,,,,,,,,193.09307479999916,None,a,1,0.5078081999999995,193.09307479999916,None,,,,,3,001,2022_Aug_05_1856,Version4,2021.2.0,239.68744756545786,
red_neutral,0,k,middle,red,0,,,,,,,,,1,4,10,4,,,,,,,193.61851429999933,None,,,,,,,,,,,,194.73649169999953,None,a,0,0.44045269999969605,194.73649169999953,None,,,,,3,001,2022_Aug_05_1856,Version4,2021.2.0,239.68744756545786,
red_congruent,1,k,right,red,0.6,,,,,,,,,1,5,11,1,,,,,,,195.19531819999975,None,,,,,,,,,,,,196.3216266999998,None,k,1,1.2397270999999819,196.3216266999998,None,,,,,3,001,2022_Aug_05_1856,Version4,2021.2.0,239.68744756545786,
red_incongruent,0,k,left,red,-0.6,,,,,,,,,2,0,12,3,,,,,,,197.57703729999957,None,,,,,,,,,,,,198.64466879999964,None,k,1,0.7728401000003942,198.64466879999964,None,,,,,3,001,2022_Aug_05_1856,Version4,2021.2.0,239.68744756545786,
red_incongruent,0,k,left,red,-0.6,,,,,,,,,2,1,13,3,,,,,,,199.4289622999995,None,,,,,,,,,,,,200.50926749999962,None,k,1,0.5085625000001528,200.50926749999962,None,,,,,3,001,2022_Aug_05_1856,Version4,2021.2.0,239.68744756545786,
red_incongruent,0,k,left,red,-0.6,,,,,,,,,2,2,14,3,,,,,,,201.0347173,None,,,,,,,,,,,,202.11515299999974,None,k,1,0.43077639999955863,202.11515299999974,None,,,,,3,001,2022_Aug_05_1856,Version4,2021.2.0,239.68744756545786,
blue_congruent,1,a,left,blue,-0.6,,,,,,,,,2,3,15,0,,,,,,,202.5572820999996,None,,,,,,,,,,,,203.67523939999955,None,a,1,0.3830270999997083,203.67523939999955,None,,,,,3,001,2022_Aug_05_1856,Version4,2021.2.0,239.68744756545786,
red_incongruent,0,k,left,red,-0.6,,,,,,,,,2,4,16,3,,,,,,,204.07147149999946,None,,,,,,,,,,,,205.26431149999917,None,k,1,0.5300335000001724,205.26431149999917,None,,,,,3,001,2022_Aug_05_1856,Version4,2021.2.0,239.68744756545786,
red_neutral,0,k,middle,red,0,,,,,,,,,2,5,17,4,,,,,,,205.8065563,None,,,,,,,,,,,,206.8952064999994,None,a,0,0.4514883000001646,206.8952064999994,None,,,,,3,001,2022_Aug_05_1856,Version4,2021.2.0,239.68744756545786,
red_incongruent,0,k,left,red,-0.6,,,,,,,,,3,0,18,3,,,,,,,207.36248459999933,None,,,,,,,,,,,,208.4468414999992,None,k,1,1.4600931000004493,208.4468414999992,None,,,,,3,001,2022_Aug_05_1856,Version4,2021.2.0,239.68744756545786,
red_incongruent,0,k,left,red,-0.6,,,,,,,,,3,1,19,3,,,,,,,209.91932689999976,None,,,,,,,,,,,,211.1205433999994,None,k,1,0.7386017999997421,211.1205433999994,None,,,,,3,001,2022_Aug_05_1856,Version4,2021.2.0,239.68744756545786,
blue_congruent,1,a,left,blue,-0.6,,,,,,,,,3,2,20,0,,,,,,,211.87130529999922,None,,,,,,,,,,,,213.0266886999998,None,a,1,0.6567290000002686,213.0266886999998,None,,,,,3,001,2022_Aug_05_1856,Version4,2021.2.0,239.68744756545786,
blue_incongruent,0,a,right,blue,0.6,,,,,,,,,3,3,21,2,,,,,,,213.6940537999999,None,,,,,,,,,,,,214.88699459999953,None,a,1,0.652854799999659,214.88699459999953,None,,,,,3,001,2022_Aug_05_1856,Version4,2021.2.0,239.68744756545786,
red_neutral,0,k,middle,red,0,,,,,,,,,3,4,22,4,,,,,,,215.55438439999944,None,,,,,,,,,,,,216.67638409999927,None,k,1,0.7277428000006694,216.67638409999927,None,,,,,3,001,2022_Aug_05_1856,Version4,2021.2.0,239.68744756545786,
blue_congruent,1,a,left,blue,-0.6,,,,,,,,,3,5,23,0,,,,,,,217.41884559999926,None,,,,,,,,,,,,218.4948190999994,None,a,1,1.397416699999667,218.4948190999994,None,,,,,3,001,2022_Aug_05_1856,Version4,2021.2.0,239.68744756545786,
blue_congruent,1,a,left,blue,-0.6,,,,,,,,,4,0,24,0,,,,,,,219.90480819999993,None,,,,,,,,,,,,220.96843179999996,None,a,1,0.5320357000000513,220.96843179999996,None,,,,,3,001,2022_Aug_05_1856,Version4,2021.2.0,239.68744756545786,
red_neutral,0,k,middle,red,0,,,,,,,,,4,1,25,4,,,,,,,221.51469120000002,None,,,,,,,,,,,,222.55360029999974,None,k,1,0.43503899999996065,222.55360029999974,None,,,,,3,001,2022_Aug_05_1856,Version4,2021.2.0,239.68744756545786,
blue_neutral,0,a,middle,blue,0,,,,,,,,,4,2,26,5,,,,,,,222.99975579999955,None,,,,,,,,,,,,224.03032540000004,None,k,0,0.5105290999999852,224.03032540000004,None,,,,,3,001,2022_Aug_05_1856,Version4,2021.2.0,239.68744756545786,
red_congruent,1,k,right,red,0.6,,,,,,,,,4,3,27,1,,,,,,,224.55134889999954,None,,,,,,,,,,,,225.69842599999993,None,k,1,0.8270025000001624,225.69842599999993,None,,,,,3,001,2022_Aug_05_1856,Version4,2021.2.0,239.68744756545786,
red_incongruent,0,k,left,red,-0.6,,,,,,,,,4,4,28,3,,,,,,,226.54095809999944,None,,,,,,,,,,,,227.72140579999996,None,k,1,0.7319784000001164,227.72140579999996,None,,,,,3,001,2022_Aug_05_1856,Version4,2021.2.0,239.68744756545786,
blue_congruent,1,a,left,blue,-0.6,,,,,,,,,4,5,29,0,,,,,,,228.4721144999994,None,,,,,,,,,,,,229.53999439999916,None,a,1,0.9936624000001757,229.53999439999916,None,,,,,3,001,2022_Aug_05_1856,Version4,2021.2.0,239.68744756545786,
red_neutral,0,k,middle,red,0,,,,,,,,,5,0,30,4,,,,,,,230.5453607999998,None,,,,,,,,,,,,231.64221309999994,None,k,1,0.4357783000004929,231.64221309999994,None,,,,,3,001,2022_Aug_05_1856,Version4,2021.2.0,239.68744756545786,
blue_neutral,0,a,middle,blue,0,,,,,,,,,5,1,31,5,,,,,,,232.09271479999916,None,,,,,,,,,,,,233.29801409999982,None,a,1,0.5320775999998659,233.29801409999982,None,,,,,3,001,2022_Aug_05_1856,Version4,2021.2.0,239.68744756545786,
blue_incongruent,0,a,right,blue,0.6,,,,,,,,,5,2,32,2,,,,,,,233.84455609999986,None,,,,,,,,,,,,235.03325829999994,None,a,1,0.517052799999874,235.03325829999994,None,,,,,3,001,2022_Aug_05_1856,Version4,2021.2.0,239.68744756545786,
red_congruent,1,k,right,red,0.6,,,,,,,,,5,3,33,1,,,,,,,235.56304289999935,None,,,,,,,,,,,,236.69765199999983,None,k,1,0.5571565000000192,236.69765199999983,None,,,,,3,001,2022_Aug_05_1856,Version4,2021.2.0,239.68744756545786,
blue_neutral,0,a,middle,blue,0,,,,,,,,,5,4,34,5,,,,,,,237.26903649999986,None,,,,,,,,,,,,238.4704858999994,None,a,1,0.4802677000006952,238.4704858999994,None,,,,,3,001,2022_Aug_05_1856,Version4,2021.2.0,239.68744756545786,
blue_incongruent,0,a,right,blue,0.6,,,,,,,,,5,5,35,2,,,,,,,238.9624735999996,None,,,,,,,,,,,,240.15527459999976,None,a,1,0.5078869999997551,240.15527459999976,None,,,,,3,001,2022_Aug_05_1856,Version4,2021.2.0,239.68744756545786,
blue_congruent,1,a,left,blue,-0.6,,,,,,,,,6,0,36,0,,,,,,,240.68094609999935,None,,,,,,,,,,,,241.73206289999962,None,a,1,0.6191575000002558,241.73206289999962,None,,,,,3,001,2022_Aug_05_1856,Version4,2021.2.0,239.68744756545786,
red_congruent,1,k,right,red,0.6,,,,,,,,,6,1,37,1,,,,,,,242.36625800000002,None,,,,,,,,,,,,243.59654619999947,None,k,1,0.4509304000002885,243.59654619999947,None,,,,,3,001,2022_Aug_05_1856,Version4,2021.2.0,239.68744756545786,
blue_neutral,0,a,middle,blue,0,,,,,,,,,6,2,38,5,,,,,,,244.0637816999997,None,,,,,,,,,,,,245.14809929999956,None,a,1,0.5235771999996359,245.14809929999956,None,,,,,3,001,2022_Aug_05_1856,Version4,2021.2.0,239.68744756545786,
blue_neutral,0,a,middle,blue,0,,,,,,,,,6,3,39,5,,,,,,,245.68627169999945,None,,,,,,,,,,,,246.79567859999952,None,a,1,0.3485595000001922,246.79567859999952,None,,,,,3,001,2022_Aug_05_1856,Version4,2021.2.0,239.68744756545786,
red_congruent,1,k,right,red,0.6,,,,,,,,,6,4,40,1,,,,,,,247.15886049999972,None,,,,,,,,,,,,248.1888825999995,None,k,1,0.4031520999997156,248.1888825999995,None,,,,,3,001,2022_Aug_05_1856,Version4,2021.2.0,239.68744756545786,
blue_incongruent,0,a,right,blue,0.6,,,,,,,,,6,5,41,2,,,,,,,248.6101790999992,None,,,,,,,,,,,,249.7365379999992,None,a,1,0.4717174999996132,249.7365379999992,None,,,,,3,001,2022_Aug_05_1856,Version4,2021.2.0,239.68744756545786,
red_neutral,0,k,middle,red,0,,,,,,,,,7,0,42,4,,,,,,,250.22024169999986,None,,,,,,,,,,,,251.30455259999962,None,k,1,0.49619780000011815,251.30455259999962,None,,,,,3,001,2022_Aug_05_1856,Version4,2021.2.0,239.68744756545786,
blue_incongruent,0,a,right,blue,0.6,,,,,,,,,7,1,43,2,,,,,,,251.81771669999944,None,,,,,,,,,,,,253.01066730000002,None,a,1,0.6941209000005983,253.01066730000002,None,,,,,3,001,2022_Aug_05_1856,Version4,2021.2.0,239.68744756545786,
red_neutral,0,k,middle,red,0,,,,,,,,,7,2,44,4,,,,,,,253.71553099999983,None,,,,,,,,,,,,254.86687540000003,None,k,1,0.3260816000001796,254.86687540000003,None,,,,,3,001,2022_Aug_05_1856,Version4,2021.2.0,239.68744756545786,
blue_incongruent,0,a,right,blue,0.6,,,,,,,,,7,3,45,2,,,,,,,255.20868689999952,None,,,,,,,,,,,,256.2807920999994,None,a,1,0.5843791999996029,256.2807920999994,None,,,,,3,001,2022_Aug_05_1856,Version4,2021.2.0,239.68744756545786,
red_congruent,1,k,right,red,0.6,,,,,,,,,7,4,46,1,,,,,,,256.88144509999984,None,,,,,,,,,,,,257.9074753999994,None,k,1,0.41390790000059496,257.9074753999994,None,,,,,3,001,2022_Aug_05_1856,Version4,2021.2.0,239.68744756545786,
blue_congruent,1,a,left,blue,-0.6,,,,,,,,,7,5,47,0,,,,,,,258.3329662999995,None,,,,,,,,,,,,259.40075159999924,None,a,1,0.46482819999982894,259.40075159999924,None,,,,,3,001,2022_Aug_05_1856,Version4,2021.2.0,239.68744756545786,
,,,,,,,,,,,,,,,,,,,,,,,,,,,,,,,,,,,,,,,,,,,,space,8.174326199999996,,,3,001,2022_Aug_05_1856,Version4,2021.2.0,239.68744756545786,
blue_incongruent,0,a,right,blue,0.6,,,,,,,,,,,,,0,0,0,2,,,268.08912809999947,None,,,,,,,,,,,,269.19850359999964,None,a,1,1.292506200000389,269.19850359999964,None,,,,,3,001,2022_Aug_05_1856,Version4,2021.2.0,239.68744756545786,
blue_congruent,1,a,left,blue,-0.6,,,,,,,,,,,,,0,1,1,0,,,270.5040620999998,None,,,,,,,,,,,,271.5927136999999,None,a,1,0.4264562999996997,271.5927136999999,None,,,,,3,001,2022_Aug_05_1856,Version4,2021.2.0,239.68744756545786,
red_neutral,0,k,middle,red,0,,,,,,,,,,,,,0,2,2,4,,,272.0348577999994,None,,,,,,,,,,,,273.2820063999998,None,k,1,0.41744420000031823,273.2820063999998,None,,,,,3,001,2022_Aug_05_1856,Version4,2021.2.0,239.68744756545786,
blue_neutral,0,a,middle,blue,0,,,,,,,,,,,,,0,3,3,5,,,273.7160673999997,None,,,,,,,,,,,,274.8503197,None,a,1,0.6733373000006395,274.8503197,None,,,,,3,001,2022_Aug_05_1856,Version4,2021.2.0,239.68744756545786,
red_incongruent,0,k,left,red,-0.6,,,,,,,,,,,,,0,4,4,3,,,275.53439309999976,None,,,,,,,,,,,,276.6775480999995,None,k,1,0.6223629999994955,276.6775480999995,None,,,,,3,001,2022_Aug_05_1856,Version4,2021.2.0,239.68744756545786,
red_incongruent,0,k,left,red,-0.6,,,,,,,,,,,,,0,5,5,3,,,277.31156309999915,None,,,,,,,,,,,,278.42499809999936,None,k,1,0.595166999999492,278.42499809999936,None,,,,,3,001,2022_Aug_05_1856,Version4,2021.2.0,239.68744756545786,
red_congruent,1,k,right,red,0.6,,,,,,,,,,,,,1,0,6,1,,,279.03398990000005,None,,,,,,,,,,,,280.1393060999999,None,k,1,0.6090390999997908,280.1393060999999,None,,,,,3,001,2022_Aug_05_1856,Version4,2021.2.0,239.68744756545786,
blue_incongruent,0,a,right,blue,0.6,,,,,,,,,,,,,1,1,7,2,,,280.76506419999987,None,,,,,,,,,,,,281.8160431999995,None,a,1,0.5885222999995676,281.8160431999995,None,,,,,3,001,2022_Aug_05_1856,Version4,2021.2.0,239.68744756545786,
red_incongruent,0,k,left,red,-0.6,,,,,,,,,,,,,1,2,8,3,,,282.41667789999974,None,,,,,,,,,,,,283.5929942999992,None,k,1,0.45181830000001355,283.5929942999992,None,,,,,3,001,2022_Aug_05_1856,Version4,2021.2.0,239.68744756545786,
red_incongruent,0,k,left,red,-0.6,,,,,,,,,,,,,1,3,9,3,,,284.0604934999992,None,,,,,,,,,,,,285.1654114999992,None,k,1,0.4396414000002551,285.1654114999992,None,,,,,3,001,2022_Aug_05_1856,Version4,2021.2.0,239.68744756545786,
red_congruent,1,k,right,red,0.6,,,,,,,,,,,,,1,4,10,1,,,285.62006609999935,None,,,,,,,,,,,,286.66712599999937,None,k,1,0.6662380000007033,286.66712599999937,None,,,,,3,001,2022_Aug_05_1856,Version4,2021.2.0,239.68744756545786,
blue_neutral,0,a,middle,blue,0,,,,,,,,,,,,,1,5,11,5,,,287.35121139999956,None,,,,,,,,,,,,288.4815546,None,a,1,0.5879288000005545,288.4815546,None,,,,,3,001,2022_Aug_05_1856,Version4,2021.2.0,239.68744756545786,
red_incongruent,0,k,left,red,-0.6,,,,,,,,,,,,,2,0,12,3,,,289.08217649999915,None,,,,,,,,,,,,290.21257289999994,None,k,1,0.4892457000005379,290.21257289999994,None,,,,,3,001,2022_Aug_05_1856,Version4,2021.2.0,239.68744756545786,
blue_incongruent,0,a,right,blue,0.6,,,,,,,,,,,,,2,1,13,2,,,290.7172621999998,None,,,,,,,,,,,,291.73489509999945,None,a,1,0.575033699999949,291.73489509999945,None,,,,,3,001,2022_Aug_05_1856,Version4,2021.2.0,239.68744756545786,
red_congruent,1,k,right,red,0.6,,,,,,,,,,,,,2,2,14,1,,,292.3231148999994,None,,,,,,,,,,,,293.42435619999924,None,k,1,0.5897828000006484,293.42435619999924,None,,,,,3,001,2022_Aug_05_1856,Version4,2021.2.0,239.68744756545786,
red_congruent,1,k,right,red,0.6,,,,,,,,,,,,,2,3,15,1,,,294.0333490999992,None,,,,,,,,,,,,295.14708679999967,None,k,1,1.6438175000002957,295.14708679999967,None,,,,,3,001,2022_Aug_05_1856,Version4,2021.2.0,239.68744756545786,
blue_congruent,1,a,left,blue,-0.6,,,,,,,,,,,,,2,4,16,0,,,296.80689489999986,None,,,,,,,,,,,,297.9541516999998,None,a,1,0.516711000000214,297.9541516999998,None,,,,,3,001,2022_Aug_05_1856,Version4,2021.2.0,239.68744756545786,
blue_congruent,1,a,left,blue,-0.6,,,,,,,,,,,,,2,5,17,0,,,298.488018,None,,,,,,,,,,,,299.65183849999994,None,a,1,0.3632462999994459,299.65183849999994,None,,,,,3,001,2022_Aug_05_1856,Version4,2021.2.0,239.68744756545786,
blue_incongruent,0,a,right,blue,0.6,,,,,,,,,,,,,3,0,18,2,,,300.0312694999993,None,,,,,,,,,,,,301.0990908999993,None,k,0,0.4921626000004835,301.0990908999993,None,,,,,3,001,2022_Aug_05_1856,Version4,2021.2.0,239.68744756545786,
blue_congruent,1,a,left,blue,-0.6,,,,,,,,,,,,,3,1,19,0,,,301.60808889999953,None,,,,,,,,,,,,302.7342374,None,a,1,0.9536692000001494,302.7342374,None,,,,,3,001,2022_Aug_05_1856,Version4,2021.2.0,239.68744756545786,
blue_neutral,0,a,middle,blue,0,,,,,,,,,,,,,3,2,20,5,,,303.70184339999923,None,,,,,,,,,,,,304.9156030999993,None,a,1,0.6522205999999642,304.9156030999993,None,,,,,3,001,2022_Aug_05_1856,Version4,2021.2.0,239.68744756545786,
blue_neutral,0,a,middle,blue,0,,,,,,,,,,,,,3,3,21,5,,,305.5829877999995,None,,,,,,,,,,,,306.7008262999998,None,a,1,0.44318939999993745,306.7008262999998,None,,,,,3,001,2022_Aug_05_1856,Version4,2021.2.0,239.68744756545786,
red_neutral,0,k,middle,red,0,,,,,,,,,,,,,3,4,22,4,,,307.15978899999936,None,,,,,,,,,,,,308.2190959999998,None,k,1,0.693185000000085,308.2190959999998,None,,,,,3,001,2022_Aug_05_1856,Version4,2021.2.0,239.68744756545786,
blue_neutral,0,a,middle,blue,0,,,,,,,,,,,,,3,5,23,5,,,308.9281988999992,None,,,,,,,,,,,,310.1336257999992,None,a,1,1.946885399999701,310.1336257999992,None,,,,,3,001,2022_Aug_05_1856,Version4,2021.2.0,239.68744756545786,
red_incongruent,0,k,left,red,-0.6,,,,,,,,,,,,,4,0,24,3,,,312.0940252999999,None,,,,,,,,,,,,313.1366715999993,None,k,1,0.9201339000001099,313.1366715999993,None,,,,,3,001,2022_Aug_05_1856,Version4,2021.2.0,239.68744756545786,
red_incongruent,0,k,left,red,-0.6,,,,,,,,,,,,,4,1,25,3,,,314.07516769999984,None,,,,,,,,,,,,315.1014636,None,k,1,0.5876705999999103,315.1014636,None,,,,,3,001,2022_Aug_05_1856,Version4,2021.2.0,239.68744756545786,
red_neutral,0,k,middle,red,0,,,,,,,,,,,,,4,2,26,4,,,315.70200269999987,None,,,,,,,,,,,,316.8406292999998,None,k,1,0.43260929999996733,316.8406292999998,None,,,,,3,001,2022_Aug_05_1856,Version4,2021.2.0,239.68744756545786,
red_neutral,0,k,middle,red,0,,,,,,,,,,,,,4,3,27,4,,,317.2870076999998,None,,,,,,,,,,,,318.38826809999955,None,k,1,0.34932060000028287,318.38826809999955,None,,,,,3,001,2022_Aug_05_1856,Version4,2021.2.0,239.68744756545786,
blue_incongruent,0,a,right,blue,0.6,,,,,,,,,,,,,4,4,28,2,,,318.74686349999956,None,,,,,,,,,,,,319.94824419999986,None,a,1,0.6374507999998968,319.94824419999986,None,,,,,3,001,2022_Aug_05_1856,Version4,2021.2.0,239.68744756545786,
blue_incongruent,0,a,right,blue,0.6,,,,,,,,,,,,,4,5,29,2,,,320.5987994999996,None,,,,,,,,,,,,321.70836449999933,None,a,1,1.4536565999997038,321.70836449999933,None,,,,,3,001,2022_Aug_05_1856,Version4,2021.2.0,239.68744756545786,
red_congruent,1,k,right,red,0.6,,,,,,,,,,,,,5,0,30,1,,,323.17675359999976,None,,,,,,,,,,,,324.2903534999996,None,k,1,0.47187990000020363,324.2903534999996,None,,,,,3,001,2022_Aug_05_1856,Version4,2021.2.0,239.68744756545786,
blue_neutral,0,a,middle,blue,0,,,,,,,,,,,,,5,1,31,5,,,324.7741167999993,None,,,,,,,,,,,,325.96293819999937,None,a,1,0.8957159999999931,325.96293819999937,None,,,,,3,001,2022_Aug_05_1856,Version4,2021.2.0,239.68744756545786,
red_congruent,1,k,right,red,0.6,,,,,,,,,,,,,5,2,32,1,,,326.87216459999945,None,,,,,,,,,,,,327.9232899999997,None,k,1,0.5514428999995289,327.9232899999997,None,,,,,3,001,2022_Aug_05_1856,Version4,2021.2.0,239.68744756545786,
blue_neutral,0,a,middle,blue,0,,,,,,,,,,,,,5,3,33,5,,,328.4863759,None,,,,,,,,,,,,329.6752256999998,None,a,1,0.6717540999998164,329.6752256999998,None,,,,,3,001,2022_Aug_05_1856,Version4,2021.2.0,239.68744756545786,
blue_congruent,1,a,left,blue,-0.6,,,,,,,,,,,,,5,4,34,0,,,330.3592224999993,None,,,,,,,,,,,,331.38944229999925,None,a,1,0.4458297000001039,331.38944229999925,None,,,,,3,001,2022_Aug_05_1856,Version4,2021.2.0,239.68744756545786,
red_neutral,0,k,middle,red,0,,,,,,,,,,,,,5,5,35,4,,,331.8481843999998,None,,,,,,,,,,,,333.04139979999945,None,k,1,0.5060139999995954,333.04139979999945,None,,,,,3,001,2022_Aug_05_1856,Version4,2021.2.0,239.68744756545786,
blue_incongruent,0,a,right,blue,0.6,,,,,,,,,,,,,6,0,36,2,,,333.55845189999945,None,,,,,,,,,,,,334.68060979999973,None,a,1,0.5150348999995913,334.68060979999973,None,,,,,3,001,2022_Aug_05_1856,Version4,2021.2.0,239.68744756545786,
red_neutral,0,k,middle,red,0,,,,,,,,,,,,,6,1,37,4,,,335.2143763999993,None,,,,,,,,,,,,336.31143039999915,None,k,1,0.7247409000001426,336.31143039999915,None,,,,,3,001,2022_Aug_05_1856,Version4,2021.2.0,239.68744756545786,
red_congruent,1,k,right,red,0.6,,,,,,,,,,,,,6,2,38,1,,,337.0496285999998,None,,,,,,,,,,,,338.15077569999994,None,k,1,0.5173565999994025,338.15077569999994,None,,,,,3,001,2022_Aug_05_1856,Version4,2021.2.0,239.68744756545786,
red_congruent,1,k,right,red,0.6,,,,,,,,,,,,,6,3,39,1,,,338.6805201999996,None,,,,,,,,,,,,339.7815350999999,None,k,1,0.39875819999997475,339.7815350999999,None,,,,,3,001,2022_Aug_05_1856,Version4,2021.2.0,239.68744756545786,
blue_congruent,1,a,left,blue,-0.6,,,,,,,,,,,,,6,4,40,0,,,340.19463729999916,None,,,,,,,,,,,,341.40005699999983,None,a,1,0.40445739999995567,341.40005699999983,None,,,,,3,001,2022_Aug_05_1856,Version4,2021.2.0,239.68744756545786,
blue_incongruent,0,a,right,blue,0.6,,,,,,,,,,,,,6,5,41,2,,,341.8131078999995,None,,,,,,,,,,,,342.94334509999953,None,a,1,0.7093816999995397,342.94334509999953,None,,,,,3,001,2022_Aug_05_1856,Version4,2021.2.0,239.68744756545786,
blue_congruent,1,a,left,blue,-0.6,,,,,,,,,,,,,7,0,42,0,,,343.66913359999944,None,,,,,,,,,,,,344.78279609999936,None,a,1,0.49446569999963685,344.78279609999936,None,,,,,3,001,2022_Aug_05_1856,Version4,2021.2.0,239.68744756545786,
red_neutral,0,k,middle,red,0,,,,,,,,,,,,,7,1,43,4,,,345.29166599999917,None,,,,,,,,,,,,346.3511318999999,None,k,1,0.3743327000001955,346.3511318999999,None,,,,,3,001,2022_Aug_05_1856,Version4,2021.2.0,239.68744756545786,
blue_neutral,0,a,middle,blue,0,,,,,,,,,,,,,7,2,44,5,,,346.7390185999993,None,,,,,,,,,,,,347.7652743999997,None,k,0,0.4162357000004704,347.7652743999997,None,,,,,3,001,2022_Aug_05_1856,Version4,2021.2.0,239.68744756545786,
blue_congruent,1,a,left,blue,-0.6,,,,,,,,,,,,,7,3,45,0,,,348.19897069999934,None,,,,,,,,,,,,349.3124672999993,None,a,1,0.6454647999998997,349.3124672999993,None,,,,,3,001,2022_Aug_05_1856,Version4,2021.2.0,239.68744756545786,
red_neutral,0,k,middle,red,0,,,,,,,,,,,,,7,4,46,4,,,349.97151099999974,None,,,,,,,,,,,,351.0186606999996,None,k,1,0.45112799999969866,351.0186606999996,None,,,,,3,001,2022_Aug_05_1856,Version4,2021.2.0,239.68744756545786,
red_incongruent,0,k,left,red,-0.6,,,,,,,,,,,,,7,5,47,3,,,351.4815626999998,None,,,,,,,,,,,,352.6412189999992,None,k,1,0.8608224999998129,352.6412189999992,None,,,,,3,001,2022_Aug_05_1856,Version4,2021.2.0,239.68744756545786,
,,,,,,,,,,,,,,,,,,,,,,,,,,,,,,,,,,,,,,,,,,,,space,8.481744200000321,,,3,001,2022_Aug_05_1856,Version4,2021.2.0,239.68744756545786,
,,,,,,,,,,,,,,,,,,,,,,,,,,,,,,,,,,,,,,,,,,,,,,space,6.41387289999966,3,001,2022_Aug_05_1856,Version4,2021.2.0,239.68744756545786,
