images,congruentcy,corrAns,box_pos,box_color,box_x,pract.thisRepN,pract.thisTrialN,pract.thisN,pract.thisIndex,trials.thisRepN,trials.thisTrialN,trials.thisN,trials.thisIndex,trials_2.thisRepN,trials_2.thisTrialN,trials_2.thisN,trials_2.thisIndex,trials_3.thisRepN,trials_3.thisTrialN,trials_3.thisN,trials_3.thisIndex,key_resp_instr.keys,key_resp_instr.rt,FixCross.started,FixCross.stopped,Box_p.started,Box_p.stopped,key_resp_P.keys,key_resp_P.corr,key_resp_P.rt,key_resp_P.started,key_resp_P.stopped,text_3.started,text_3.stopped,key_resp_2.keys,key_resp_2.rt,Box.started,Box.stopped,key_resp.keys,key_resp.corr,key_resp.rt,key_resp.started,key_resp.stopped,key_resp_3.keys,key_resp_3.rt,key_resp_4.keys,key_resp_4.rt,participant,session,date,expName,psychopyVersion,frameRate,
,,,,,,,,,,,,,,,,,,,,,,space,5.930225199999995,,,,,,,,,,,,,,,,,,,,,,,,,4,001,2022_Aug_07_1553,Version4,2021.2.0,239.64723926376806,
red_neutral,0,k,middle,red,0,0,0,0,4,,,,,,,,,,,,,,,34.852547199999975,None,35.88652829999998,None,k,1,1.7496910000000128,35.88652829999998,None,,,,,,,,,,,,,,,,4,001,2022_Aug_07_1553,Version4,2021.2.0,239.64723926376806,
blue_incongruent,0,a,right,blue,0.6,0,1,1,2,,,,,,,,,,,,,,,38.660297799999995,None,39.728384799999986,None,a,1,0.492369999999994,39.728384799999986,None,,,,,,,,,,,,,,,,4,001,2022_Aug_07_1553,Version4,2021.2.0,239.64723926376806,
red_incongruent,0,k,left,red,-0.6,0,2,2,3,,,,,,,,,,,,,,,41.2423498,None,42.28924459999999,None,k,1,1.5798393000000033,42.28924459999999,None,,,,,,,,,,,,,,,,4,001,2022_Aug_07_1553,Version4,2021.2.0,239.64723926376806,
blue_neutral,0,a,middle,blue,0,0,3,3,5,,,,,,,,,,,,,,,44.887740199999996,None,45.951380899999975,None,a,1,0.6060438999999747,45.951380899999975,None,,,,,,,,,,,,,,,,4,001,2022_Aug_07_1553,Version4,2021.2.0,239.64723926376806,
blue_neutral,0,a,middle,blue,0,0,4,4,5,,,,,,,,,,,,,,,47.57399829999997,None,48.60843209999996,None,a,1,0.5415316000000416,48.60843209999996,None,,,,,,,,,,,,,,,,4,001,2022_Aug_07_1553,Version4,2021.2.0,239.64723926376806,
red_neutral,0,k,middle,red,0,0,5,5,4,,,,,,,,,,,,,,,50.16846570000001,None,51.261167,None,k,1,0.4889468000000079,51.261167,None,,,,,,,,,,,,,,,,4,001,2022_Aug_07_1553,Version4,2021.2.0,239.64723926376806,
blue_incongruent,0,a,right,blue,0.6,1,0,6,2,,,,,,,,,,,,,,,52.762995399999966,None,53.84722369999997,None,a,1,0.6312644999999861,53.84722369999997,None,,,,,,,,,,,,,,,,4,001,2022_Aug_07_1553,Version4,2021.2.0,239.64723926376806,
red_congruent,1,k,right,red,0.6,1,1,7,1,,,,,,,,,,,,,,,55.494825100000014,None,56.57546639999998,None,k,1,0.4313594000000194,56.57546639999998,None,,,,,,,,,,,,,,,,4,001,2022_Aug_07_1553,Version4,2021.2.0,239.64723926376806,
blue_incongruent,0,a,right,blue,0.6,1,2,8,2,,,,,,,,,,,,,,,58.02662839999999,None,59.05304380000001,None,a,1,0.4981363999999644,59.05304380000001,None,,,,,,,,,,,,,,,,4,001,2022_Aug_07_1553,Version4,2021.2.0,239.64723926376806,
red_congruent,1,k,right,red,0.6,1,3,9,1,,,,,,,,,,,,,,,60.57545649999997,None,61.71821890000001,None,k,1,0.6738037999999733,61.71821890000001,None,,,,,,,,,,,,,,,,4,001,2022_Aug_07_1553,Version4,2021.2.0,239.64723926376806,
red_congruent,1,k,right,red,0.6,1,4,10,1,,,,,,,,,,,,,,,63.40749499999998,None,64.81327099999999,None,k,1,0.4510379000000171,64.81327099999999,None,,,,,,,,,,,,,,,,4,001,2022_Aug_07_1553,Version4,2021.2.0,239.64723926376806,
blue_congruent,1,a,left,blue,-0.6,1,5,11,0,,,,,,,,,,,,,,,66.28147910000001,None,67.47834539999997,None,a,1,0.38594440000002805,67.47834539999997,None,,,,,,,,,,,,,,,,4,001,2022_Aug_07_1553,Version4,2021.2.0,239.64723926376806,
blue_congruent,1,a,left,blue,-0.6,2,0,12,0,,,,,,,,,,,,,,,68.88428060000001,None,70.06052419999997,None,a,1,0.44430730000004814,70.06052419999997,None,,,,,,,,,,,,,,,,4,001,2022_Aug_07_1553,Version4,2021.2.0,239.64723926376806,
red_incongruent,0,k,left,red,-0.6,2,1,13,3,,,,,,,,,,,,,,,71.52447009999997,None,72.72999269999997,None,a,0,0.36710649999997713,72.72999269999997,None,,,,,,,,,,,,,,,,4,001,2022_Aug_07_1553,Version4,2021.2.0,239.64723926376806,
blue_neutral,0,a,middle,blue,0,2,2,14,5,,,,,,,,,,,,,,,74.11466949999999,None,75.25348709999997,None,a,1,0.5558783000000176,75.25348709999997,None,,,,,,,,,,,,,,,,4,001,2022_Aug_07_1553,Version4,2021.2.0,239.64723926376806,
blue_neutral,0,a,middle,blue,0,2,3,15,5,,,,,,,,,,,,,,,76.82156019999996,None,77.914649,None,a,1,0.44703279999998813,77.914649,None,,,,,,,,,,,,,,,,4,001,2022_Aug_07_1553,Version4,2021.2.0,239.64723926376806,
red_neutral,0,k,middle,red,0,2,4,16,4,,,,,,,,,,,,,,,79.37450619999998,None,80.47981970000001,None,k,1,0.40220900000002757,80.47981970000001,None,,,,,,,,,,,,,,,,4,001,2022_Aug_07_1553,Version4,2021.2.0,239.64723926376806,
red_incongruent,0,k,left,red,-0.6,2,5,17,3,,,,,,,,,,,,,,,81.90644929999996,None,83.1244797,None,a,0,0.4139197000000081,83.1244797,None,,,,,,,,,,,,,,,,4,001,2022_Aug_07_1553,Version4,2021.2.0,239.64723926376806,
blue_incongruent,0,a,right,blue,0.6,3,0,18,2,,,,,,,,,,,,,,,84.55469690000001,None,85.56412849999998,None,a,1,0.7426535999999828,85.56412849999998,None,,,,,,,,,,,,,,,,4,001,2022_Aug_07_1553,Version4,2021.2.0,239.64723926376806,
blue_congruent,1,a,left,blue,-0.6,3,1,19,0,,,,,,,,,,,,,,,87.32016229999999,None,88.41297529999997,None,a,1,0.5261677999999961,88.41297529999997,None,,,,,,,,,,,,,,,,4,001,2022_Aug_07_1553,Version4,2021.2.0,239.64723926376806,
red_neutral,0,k,middle,red,0,3,2,20,4,,,,,,,,,,,,,,,89.9565988,None,91.13252639999996,None,k,1,0.42300080000001117,91.13252639999996,None,,,,,,,,,,,,,,,,4,001,2022_Aug_07_1553,Version4,2021.2.0,239.64723926376806,
red_congruent,1,k,right,red,0.6,3,3,21,1,,,,,,,,,,,,,,,92.57571759999996,None,93.5892945,None,k,1,0.662542099999996,93.5892945,None,,,,,,,,,,,,,,,,4,001,2022_Aug_07_1553,Version4,2021.2.0,239.64723926376806,
blue_congruent,1,a,left,blue,-0.6,3,4,22,0,,,,,,,,,,,,,,,95.26635119999997,None,96.4132209,None,a,1,0.43894789999995965,96.4132209,None,,,,,,,,,,,,,,,,4,001,2022_Aug_07_1553,Version4,2021.2.0,239.64723926376806,
red_incongruent,0,k,left,red,-0.6,3,5,23,3,,,,,,,,,,,,,,,97.8646501,None,98.9824992,None,k,1,0.622045700000001,98.9824992,None,,,,,,,,,,,,,,,,4,001,2022_Aug_07_1553,Version4,2021.2.0,239.64723926376806,
,,,,,,,,,,,,,,,,,,,,,,,,,,,,,,,,,100.6426217,None,space,4.025769500000024,,,,,,,,,,,,4,001,2022_Aug_07_1553,Version4,2021.2.0,239.64723926376806,
red_incongruent,0,k,left,red,-0.6,,,,,0,0,0,3,,,,,,,,,,,106.66175820000001,None,,,,,,,,,,,,107.79211119999997,None,k,1,0.7816507999999658,107.79211119999997,None,,,,,4,001,2022_Aug_07_1553,Version4,2021.2.0,239.64723926376806,
blue_neutral,0,a,middle,blue,0,,,,,0,1,1,5,,,,,,,,,,,108.5843314,None,,,,,,,,,,,,109.61488489999999,None,a,1,0.7031290000000467,109.61488489999999,None,,,,,4,001,2022_Aug_07_1553,Version4,2021.2.0,239.64723926376806,
blue_incongruent,0,a,right,blue,0.6,,,,,0,2,2,2,,,,,,,,,,,110.33218979999998,None,,,,,,,,,,,,111.45440689999998,None,a,1,0.7678466000000412,111.45440689999998,None,,,,,4,001,2022_Aug_07_1553,Version4,2021.2.0,239.64723926376806,
blue_incongruent,0,a,right,blue,0.6,,,,,0,3,3,2,,,,,,,,,,,112.2383673,None,,,,,,,,,,,,113.42723419999999,None,a,1,0.5552406000000474,113.42723419999999,None,,,,,4,001,2022_Aug_07_1553,Version4,2021.2.0,239.64723926376806,
blue_neutral,0,a,middle,blue,0,,,,,0,4,4,5,,,,,,,,,,,113.9944931,None,,,,,,,,,,,,115.05821909999997,None,a,1,0.7005217000000243,115.05821909999997,None,,,,,4,001,2022_Aug_07_1553,Version4,2021.2.0,239.64723926376806,
red_neutral,0,k,middle,red,0,,,,,0,5,5,4,,,,,,,,,,,115.77546489999997,None,,,,,,,,,,,,116.96820279999997,None,k,1,0.2627106000000481,116.96820279999997,None,,,,,4,001,2022_Aug_07_1553,Version4,2021.2.0,239.64723926376806,
red_incongruent,0,k,left,red,-0.6,,,,,1,0,6,3,,,,,,,,,,,117.24368199999998,None,,,,,,,,,,,,118.31575699999996,None,k,1,0.4596437000000151,118.31575699999996,None,,,,,4,001,2022_Aug_07_1553,Version4,2021.2.0,239.64723926376806,
blue_incongruent,0,a,right,blue,0.6,,,,,1,1,7,2,,,,,,,,,,,118.79129789999996,None,,,,,,,,,,,,119.89243829999998,None,a,1,0.4910845999999651,119.89243829999998,None,,,,,4,001,2022_Aug_07_1553,Version4,2021.2.0,239.64723926376806,
red_incongruent,0,k,left,red,-0.6,,,,,1,2,8,3,,,,,,,,,,,120.40131259999998,None,,,,,,,,,,,,121.6110167,None,k,1,0.5008194999999773,121.6110167,None,,,,,4,001,2022_Aug_07_1553,Version4,2021.2.0,239.64723926376806,
blue_neutral,0,a,middle,blue,0,,,,,1,3,9,5,,,,,,,,,,,122.12799960000001,None,,,,,,,,,,,,123.14598899999999,None,a,1,0.6780016999999816,123.14598899999999,None,,,,,4,001,2022_Aug_07_1553,Version4,2021.2.0,239.64723926376806,
red_neutral,0,k,middle,red,0,,,,,1,4,10,4,,,,,,,,,,,123.83822479999998,None,,,,,,,,,,,,125.0101057,None,k,1,0.5259538999999904,125.0101057,None,,,,,4,001,2022_Aug_07_1553,Version4,2021.2.0,239.64723926376806,
blue_congruent,1,a,left,blue,-0.6,,,,,1,5,11,0,,,,,,,,,,,125.55257469999998,None,,,,,,,,,,,,126.71204719999997,None,a,1,0.44021530000003395,126.71204719999997,None,,,,,4,001,2022_Aug_07_1553,Version4,2021.2.0,239.64723926376806,
blue_neutral,0,a,middle,blue,0,,,,,2,0,12,5,,,,,,,,,,,127.1708362,None,,,,,,,,,,,,128.301375,None,a,1,0.6673673999999892,128.301375,None,,,,,4,001,2022_Aug_07_1553,Version4,2021.2.0,239.64723926376806,
red_neutral,0,k,middle,red,0,,,,,2,1,13,4,,,,,,,,,,,128.9851034,None,,,,,,,,,,,,130.07415729999997,None,k,1,0.4705576999999721,130.07415729999997,None,,,,,4,001,2022_Aug_07_1553,Version4,2021.2.0,239.64723926376806,
blue_congruent,1,a,left,blue,-0.6,,,,,2,2,14,0,,,,,,,,,,,130.55352799999997,None,,,,,,,,,,,,131.74246619999997,None,a,1,0.5224428000000216,131.74246619999997,None,,,,,4,001,2022_Aug_07_1553,Version4,2021.2.0,239.64723926376806,
blue_congruent,1,a,left,blue,-0.6,,,,,2,3,15,0,,,,,,,,,,,132.2763711,None,,,,,,,,,,,,133.3647307,None,a,1,0.5084717999999953,133.3647307,None,,,,,4,001,2022_Aug_07_1553,Version4,2021.2.0,239.64723926376806,
red_congruent,1,k,right,red,0.6,,,,,2,4,16,1,,,,,,,,,,,133.88643589999998,None,,,,,,,,,,,,135.12114759999997,None,k,1,0.42426079999995636,135.12114759999997,None,,,,,4,001,2022_Aug_07_1553,Version4,2021.2.0,239.64723926376806,
blue_incongruent,0,a,right,blue,0.6,,,,,2,5,17,2,,,,,,,,,,,135.55904529999998,None,,,,,,,,,,,,136.7182904,None,a,1,0.5152923999999643,136.7182904,None,,,,,4,001,2022_Aug_07_1553,Version4,2021.2.0,239.64723926376806,
red_congruent,1,k,right,red,0.6,,,,,3,0,18,1,,,,,,,,,,,137.24755679999998,None,,,,,,,,,,,,138.37420029999998,None,k,1,0.5556427999999869,138.37420029999998,None,,,,,4,001,2022_Aug_07_1553,Version4,2021.2.0,239.64723926376806,
red_congruent,1,k,right,red,0.6,,,,,3,1,19,1,,,,,,,,,,,138.9414723,None,,,,,,,,,,,,140.1427403,None,k,1,0.4035711999999876,140.1427403,None,,,,,4,001,2022_Aug_07_1553,Version4,2021.2.0,239.64723926376806,
red_neutral,0,k,middle,red,0,,,,,3,2,20,4,,,,,,,,,,,140.56403669999997,None,,,,,,,,,,,,141.6447028,None,k,1,0.31779019999999036,141.6447028,None,,,,,4,001,2022_Aug_07_1553,Version4,2021.2.0,239.64723926376806,
red_neutral,0,k,middle,red,0,,,,,3,3,21,4,,,,,,,,,,,141.978298,None,,,,,,,,,,,,143.0963086,None,k,1,0.3461288999999965,143.0963086,None,,,,,4,001,2022_Aug_07_1553,Version4,2021.2.0,239.64723926376806,
blue_incongruent,0,a,right,blue,0.6,,,,,3,4,22,2,,,,,,,,,,,143.4548158,None,,,,,,,,,,,,144.5854023,None,a,1,0.48927200000002813,144.5854023,None,,,,,4,001,2022_Aug_07_1553,Version4,2021.2.0,239.64723926376806,
red_neutral,0,k,middle,red,0,,,,,3,5,23,4,,,,,,,,,,,145.0857878,None,,,,,,,,,,,,146.2536559,None,k,1,0.9972777000000406,146.2536559,None,,,,,4,001,2022_Aug_07_1553,Version4,2021.2.0,239.64723926376806,
blue_incongruent,0,a,right,blue,0.6,,,,,4,0,24,2,,,,,,,,,,,147.26277119999997,None,,,,,,,,,,,,148.30137589999998,None,a,1,0.5258003000000144,148.30137589999998,None,,,,,4,001,2022_Aug_07_1553,Version4,2021.2.0,239.64723926376806,
red_incongruent,0,k,left,red,-0.6,,,,,4,1,25,3,,,,,,,,,,,148.8395527,None,,,,,,,,,,,,149.8947366,None,k,1,0.6286670000000072,149.8947366,None,,,,,4,001,2022_Aug_07_1553,Version4,2021.2.0,239.64723926376806,
blue_neutral,0,a,middle,blue,0,,,,,4,2,26,5,,,,,,,,,,,150.5324599,None,,,,,,,,,,,,151.60489439999998,None,a,1,0.5907130000000507,151.60489439999998,None,,,,,4,001,2022_Aug_07_1553,Version4,2021.2.0,239.64723926376806,
blue_congruent,1,a,left,blue,-0.6,,,,,4,3,27,0,,,,,,,,,,,152.21385629999997,None,,,,,,,,,,,,153.26917979999996,None,a,1,0.5191561999999976,153.26917979999996,None,,,,,4,001,2022_Aug_07_1553,Version4,2021.2.0,239.64723926376806,
blue_incongruent,0,a,right,blue,0.6,,,,,4,4,28,2,,,,,,,,,,,153.80316039999997,None,,,,,,,,,,,,154.99607119999996,None,a,1,0.4559868999999708,154.99607119999996,None,,,,,4,001,2022_Aug_07_1553,Version4,2021.2.0,239.64723926376806,
red_congruent,1,k,right,red,0.6,,,,,4,5,29,1,,,,,,,,,,,155.46330669999998,None,,,,,,,,,,,,156.5517976,None,k,1,0.5164667999999892,156.5517976,None,,,,,4,001,2022_Aug_07_1553,Version4,2021.2.0,239.64723926376806,
blue_incongruent,0,a,right,blue,0.6,,,,,5,0,30,2,,,,,,,,,,,157.0818933,None,,,,,,,,,,,,158.1287411,None,a,1,0.46776520000003075,158.1287411,None,,,,,4,001,2022_Aug_07_1553,Version4,2021.2.0,239.64723926376806,
blue_neutral,0,a,middle,blue,0,,,,,5,1,31,5,,,,,,,,,,,158.6125179,None,,,,,,,,,,,,159.8472074,None,a,1,0.6775385000000256,159.8472074,None,,,,,4,001,2022_Aug_07_1553,Version4,2021.2.0,239.64723926376806,
blue_congruent,1,a,left,blue,-0.6,,,,,5,2,32,0,,,,,,,,,,,160.54379039999998,None,,,,,,,,,,,,161.6786004,None,a,1,0.34234950000001163,161.6786004,None,,,,,4,001,2022_Aug_07_1553,Version4,2021.2.0,239.64723926376806,
red_incongruent,0,k,left,red,-0.6,,,,,5,3,33,3,,,,,,,,,,,162.03702089999996,None,,,,,,,,,,,,163.0753727,None,k,1,0.4257810999999947,163.0753727,None,,,,,4,001,2022_Aug_07_1553,Version4,2021.2.0,239.64723926376806,
red_congruent,1,k,right,red,0.6,,,,,5,4,34,1,,,,,,,,,,,163.5178446,None,,,,,,,,,,,,164.65205049999997,None,k,1,0.4813442999999893,164.65205049999997,None,,,,,4,001,2022_Aug_07_1553,Version4,2021.2.0,239.64723926376806,
red_congruent,1,k,right,red,0.6,,,,,5,5,35,1,,,,,,,,,,,165.14841029999997,None,,,,,,,,,,,,166.3038047,None,k,1,0.3578984000000105,166.3038047,None,,,,,4,001,2022_Aug_07_1553,Version4,2021.2.0,239.64723926376806,
red_neutral,0,k,middle,red,0,,,,,6,0,36,4,,,,,,,,,,,166.6750215,None,,,,,,,,,,,,167.78044639999996,None,k,1,0.35333030000003873,167.78044639999996,None,,,,,4,001,2022_Aug_07_1553,Version4,2021.2.0,239.64723926376806,
blue_congruent,1,a,left,blue,-0.6,,,,,6,1,37,0,,,,,,,,,,,168.1474472,None,,,,,,,,,,,,169.32399549999997,None,a,1,0.4581554999999753,169.32399549999997,None,,,,,4,001,2022_Aug_07_1553,Version4,2021.2.0,239.64723926376806,
red_neutral,0,k,middle,red,0,,,,,6,2,38,4,,,,,,,,,,,169.7992051,None,,,,,,,,,,,,170.92576249999996,None,k,1,0.3926670000000172,170.92576249999996,None,,,,,4,001,2022_Aug_07_1553,Version4,2021.2.0,239.64723926376806,
blue_neutral,0,a,middle,blue,0,,,,,6,3,39,5,,,,,,,,,,,171.3344912,None,,,,,,,,,,,,172.35604439999997,None,a,1,0.41831070000000636,172.35604439999997,None,,,,,4,001,2022_Aug_07_1553,Version4,2021.2.0,239.64723926376806,
red_incongruent,0,k,left,red,-0.6,,,,,6,4,40,3,,,,,,,,,,,172.7856537,None,,,,,,,,,,,,173.98281549999996,None,k,1,0.384030800000005,173.98281549999996,None,,,,,4,001,2022_Aug_07_1553,Version4,2021.2.0,239.64723926376806,
blue_neutral,0,a,middle,blue,0,,,,,6,5,41,5,,,,,,,,,,,174.3834458,None,,,,,,,,,,,,175.5221474,None,a,1,0.48468160000004445,175.5221474,None,,,,,4,001,2022_Aug_07_1553,Version4,2021.2.0,239.64723926376806,
blue_congruent,1,a,left,blue,-0.6,,,,,7,0,42,0,,,,,,,,,,,176.02262609999997,None,,,,,,,,,,,,177.26119539999996,None,a,1,0.49786779999999453,177.26119539999996,None,,,,,4,001,2022_Aug_07_1553,Version4,2021.2.0,239.64723926376806,
red_congruent,1,k,right,red,0.6,,,,,7,1,43,1,,,,,,,,,,,177.77432929999998,None,,,,,,,,,,,,178.98385989999997,None,k,1,0.34339710000000423,178.98385989999997,None,,,,,4,001,2022_Aug_07_1553,Version4,2021.2.0,239.64723926376806,
blue_congruent,1,a,left,blue,-0.6,,,,,7,2,44,0,,,,,,,,,,,179.34261369999996,None,,,,,,,,,,,,180.4687998,None,a,1,0.602713499999993,180.4687998,None,,,,,4,001,2022_Aug_07_1553,Version4,2021.2.0,239.64723926376806,
red_congruent,1,k,right,red,0.6,,,,,7,3,45,1,,,,,,,,,,,181.0861026,None,,,,,,,,,,,,182.2123476,None,k,1,0.4113382999999544,182.2123476,None,,,,,4,001,2022_Aug_07_1553,Version4,2021.2.0,239.64723926376806,
red_incongruent,0,k,left,red,-0.6,,,,,7,4,46,3,,,,,,,,,,,182.63729159999997,None,,,,,,,,,,,,183.73887229999997,None,k,1,0.4050158999999667,183.73887229999997,None,,,,,4,001,2022_Aug_07_1553,Version4,2021.2.0,239.64723926376806,
red_incongruent,0,k,left,red,-0.6,,,,,7,5,47,3,,,,,,,,,,,184.16019969999996,None,,,,,,,,,,,,185.3322576,None,k,1,0.3558495999999991,185.3322576,None,,,,,4,001,2022_Aug_07_1553,Version4,2021.2.0,239.64723926376806,
,,,,,,,,,,,,,,,,,,,,,,,,,,,,,,,,,,,,,,,,,,,,space,7.6852162000000135,,,4,001,2022_Aug_07_1553,Version4,2021.2.0,239.64723926376806,
red_neutral,0,k,middle,red,0,,,,,,,,,0,0,0,4,,,,,,,193.42442619999997,None,,,,,,,,,,,,194.6004016,None,k,1,0.8570376000000124,194.6004016,None,,,,,4,001,2022_Aug_07_1553,Version4,2021.2.0,239.64723926376806,
red_incongruent,0,k,left,red,-0.6,,,,,,,,,0,1,1,3,,,,,,,195.4721419,None,,,,,,,,,,,,196.6275448,None,k,1,0.4460781999999881,196.6275448,None,,,,,4,001,2022_Aug_07_1553,Version4,2021.2.0,239.64723926376806,
red_incongruent,0,k,left,red,-0.6,,,,,,,,,0,2,2,3,,,,,,,197.0863647,None,,,,,,,,,,,,198.25038339999998,None,k,1,0.29544559999999365,198.25038339999998,None,,,,,4,001,2022_Aug_07_1553,Version4,2021.2.0,239.64723926376806,
blue_neutral,0,a,middle,blue,0,,,,,,,,,0,3,3,5,,,,,,,198.55876459999996,None,,,,,,,,,,,,199.65199819999998,None,a,1,0.44604279999998653,199.65199819999998,None,,,,,4,001,2022_Aug_07_1553,Version4,2021.2.0,239.64723926376806,
blue_incongruent,0,a,right,blue,0.6,,,,,,,,,0,4,4,2,,,,,,,200.10642919999998,None,,,,,,,,,,,,201.20322290000001,None,a,1,0.49504990000002635,201.20322290000001,None,,,,,4,001,2022_Aug_07_1553,Version4,2021.2.0,239.64723926376806,
red_neutral,0,k,middle,red,0,,,,,,,,,0,5,5,4,,,,,,,201.7121173,None,,,,,,,,,,,,202.83413759999996,None,k,1,0.44834930000001805,202.83413759999996,None,,,,,4,001,2022_Aug_07_1553,Version4,2021.2.0,239.64723926376806,
red_congruent,1,k,right,red,0.6,,,,,,,,,1,0,6,1,,,,,,,203.2971051,None,,,,,,,,,,,,204.42336739999996,None,k,1,0.6993329000000017,204.42336739999996,None,,,,,4,001,2022_Aug_07_1553,Version4,2021.2.0,239.64723926376806,
blue_congruent,1,a,left,blue,-0.6,,,,,,,,,1,1,7,0,,,,,,,205.13609859999997,None,,,,,,,,,,,,206.23771619999997,None,a,1,0.4851818999999864,206.23771619999997,None,,,,,4,001,2022_Aug_07_1553,Version4,2021.2.0,239.64723926376806,
red_neutral,0,k,middle,red,0,,,,,,,,,1,2,8,4,,,,,,,206.73416349999997,None,,,,,,,,,,,,207.8393997,None,k,1,0.3477578000000108,207.8393997,None,,,,,4,001,2022_Aug_07_1553,Version4,2021.2.0,239.64723926376806,
red_incongruent,0,k,left,red,-0.6,,,,,,,,,1,3,9,3,,,,,,,208.2064881,None,,,,,,,,,,,,209.3160482,None,k,1,0.7913393999999698,209.3160482,None,,,,,4,001,2022_Aug_07_1553,Version4,2021.2.0,239.64723926376806,
blue_congruent,1,a,left,blue,-0.6,,,,,,,,,1,4,10,0,,,,,,,210.1251545,None,,,,,,,,,,,,211.1721169,None,a,1,0.4394470999999953,211.1721169,None,,,,,4,001,2022_Aug_07_1553,Version4,2021.2.0,239.64723926376806,
blue_neutral,0,a,middle,blue,0,,,,,,,,,1,5,11,5,,,,,,,211.6225827,None,,,,,,,,,,,,212.702966,None,a,1,0.33280450000000883,212.702966,None,,,,,4,001,2022_Aug_07_1553,Version4,2021.2.0,239.64723926376806,
blue_incongruent,0,a,right,blue,0.6,,,,,,,,,2,0,12,2,,,,,,,213.0491574,None,,,,,,,,,,,,214.11739749999998,None,a,1,0.42262360000000854,214.11739749999998,None,,,,,4,001,2022_Aug_07_1553,Version4,2021.2.0,239.64723926376806,
blue_neutral,0,a,middle,blue,0,,,,,,,,,2,1,13,5,,,,,,,214.55492429999998,None,,,,,,,,,,,,215.70607739999997,None,a,1,0.4421354000000406,215.70607739999997,None,,,,,4,001,2022_Aug_07_1553,Version4,2021.2.0,239.64723926376806,
red_congruent,1,k,right,red,0.6,,,,,,,,,2,2,14,1,,,,,,,216.1651961,None,,,,,,,,,,,,217.38285229999997,None,k,1,0.5095538999999576,217.38285229999997,None,,,,,4,001,2022_Aug_07_1553,Version4,2021.2.0,239.64723926376806,
blue_incongruent,0,a,right,blue,0.6,,,,,,,,,2,3,15,2,,,,,,,217.9045001,None,,,,,,,,,,,,218.95117569999996,None,a,1,0.5814465000000268,218.95117569999996,None,,,,,4,001,2022_Aug_07_1553,Version4,2021.2.0,239.64723926376806,
blue_incongruent,0,a,right,blue,0.6,,,,,,,,,2,4,16,2,,,,,,,219.54345259999997,None,,,,,,,,,,,,220.7155494,None,a,1,0.545700399999987,220.7155494,None,,,,,4,001,2022_Aug_07_1553,Version4,2021.2.0,239.64723926376806,
red_congruent,1,k,right,red,0.6,,,,,,,,,2,5,17,1,,,,,,,221.2789386,None,,,,,,,,,,,,222.35066239999998,None,k,1,0.5023967999999854,222.35066239999998,None,,,,,4,001,2022_Aug_07_1553,Version4,2021.2.0,239.64723926376806,
red_congruent,1,k,right,red,0.6,,,,,,,,,3,0,18,1,,,,,,,222.8681795,None,,,,,,,,,,,,223.96480559999998,None,k,1,0.47249460000000454,223.96480559999998,None,,,,,4,001,2022_Aug_07_1553,Version4,2021.2.0,239.64723926376806,
blue_congruent,1,a,left,blue,-0.6,,,,,,,,,3,1,19,0,,,,,,,224.44893739999998,None,,,,,,,,,,,,225.5873658,None,a,1,0.4581355000000258,225.5873658,None,,,,,4,001,2022_Aug_07_1553,Version4,2021.2.0,239.64723926376806,
red_neutral,0,k,middle,red,0,,,,,,,,,3,2,20,4,,,,,,,226.06289959999998,None,,,,,,,,,,,,227.16402649999998,None,k,1,0.3377211000000102,227.16402649999998,None,,,,,4,001,2022_Aug_07_1553,Version4,2021.2.0,239.64723926376806,
red_congruent,1,k,right,red,0.6,,,,,,,,,3,3,21,1,,,,,,,227.51856299999997,None,,,,,,,,,,,,228.7073436,None,k,1,0.35460890000001655,228.7073436,None,,,,,4,001,2022_Aug_07_1553,Version4,2021.2.0,239.64723926376806,
blue_neutral,0,a,middle,blue,0,,,,,,,,,3,4,22,5,,,,,,,229.0786276,None,,,,,,,,,,,,230.2757616,None,a,1,0.48240619999995715,230.2757616,None,,,,,4,001,2022_Aug_07_1553,Version4,2021.2.0,239.64723926376806,
red_neutral,0,k,middle,red,0,,,,,,,,,3,5,23,4,,,,,,,230.7720137,None,,,,,,,,,,,,231.86066999999997,None,a,0,0.36967219999996814,231.86066999999997,None,,,,,4,001,2022_Aug_07_1553,Version4,2021.2.0,239.64723926376806,
blue_incongruent,0,a,right,blue,0.6,,,,,,,,,4,0,24,2,,,,,,,232.24440679999998,None,,,,,,,,,,,,233.3164678,None,a,1,0.698169699999994,233.3164678,None,,,,,4,001,2022_Aug_07_1553,Version4,2021.2.0,239.64723926376806,
blue_incongruent,0,a,right,blue,0.6,,,,,,,,,4,1,25,2,,,,,,,234.0296565,None,,,,,,,,,,,,235.2268242,None,a,1,0.5319886999999994,235.2268242,None,,,,,4,001,2022_Aug_07_1553,Version4,2021.2.0,239.64723926376806,
red_incongruent,0,k,left,red,-0.6,,,,,,,,,4,2,26,3,,,,,,,235.77317269999998,None,,,,,,,,,,,,236.866065,None,k,1,0.3809577000000104,236.866065,None,,,,,4,001,2022_Aug_07_1553,Version4,2021.2.0,239.64723926376806,
blue_congruent,1,a,left,blue,-0.6,,,,,,,,,4,3,27,0,,,,,,,237.25806289999997,None,,,,,,,,,,,,238.3092487,None,a,1,0.60199259999996,238.3092487,None,,,,,4,001,2022_Aug_07_1553,Version4,2021.2.0,239.64723926376806,
red_neutral,0,k,middle,red,0,,,,,,,,,4,4,28,4,,,,,,,238.9265021,None,,,,,,,,,,,,239.97804589999998,None,k,1,0.3893703999999616,239.97804589999998,None,,,,,4,001,2022_Aug_07_1553,Version4,2021.2.0,239.64723926376806,
blue_neutral,0,a,middle,blue,0,,,,,,,,,4,5,29,5,,,,,,,240.386665,None,,,,,,,,,,,,241.5501972,None,a,1,0.5534516999999823,241.5501972,None,,,,,4,001,2022_Aug_07_1553,Version4,2021.2.0,239.64723926376806,
blue_neutral,0,a,middle,blue,0,,,,,,,,,5,0,30,5,,,,,,,242.1215419,None,,,,,,,,,,,,243.24772689999998,None,a,1,0.34413590000002614,243.24772689999998,None,,,,,4,001,2022_Aug_07_1553,Version4,2021.2.0,239.64723926376806,
red_neutral,0,k,middle,red,0,,,,,,,,,5,1,31,4,,,,,,,243.6022817,None,,,,,,,,,,,,244.67013839999998,None,k,1,0.39391849999998385,244.67013839999998,None,,,,,4,001,2022_Aug_07_1553,Version4,2021.2.0,239.64723926376806,
blue_incongruent,0,a,right,blue,0.6,,,,,,,,,5,2,32,2,,,,,,,245.0830146,None,,,,,,,,,,,,246.121599,None,a,1,0.6306774000000246,246.121599,None,,,,,4,001,2022_Aug_07_1553,Version4,2021.2.0,239.64723926376806,
blue_neutral,0,a,middle,blue,0,,,,,,,,,5,3,33,5,,,,,,,246.76402479999996,None,,,,,,,,,,,,247.8442463,None,a,1,0.3642303000000311,247.8442463,None,,,,,4,001,2022_Aug_07_1553,Version4,2021.2.0,239.64723926376806,
red_incongruent,0,k,left,red,-0.6,,,,,,,,,5,4,34,3,,,,,,,248.2196449,None,,,,,,,,,,,,249.425092,None,k,1,0.3596071000000052,249.425092,None,,,,,4,001,2022_Aug_07_1553,Version4,2021.2.0,239.64723926376806,
red_neutral,0,k,middle,red,0,,,,,,,,,5,5,35,4,,,,,,,249.7966181,None,,,,,,,,,,,,250.8807981,None,k,1,0.3440966000000003,250.8807981,None,,,,,4,001,2022_Aug_07_1553,Version4,2021.2.0,239.64723926376806,
red_incongruent,0,k,left,red,-0.6,,,,,,,,,6,0,36,3,,,,,,,251.2395234,None,,,,,,,,,,,,252.36571759999998,None,k,1,0.38748950000001514,252.36571759999998,None,,,,,4,001,2022_Aug_07_1553,Version4,2021.2.0,239.64723926376806,
red_congruent,1,k,right,red,0.6,,,,,,,,,6,1,37,1,,,,,,,252.76620079999998,None,,,,,,,,,,,,253.8547782,None,k,1,0.47453400000000556,253.8547782,None,,,,,4,001,2022_Aug_07_1553,Version4,2021.2.0,239.64723926376806,
red_congruent,1,k,right,red,0.6,,,,,,,,,6,2,38,1,,,,,,,254.34700449999997,None,,,,,,,,,,,,255.4564686,None,k,1,0.36901399999999285,255.4564686,None,,,,,4,001,2022_Aug_07_1553,Version4,2021.2.0,239.64723926376806,
blue_incongruent,0,a,right,blue,0.6,,,,,,,,,6,3,39,2,,,,,,,255.8443871,None,,,,,,,,,,,,257.06235449999997,None,a,1,0.47538370000000896,257.06235449999997,None,,,,,4,001,2022_Aug_07_1553,Version4,2021.2.0,239.64723926376806,
blue_congruent,1,a,left,blue,-0.6,,,,,,,,,6,4,40,0,,,,,,,257.5505538,None,,,,,,,,,,,,258.6973857,None,a,1,0.36054389999998193,258.6973857,None,,,,,4,001,2022_Aug_07_1553,Version4,2021.2.0,239.64723926376806,
blue_congruent,1,a,left,blue,-0.6,,,,,,,,,6,5,41,0,,,,,,,259.0729895,None,,,,,,,,,,,,260.25322389999997,None,a,1,0.35692220000004227,260.25322389999997,None,,,,,4,001,2022_Aug_07_1553,Version4,2021.2.0,239.64723926376806,
red_incongruent,0,k,left,red,-0.6,,,,,,,,,7,0,42,3,,,,,,,260.6286157,None,,,,,,,,,,,,261.7466832,None,k,1,0.447667000000024,261.7466832,None,,,,,4,001,2022_Aug_07_1553,Version4,2021.2.0,239.64723926376806,
red_incongruent,0,k,left,red,-0.6,,,,,,,,,7,1,43,3,,,,,,,262.20921799999996,None,,,,,,,,,,,,263.2772564,None,k,1,0.6133479000000079,263.2772564,None,,,,,4,001,2022_Aug_07_1553,Version4,2021.2.0,239.64723926376806,
blue_neutral,0,a,middle,blue,0,,,,,,,,,7,2,44,5,,,,,,,263.90739099999996,None,,,,,,,,,,,,264.9164896,None,a,1,0.4062986000000137,264.9164896,None,,,,,4,001,2022_Aug_07_1553,Version4,2021.2.0,239.64723926376806,
red_congruent,1,k,right,red,0.6,,,,,,,,,7,3,45,1,,,,,,,265.33777499999997,None,,,,,,,,,,,,266.4764889,None,k,1,0.5265242000000399,266.4764889,None,,,,,4,001,2022_Aug_07_1553,Version4,2021.2.0,239.64723926376806,
blue_congruent,1,a,left,blue,-0.6,,,,,,,,,7,4,46,0,,,,,,,267.0146645,None,,,,,,,,,,,,268.1116274,None,a,1,0.37961130000002186,268.1116274,None,,,,,4,001,2022_Aug_07_1553,Version4,2021.2.0,239.64723926376806,
blue_congruent,1,a,left,blue,-0.6,,,,,,,,,7,5,47,0,,,,,,,268.503624,None,,,,,,,,,,,,269.5673542,None,a,1,0.3640345000000025,269.5673542,None,,,,,4,001,2022_Aug_07_1553,Version4,2021.2.0,239.64723926376806,
,,,,,,,,,,,,,,,,,,,,,,,,,,,,,,,,,,,,,,,,,,,,space,3.7448876999999925,,,4,001,2022_Aug_07_1553,Version4,2021.2.0,239.64723926376806,
red_neutral,0,k,middle,red,0,,,,,,,,,,,,,0,0,0,4,,,273.7258385,None,,,,,,,,,,,,274.8690487,None,k,1,0.6955331999999999,274.8690487,None,,,,,4,001,2022_Aug_07_1553,Version4,2021.2.0,239.64723926376806,
blue_incongruent,0,a,right,blue,0.6,,,,,,,,,,,,,0,1,1,2,,,275.5781307,None,,,,,,,,,,,,276.6417001,None,a,1,0.4186526000000299,276.6417001,None,,,,,4,001,2022_Aug_07_1553,Version4,2021.2.0,239.64723926376806,
blue_congruent,1,a,left,blue,-0.6,,,,,,,,,,,,,0,2,2,0,,,277.0712729,None,,,,,,,,,,,,278.1555673,None,a,1,1.1692277999999874,278.1555673,None,,,,,4,001,2022_Aug_07_1553,Version4,2021.2.0,239.64723926376806,
red_incongruent,0,k,left,red,-0.6,,,,,,,,,,,,,0,3,3,3,,,279.3403255,None,,,,,,,,,,,,280.3747836,None,k,1,0.40609530000000404,280.3747836,None,,,,,4,001,2022_Aug_07_1553,Version4,2021.2.0,239.64723926376806,
red_congruent,1,k,right,red,0.6,,,,,,,,,,,,,0,4,4,1,,,280.8002491,None,,,,,,,,,,,,281.95566149999996,None,k,1,0.35370850000003884,281.95566149999996,None,,,,,4,001,2022_Aug_07_1553,Version4,2021.2.0,239.64723926376806,
red_neutral,0,k,middle,red,0,,,,,,,,,,,,,0,5,5,4,,,282.3183228,None,,,,,,,,,,,,283.41110449999996,None,k,1,0.32217549999995754,283.41110449999996,None,,,,,4,001,2022_Aug_07_1553,Version4,2021.2.0,239.64723926376806,
blue_congruent,1,a,left,blue,-0.6,,,,,,,,,,,,,1,0,6,0,,,283.7492711,None,,,,,,,,,,,,284.8752067,None,a,1,0.30623960000002626,284.8752067,None,,,,,4,001,2022_Aug_07_1553,Version4,2021.2.0,239.64723926376806,
blue_neutral,0,a,middle,blue,0,,,,,,,,,,,,,1,1,7,5,,,285.20076969999997,None,,,,,,,,,,,,286.2936371,None,a,1,0.36003509999994776,286.2936371,None,,,,,4,001,2022_Aug_07_1553,Version4,2021.2.0,239.64723926376806,
red_incongruent,0,k,left,red,-0.6,,,,,,,,,,,,,1,2,8,3,,,286.66902569999996,None,,,,,,,,,,,,287.716117,None,k,1,0.32968849999997474,287.716117,None,,,,,4,001,2022_Aug_07_1553,Version4,2021.2.0,239.64723926376806,
red_incongruent,0,k,left,red,-0.6,,,,,,,,,,,,,1,3,9,3,,,288.0576561,None,,,,,,,,,,,,289.2719995,None,k,1,0.3500373000000536,289.2719995,None,,,,,4,001,2022_Aug_07_1553,Version4,2021.2.0,239.64723926376806,
red_neutral,0,k,middle,red,0,,,,,,,,,,,,,1,4,10,4,,,289.6387851,None,,,,,,,,,,,,290.66465999999997,None,k,1,0.3418133999999782,290.66465999999997,None,,,,,4,001,2022_Aug_07_1553,Version4,2021.2.0,239.64723926376806,
blue_congruent,1,a,left,blue,-0.6,,,,,,,,,,,,,1,5,11,0,,,291.0235658,None,,,,,,,,,,,,292.1623475,None,a,1,0.3164241000000061,292.1623475,None,,,,,4,001,2022_Aug_07_1553,Version4,2021.2.0,239.64723926376806,
red_congruent,1,k,right,red,0.6,,,,,,,,,,,,,2,0,12,1,,,292.4960569,None,,,,,,,,,,,,293.5930883,None,k,1,0.36585139999999683,293.5930883,None,,,,,4,001,2022_Aug_07_1553,Version4,2021.2.0,239.64723926376806,
red_neutral,0,k,middle,red,0,,,,,,,,,,,,,2,1,13,4,,,293.9767862,None,,,,,,,,,,,,295.1943829,None,k,1,0.3644553999999971,295.1943829,None,,,,,4,001,2022_Aug_07_1553,Version4,2021.2.0,239.64723926376806,
blue_congruent,1,a,left,blue,-0.6,,,,,,,,,,,,,2,2,14,0,,,295.57813219999997,None,,,,,,,,,,,,296.71264479999996,None,a,1,0.37463709999997263,296.71264479999996,None,,,,,4,001,2022_Aug_07_1553,Version4,2021.2.0,239.64723926376806,
blue_neutral,0,a,middle,blue,0,,,,,,,,,,,,,2,3,15,5,,,297.1050568,None,,,,,,,,,,,,298.1475973,None,a,1,0.339702299999999,298.1475973,None,,,,,4,001,2022_Aug_07_1553,Version4,2021.2.0,239.64723926376806,
blue_incongruent,0,a,right,blue,0.6,,,,,,,,,,,,,2,4,16,2,,,298.5023344,None,,,,,,,,,,,,299.58243369999997,None,a,1,0.3850256999999715,299.58243369999997,None,,,,,4,001,2022_Aug_07_1553,Version4,2021.2.0,239.64723926376806,
blue_neutral,0,a,middle,blue,0,,,,,,,,,,,,,2,5,17,5,,,299.9787254,None,,,,,,,,,,,,301.1089702,None,a,1,0.31464649999998073,301.1089702,None,,,,,4,001,2022_Aug_07_1553,Version4,2021.2.0,239.64723926376806,
blue_incongruent,0,a,right,blue,0.6,,,,,,,,,,,,,3,0,18,2,,,301.4343307,None,,,,,,,,,,,,302.5563347,None,a,1,0.3394862999999759,302.5563347,None,,,,,4,001,2022_Aug_07_1553,Version4,2021.2.0,239.64723926376806,
blue_congruent,1,a,left,blue,-0.6,,,,,,,,,,,,,3,1,19,0,,,302.90698660000004,None,,,,,,,,,,,,303.9412243,None,k,0,0.3467549000000645,303.9412243,None,,,,,4,001,2022_Aug_07_1553,Version4,2021.2.0,239.64723926376806,
blue_congruent,1,a,left,blue,-0.6,,,,,,,,,,,,,3,2,20,0,,,304.30019609999994,None,,,,,,,,,,,,305.45106889999994,None,a,1,0.6691822000000229,305.45106889999994,None,,,,,4,001,2022_Aug_07_1553,Version4,2021.2.0,239.64723926376806,
blue_incongruent,0,a,right,blue,0.6,,,,,,,,,,,,,3,3,21,2,,,306.13543939999994,None,,,,,,,,,,,,307.2865178,None,a,1,0.3459473000000344,307.2865178,None,,,,,4,001,2022_Aug_07_1553,Version4,2021.2.0,239.64723926376806,
red_incongruent,0,k,left,red,-0.6,,,,,,,,,,,,,3,4,22,3,,,307.6453478,None,,,,,,,,,,,,308.72162299999997,None,k,1,0.3991631999999754,308.72162299999997,None,,,,,4,001,2022_Aug_07_1553,Version4,2021.2.0,239.64723926376806,
red_incongruent,0,k,left,red,-0.6,,,,,,,,,,,,,3,5,23,3,,,309.1386333,None,,,,,,,,,,,,310.23566179999995,None,a,0,0.477227599999992,310.23566179999995,None,,,,,4,001,2022_Aug_07_1553,Version4,2021.2.0,239.64723926376806,
red_congruent,1,k,right,red,0.6,,,,,,,,,,,,,4,0,24,1,,,310.72749289999996,None,,,,,,,,,,,,311.85367479999996,None,k,1,0.9234996999999794,311.85367479999996,None,,,,,4,001,2022_Aug_07_1553,Version4,2021.2.0,239.64723926376806,
red_neutral,0,k,middle,red,0,,,,,,,,,,,,,4,1,25,4,,,312.79220230000004,None,,,,,,,,,,,,313.91426569999993,None,k,1,0.3350729000000001,313.91426569999993,None,,,,,4,001,2022_Aug_07_1553,Version4,2021.2.0,239.64723926376806,
blue_incongruent,0,a,right,blue,0.6,,,,,,,,,,,,,4,2,26,2,,,314.2606782,None,,,,,,,,,,,,315.32820239999995,None,a,1,0.41735749999998006,315.32820239999995,None,,,,,4,001,2022_Aug_07_1553,Version4,2021.2.0,239.64723926376806,
red_congruent,1,k,right,red,0.6,,,,,,,,,,,,,4,3,27,1,,,315.7620252,None,,,,,,,,,,,,316.83394759999993,None,k,1,0.8718728000000056,316.83394759999993,None,,,,,4,001,2022_Aug_07_1553,Version4,2021.2.0,239.64723926376806,
red_congruent,1,k,right,red,0.6,,,,,,,,,,,,,4,4,28,1,,,317.7226907,None,,,,,,,,,,,,318.83192059999993,None,k,1,0.4180837999999767,318.83192059999993,None,,,,,4,001,2022_Aug_07_1553,Version4,2021.2.0,239.64723926376806,
red_incongruent,0,k,left,red,-0.6,,,,,,,,,,,,,4,5,29,3,,,319.2656774,None,,,,,,,,,,,,320.49623519999994,None,k,1,0.50599550000004,320.49623519999994,None,,,,,4,001,2022_Aug_07_1553,Version4,2021.2.0,239.64723926376806,
red_neutral,0,k,middle,red,0,,,,,,,,,,,,,5,0,30,4,,,321.01751440000004,None,,,,,,,,,,,,322.12288029999996,None,k,1,0.2875776999999289,322.12288029999996,None,,,,,4,001,2022_Aug_07_1553,Version4,2021.2.0,239.64723926376806,
red_congruent,1,k,right,red,0.6,,,,,,,,,,,,,5,1,31,1,,,322.42321009999995,None,,,,,,,,,,,,323.5536534,None,k,1,0.36900789999992867,323.5536534,None,,,,,4,001,2022_Aug_07_1553,Version4,2021.2.0,239.64723926376806,
blue_neutral,0,a,middle,blue,0,,,,,,,,,,,,,5,2,32,5,,,323.93761349999994,None,,,,,,,,,,,,325.0843478,None,a,1,0.35851690000004055,325.0843478,None,,,,,4,001,2022_Aug_07_1553,Version4,2021.2.0,239.64723926376806,
blue_incongruent,0,a,right,blue,0.6,,,,,,,,,,,,,5,3,33,2,,,325.46017620000003,None,,,,,,,,,,,,326.59435909999996,None,a,1,0.36879370000008294,326.59435909999996,None,,,,,4,001,2022_Aug_07_1553,Version4,2021.2.0,239.64723926376806,
blue_neutral,0,a,middle,blue,0,,,,,,,,,,,,,5,4,34,5,,,326.9781638,None,,,,,,,,,,,,328.1752114,None,a,1,0.28402119999998376,328.1752114,None,,,,,4,001,2022_Aug_07_1553,Version4,2021.2.0,239.64723926376806,
blue_congruent,1,a,left,blue,-0.6,,,,,,,,,,,,,5,5,35,0,,,328.47579219999994,None,,,,,,,,,,,,329.6100522,None,a,1,0.40140500000006796,329.6100522,None,,,,,4,001,2022_Aug_07_1553,Version4,2021.2.0,239.64723926376806,
red_neutral,0,k,middle,red,0,,,,,,,,,,,,,6,0,36,4,,,330.0270771,None,,,,,,,,,,,,331.25339360000004,None,k,1,0.4062705999999707,331.25339360000004,None,,,,,4,001,2022_Aug_07_1553,Version4,2021.2.0,239.64723926376806,
blue_incongruent,0,a,right,blue,0.6,,,,,,,,,,,,,6,1,37,2,,,331.6743826,None,,,,,,,,,,,,332.7674784,None,a,1,0.41288110000004963,332.7674784,None,,,,,4,001,2022_Aug_07_1553,Version4,2021.2.0,239.64723926376806,
red_congruent,1,k,right,red,0.6,,,,,,,,,,,,,6,2,38,1,,,333.1926746,None,,,,,,,,,,,,334.4400712,None,k,1,0.364021399999956,334.4400712,None,,,,,4,001,2022_Aug_07_1553,Version4,2021.2.0,239.64723926376806,
red_neutral,0,k,middle,red,0,,,,,,,,,,,,,6,3,39,4,,,334.81576509999996,None,,,,,,,,,,,,335.91255140000004,None,k,1,0.37173669999992853,335.91255140000004,None,,,,,4,001,2022_Aug_07_1553,Version4,2021.2.0,239.64723926376806,
red_incongruent,0,k,left,red,-0.6,,,,,,,,,,,,,6,4,40,3,,,336.2966244,None,,,,,,,,,,,,337.38485280000003,None,k,1,0.30765020000001186,337.38485280000003,None,,,,,4,001,2022_Aug_07_1553,Version4,2021.2.0,239.64723926376806,
red_incongruent,0,k,left,red,-0.6,,,,,,,,,,,,,6,5,41,3,,,337.70602049999997,None,,,,,,,,,,,,338.82812870000004,None,k,1,0.31262360000005174,338.82812870000004,None,,,,,4,001,2022_Aug_07_1553,Version4,2021.2.0,239.64723926376806,
blue_neutral,0,a,middle,blue,0,,,,,,,,,,,,,7,0,42,5,,,339.153521,None,,,,,,,,,,,,340.16282540000003,None,a,1,0.37805800000001,340.16282540000003,None,,,,,4,001,2022_Aug_07_1553,Version4,2021.2.0,239.64723926376806,
blue_congruent,1,a,left,blue,-0.6,,,,,,,,,,,,,7,1,43,0,,,340.5551198,None,,,,,,,,,,,,341.6518762,None,a,1,0.3931893999999829,341.6518762,None,,,,,4,001,2022_Aug_07_1553,Version4,2021.2.0,239.64723926376806,
red_congruent,1,k,right,red,0.6,,,,,,,,,,,,,7,2,44,1,,,342.06481260000004,None,,,,,,,,,,,,343.1492956,None,k,1,0.46398260000000846,343.1492956,None,,,,,4,001,2022_Aug_07_1553,Version4,2021.2.0,239.64723926376806,
blue_incongruent,0,a,right,blue,0.6,,,,,,,,,,,,,7,3,45,2,,,343.62480880000004,None,,,,,,,,,,,,344.68842309999997,None,k,0,0.42938759999992726,344.68842309999997,None,,,,,4,001,2022_Aug_07_1553,Version4,2021.2.0,239.64723926376806,
blue_neutral,0,a,middle,blue,0,,,,,,,,,,,,,7,4,46,5,,,345.1350591,None,,,,,,,,,,,,346.1900179,None,a,1,0.7840335000000778,346.1900179,None,,,,,4,001,2022_Aug_07_1553,Version4,2021.2.0,239.64723926376806,
blue_neutral,0,a,middle,blue,0,,,,,,,,,,,,,7,5,47,5,,,346.9908757,None,,,,,,,,,,,,348.02956119999993,None,a,1,0.5123978000000307,348.02956119999993,None,,,,,4,001,2022_Aug_07_1553,Version4,2021.2.0,239.64723926376806,
,,,,,,,,,,,,,,,,,,,,,,,,,,,,,,,,,,,,,,,,,,,,space,2.350569099999916,,,4,001,2022_Aug_07_1553,Version4,2021.2.0,239.64723926376806,
,,,,,,,,,,,,,,,,,,,,,,,,,,,,,,,,,,,,,,,,,,,,,,space,3.9098558000000594,4,001,2022_Aug_07_1553,Version4,2021.2.0,239.64723926376806,
