images,congruentcy,corrAns,box_pos,box_color,box_x,pract.thisRepN,pract.thisTrialN,pract.thisN,pract.thisIndex,trials.thisRepN,trials.thisTrialN,trials.thisN,trials.thisIndex,trials_2.thisRepN,trials_2.thisTrialN,trials_2.thisN,trials_2.thisIndex,trials_3.thisRepN,trials_3.thisTrialN,trials_3.thisN,trials_3.thisIndex,key_resp_instr.keys,key_resp_instr.rt,FixCross.started,FixCross.stopped,Box_p.started,Box_p.stopped,key_resp_P.keys,key_resp_P.corr,key_resp_P.rt,key_resp_P.started,key_resp_P.stopped,text_3.started,text_3.stopped,key_resp_2.keys,key_resp_2.rt,Box.started,Box.stopped,key_resp.keys,key_resp.corr,key_resp.rt,key_resp.started,key_resp.stopped,key_resp_3.keys,key_resp_3.rt,key_resp_4.keys,key_resp_4.rt,participant,session,date,expName,psychopyVersion,frameRate,
,,,,,,,,,,,,,,,,,,,,,,space,5.267769199999748,,,,,,,,,,,,,,,,,,,,,,,,,5,001,2022_Aug_07_1739,Version4,2021.2.0,239.6277143848741,
red_neutral,0,k,middle,red,0,0,0,0,4,,,,,,,,,,,,,,,17.161297399999967,None,18.29553340000075,None,k,1,0.596670300000369,18.29553340000075,None,,,,,,,,,,,,,,,,5,001,2022_Aug_07_1739,Version4,2021.2.0,239.6277143848741,
blue_incongruent,0,a,right,blue,0.6,0,1,1,2,,,,,,,,,,,,,,,19.905508600000758,None,21.127629100000377,None,a,1,0.41290810000009515,21.127629100000377,None,,,,,,,,,,,,,,,,5,001,2022_Aug_07_1739,Version4,2021.2.0,239.6277143848741,
red_congruent,1,k,right,red,0.6,0,2,2,1,,,,,,,,,,,,,,,22.55830590000005,None,23.767947600000298,None,k,1,0.3649417999995421,23.767947600000298,None,,,,,,,,,,,,,,,,5,001,2022_Aug_07_1739,Version4,2021.2.0,239.6277143848741,
blue_neutral,0,a,middle,blue,0,0,3,3,5,,,,,,,,,,,,,,,25.15260230000058,None,26.27481070000067,None,a,1,0.38656709999941086,26.27481070000067,None,,,,,,,,,,,,,,,,5,001,2022_Aug_07_1739,Version4,2021.2.0,239.6277143848741,
blue_neutral,0,a,middle,blue,0,0,4,4,5,,,,,,,,,,,,,,,27.680441500000597,None,28.802428800000598,None,a,1,0.48333760000059556,28.802428800000598,None,,,,,,,,,,,,,,,,5,001,2022_Aug_07_1739,Version4,2021.2.0,239.6277143848741,
blue_congruent,1,a,left,blue,-0.6,0,5,5,0,,,,,,,,,,,,,,,30.308335100000477,None,31.35094509999999,None,a,1,0.5191290000002482,31.35094509999999,None,,,,,,,,,,,,,,,,5,001,2022_Aug_07_1739,Version4,2021.2.0,239.6277143848741,
red_neutral,0,k,middle,red,0,1,0,6,4,,,,,,,,,,,,,,,32.88997930000005,None,33.98725300000024,None,k,1,0.43531700000039564,33.98725300000024,None,,,,,,,,,,,,,,,,5,001,2022_Aug_07_1739,Version4,2021.2.0,239.6277143848741,
red_congruent,1,k,right,red,0.6,1,1,7,1,,,,,,,,,,,,,,,35.43867070000033,None,36.53977410000061,None,k,1,0.37880719999975554,36.53977410000061,None,,,,,,,,,,,,,,,,5,001,2022_Aug_07_1739,Version4,2021.2.0,239.6277143848741,
blue_neutral,0,a,middle,blue,0,1,2,8,5,,,,,,,,,,,,,,,37.93707540000014,None,38.992215600000236,None,a,1,0.5027290999996694,38.992215600000236,None,,,,,,,,,,,,,,,,5,001,2022_Aug_07_1739,Version4,2021.2.0,239.6277143848741,
blue_congruent,1,a,left,blue,-0.6,1,3,9,0,,,,,,,,,,,,,,,40.51480510000056,None,41.57010030000038,None,a,1,0.3493114000002606,41.57010030000038,None,,,,,,,,,,,,,,,,5,001,2022_Aug_07_1739,Version4,2021.2.0,239.6277143848741,
red_incongruent,0,k,left,red,-0.6,1,4,10,3,,,,,,,,,,,,,,,42.942248700000164,None,43.99765790000038,None,k,1,0.35410140000021784,43.99765790000038,None,,,,,,,,,,,,,,,,5,001,2022_Aug_07_1739,Version4,2021.2.0,239.6277143848741,
blue_incongruent,0,a,right,blue,0.6,1,5,11,2,,,,,,,,,,,,,,,45.36562959999992,None,46.40859880000062,None,a,1,0.34333040000001347,46.40859880000062,None,,,,,,,,,,,,,,,,5,001,2022_Aug_07_1739,Version4,2021.2.0,239.6277143848741,
red_incongruent,0,k,left,red,-0.6,2,0,12,3,,,,,,,,,,,,,,,47.768187300000136,None,48.919536000000335,None,k,1,0.5847243999996863,48.919536000000335,None,,,,,,,,,,,,,,,,5,001,2022_Aug_07_1739,Version4,2021.2.0,239.6277143848741,
blue_neutral,0,a,middle,blue,0,2,1,13,5,,,,,,,,,,,,,,,50.5212289000001,None,51.57219870000063,None,a,1,0.41263340000023163,51.57219870000063,None,,,,,,,,,,,,,,,,5,001,2022_Aug_07_1739,Version4,2021.2.0,239.6277143848741,
blue_congruent,1,a,left,blue,-0.6,2,2,14,0,,,,,,,,,,,,,,,53.00727000000006,None,54.10835700000007,None,a,1,0.3486010999995415,54.10835700000007,None,,,,,,,,,,,,,,,,5,001,2022_Aug_07_1739,Version4,2021.2.0,239.6277143848741,
blue_congruent,1,a,left,blue,-0.6,2,3,15,0,,,,,,,,,,,,,,,55.480687000000216,None,56.67357990000073,None,a,1,0.31185350000032486,56.67357990000073,None,,,,,,,,,,,,,,,,5,001,2022_Aug_07_1739,Version4,2021.2.0,239.6277143848741,
blue_incongruent,0,a,right,blue,0.6,2,4,16,2,,,,,,,,,,,,,,,57.99984550000045,None,59.18045780000011,None,a,1,0.3811599999999089,59.18045780000011,None,,,,,,,,,,,,,,,,5,001,2022_Aug_07_1739,Version4,2021.2.0,239.6277143848741,
red_incongruent,0,k,left,red,-0.6,2,5,17,3,,,,,,,,,,,,,,,60.586045200000626,None,61.733099900000525,None,k,1,0.380861300000106,61.733099900000525,None,,,,,,,,,,,,,,,,5,001,2022_Aug_07_1739,Version4,2021.2.0,239.6277143848741,
red_congruent,1,k,right,red,0.6,3,0,18,1,,,,,,,,,,,,,,,63.130416900000455,None,64.2316993000004,None,k,1,0.33858890000010433,64.2316993000004,None,,,,,,,,,,,,,,,,5,001,2022_Aug_07_1739,Version4,2021.2.0,239.6277143848741,
red_incongruent,0,k,left,red,-0.6,3,1,19,3,,,,,,,,,,,,,,,65.58301120000033,None,66.7509215,None,k,1,0.4038654999994833,66.7509215,None,,,,,,,,,,,,,,,,5,001,2022_Aug_07_1739,Version4,2021.2.0,239.6277143848741,
blue_incongruent,0,a,right,blue,0.6,3,2,20,2,,,,,,,,,,,,,,,68.16906070000005,None,69.43277040000066,None,a,1,0.3061896000008346,69.43277040000066,None,,,,,,,,,,,,,,,,5,001,2022_Aug_07_1739,Version4,2021.2.0,239.6277143848741,
red_neutral,0,k,middle,red,0,3,3,21,4,,,,,,,,,,,,,,,70.75516220000009,None,71.82293620000019,None,k,1,0.6044511000000057,71.82293620000019,None,,,,,,,,,,,,,,,,5,001,2022_Aug_07_1739,Version4,2021.2.0,239.6277143848741,
red_neutral,0,k,middle,red,0,3,4,22,4,,,,,,,,,,,,,,,73.44118290000006,None,74.49646500000017,None,k,1,0.6112335999996503,74.49646500000017,None,,,,,,,,,,,,,,,,5,001,2022_Aug_07_1739,Version4,2021.2.0,239.6277143848741,
red_congruent,1,k,right,red,0.6,3,5,23,1,,,,,,,,,,,,,,,76.12333540000054,None,77.24115970000003,None,k,1,0.49104329999954643,77.24115970000003,None,,,,,,,,,,,,,,,,5,001,2022_Aug_07_1739,Version4,2021.2.0,239.6277143848741,
,,,,,,,,,,,,,,,,,,,,,,,,,,,,,,,,,78.76352820000011,None,space,1.711418799999592,,,,,,,,,,,,5,001,2022_Aug_07_1739,Version4,2021.2.0,239.6277143848741,
red_congruent,1,k,right,red,0.6,,,,,0,0,0,1,,,,,,,,,,,82.48834590000024,None,,,,,,,,,,,,83.5435465999999,None,k,1,0.5333463000006304,83.5435465999999,None,,,,,5,001,2022_Aug_07_1739,Version4,2021.2.0,239.6277143848741,
red_congruent,1,k,right,red,0.6,,,,,0,1,1,1,,,,,,,,,,,84.08995640000012,None,,,,,,,,,,,,85.17869360000077,None,k,1,0.4263924999995652,85.17869360000077,None,,,,,5,001,2022_Aug_07_1739,Version4,2021.2.0,239.6277143848741,
red_neutral,0,k,middle,red,0,,,,,0,2,2,4,,,,,,,,,,,85.6168803999999,None,,,,,,,,,,,,86.73026650000065,None,k,1,0.3390339000006861,86.73026650000065,None,,,,,5,001,2022_Aug_07_1739,Version4,2021.2.0,239.6277143848741,
red_neutral,0,k,middle,red,0,,,,,0,3,3,4,,,,,,,,,,,87.08481149999989,None,,,,,,,,,,,,88.14424750000035,None,k,1,0.34145039999930304,88.14424750000035,None,,,,,5,001,2022_Aug_07_1739,Version4,2021.2.0,239.6277143848741,
blue_neutral,0,a,middle,blue,0,,,,,0,4,4,5,,,,,,,,,,,88.50298330000078,None,,,,,,,,,,,,89.5582445,None,a,1,0.39968210000006366,89.5582445,None,,,,,5,001,2022_Aug_07_1739,Version4,2021.2.0,239.6277143848741,
red_neutral,0,k,middle,red,0,,,,,0,5,5,4,,,,,,,,,,,89.97557210000014,None,,,,,,,,,,,,91.1558657000005,None,k,1,0.38601419999940845,91.1558657000005,None,,,,,5,001,2022_Aug_07_1739,Version4,2021.2.0,239.6277143848741,
blue_neutral,0,a,middle,blue,0,,,,,1,0,6,5,,,,,,,,,,,91.55641800000012,None,,,,,,,,,,,,92.65736610000022,None,a,1,0.47673630000008416,92.65736610000022,None,,,,,5,001,2022_Aug_07_1739,Version4,2021.2.0,239.6277143848741,
red_neutral,0,k,middle,red,0,,,,,1,1,7,4,,,,,,,,,,,93.14973340000051,None,,,,,,,,,,,,94.24653980000039,None,k,1,0.44775990000016463,94.24653980000039,None,,,,,5,001,2022_Aug_07_1739,Version4,2021.2.0,239.6277143848741,
red_neutral,0,k,middle,red,0,,,,,1,2,8,4,,,,,,,,,,,94.71370150000075,None,,,,,,,,,,,,95.79818410000007,None,k,1,0.48034280000047147,95.79818410000007,None,,,,,5,001,2022_Aug_07_1739,Version4,2021.2.0,239.6277143848741,
red_incongruent,0,k,left,red,-0.6,,,,,1,3,9,3,,,,,,,,,,,96.29454500000065,None,,,,,,,,,,,,97.33321729999989,None,k,1,0.47348839999995107,97.33321729999989,None,,,,,5,001,2022_Aug_07_1739,Version4,2021.2.0,239.6277143848741,
blue_incongruent,0,a,right,blue,0.6,,,,,1,4,10,2,,,,,,,,,,,97.8212153000004,None,,,,,,,,,,,,98.9181621000007,None,a,1,0.39282139999977517,98.9181621000007,None,,,,,5,001,2022_Aug_07_1739,Version4,2021.2.0,239.6277143848741,
blue_neutral,0,a,middle,blue,0,,,,,1,5,11,5,,,,,,,,,,,99.3269291000006,None,,,,,,,,,,,,100.4951230000006,None,a,1,0.4000052000001233,100.4951230000006,None,,,,,5,001,2022_Aug_07_1739,Version4,2021.2.0,239.6277143848741,
red_congruent,1,k,right,red,0.6,,,,,2,0,12,1,,,,,,,,,,,100.91192730000057,None,,,,,,,,,,,,102.10498030000053,None,k,1,0.39035770000009506,102.10498030000053,None,,,,,5,001,2022_Aug_07_1739,Version4,2021.2.0,239.6277143848741,
red_incongruent,0,k,left,red,-0.6,,,,,2,1,13,3,,,,,,,,,,,102.51374639999995,None,,,,,,,,,,,,103.56068630000027,None,k,1,0.32692130000032193,103.56068630000027,None,,,,,5,001,2022_Aug_07_1739,Version4,2021.2.0,239.6277143848741,
red_congruent,1,k,right,red,0.6,,,,,2,2,14,1,,,,,,,,,,,103.89862300000004,None,,,,,,,,,,,,104.9663470000005,None,k,1,0.4093579000000318,104.9663470000005,None,,,,,5,001,2022_Aug_07_1739,Version4,2021.2.0,239.6277143848741,
red_congruent,1,k,right,red,0.6,,,,,2,3,15,1,,,,,,,,,,,105.3877091000004,None,,,,,,,,,,,,106.5263244000007,None,k,1,0.385963300000185,106.5263244000007,None,,,,,5,001,2022_Aug_07_1739,Version4,2021.2.0,239.6277143848741,
blue_neutral,0,a,middle,blue,0,,,,,2,4,16,5,,,,,,,,,,,106.92701430000034,None,,,,,,,,,,,,107.99479510000037,None,a,1,0.4133451999996396,107.99479510000037,None,,,,,5,001,2022_Aug_07_1739,Version4,2021.2.0,239.6277143848741,
blue_neutral,0,a,middle,blue,0,,,,,2,5,17,5,,,,,,,,,,,108.42011180000009,None,,,,,,,,,,,,109.45863960000042,None,a,1,0.3976735000005647,109.45863960000042,None,,,,,5,001,2022_Aug_07_1739,Version4,2021.2.0,239.6277143848741,
blue_incongruent,0,a,right,blue,0.6,,,,,3,0,18,2,,,,,,,,,,,109.86736840000049,None,,,,,,,,,,,,110.95601979999992,None,a,1,0.3804831999996168,110.95601979999992,None,,,,,5,001,2022_Aug_07_1739,Version4,2021.2.0,239.6277143848741,
blue_congruent,1,a,left,blue,-0.6,,,,,3,1,19,0,,,,,,,,,,,111.34817230000044,None,,,,,,,,,,,,112.41992600000049,None,a,1,0.3327994999999646,112.41992600000049,None,,,,,5,001,2022_Aug_07_1739,Version4,2021.2.0,239.6277143848741,
blue_congruent,1,a,left,blue,-0.6,,,,,3,2,20,0,,,,,,,,,,,112.7662749000001,None,,,,,,,,,,,,113.80474370000047,None,a,1,0.3561277999997401,113.80474370000047,None,,,,,5,001,2022_Aug_07_1739,Version4,2021.2.0,239.6277143848741,
red_neutral,0,k,middle,red,0,,,,,3,3,21,4,,,,,,,,,,,114.1802875000003,None,,,,,,,,,,,,115.26464040000064,None,k,1,0.36045849999936763,115.26464040000064,None,,,,,5,001,2022_Aug_07_1739,Version4,2021.2.0,239.6277143848741,
blue_incongruent,0,a,right,blue,0.6,,,,,3,4,22,2,,,,,,,,,,,115.6442661000001,None,,,,,,,,,,,,116.77467060000072,None,a,1,0.34662780000053317,116.77467060000072,None,,,,,5,001,2022_Aug_07_1739,Version4,2021.2.0,239.6277143848741,
red_incongruent,0,k,left,red,-0.6,,,,,3,5,23,3,,,,,,,,,,,117.13340580000022,None,,,,,,,,,,,,118.28460840000025,None,k,1,0.35702450000007957,118.28460840000025,None,,,,,5,001,2022_Aug_07_1739,Version4,2021.2.0,239.6277143848741,
red_neutral,0,k,middle,red,0,,,,,4,0,24,4,,,,,,,,,,,118.65987170000062,None,,,,,,,,,,,,119.7401534999999,None,k,1,0.3095149999999194,119.7401534999999,None,,,,,5,001,2022_Aug_07_1739,Version4,2021.2.0,239.6277143848741,
blue_congruent,1,a,left,blue,-0.6,,,,,4,1,25,0,,,,,,,,,,,120.06150909999997,None,,,,,,,,,,,,121.15431050000007,None,a,1,0.3037051999999676,121.15431050000007,None,,,,,5,001,2022_Aug_07_1739,Version4,2021.2.0,239.6277143848741,
blue_neutral,0,a,middle,blue,0,,,,,4,2,26,5,,,,,,,,,,,121.46710680000069,None,,,,,,,,,,,,122.61821690000033,None,a,1,0.2958446999991793,122.61821690000033,None,,,,,5,001,2022_Aug_07_1739,Version4,2021.2.0,239.6277143848741,
red_congruent,1,k,right,red,0.6,,,,,4,3,27,1,,,,,,,,,,,122.92703190000066,None,,,,,,,,,,,,124.04903800000011,None,k,1,0.28118979999999283,124.04903800000011,None,,,,,5,001,2022_Aug_07_1739,Version4,2021.2.0,239.6277143848741,
red_incongruent,0,k,left,red,-0.6,,,,,4,4,28,3,,,,,,,,,,,124.34099500000048,None,,,,,,,,,,,,125.4713784000005,None,k,1,0.3470707999995284,125.4713784000005,None,,,,,5,001,2022_Aug_07_1739,Version4,2021.2.0,239.6277143848741,
blue_neutral,0,a,middle,blue,0,,,,,4,5,29,5,,,,,,,,,,,125.83009480000055,None,,,,,,,,,,,,126.94793740000023,None,a,1,0.36671560000013415,126.94793740000023,None,,,,,5,001,2022_Aug_07_1739,Version4,2021.2.0,239.6277143848741,
red_incongruent,0,k,left,red,-0.6,,,,,5,0,30,3,,,,,,,,,,,127.32737380000071,None,,,,,,,,,,,,128.3993829000001,None,k,1,0.411494799999673,128.3993829000001,None,,,,,5,001,2022_Aug_07_1739,Version4,2021.2.0,239.6277143848741,
red_incongruent,0,k,left,red,-0.6,,,,,5,1,31,3,,,,,,,,,,,128.8249093000004,None,,,,,,,,,,,,129.90509139999995,None,k,1,0.30596930000046996,129.90509139999995,None,,,,,5,001,2022_Aug_07_1739,Version4,2021.2.0,239.6277143848741,
blue_congruent,1,a,left,blue,-0.6,,,,,5,2,32,0,,,,,,,,,,,130.2264814,None,,,,,,,,,,,,131.26917099999991,None,a,1,0.35830239999995683,131.26917099999991,None,,,,,5,001,2022_Aug_07_1739,Version4,2021.2.0,239.6277143848741,
red_congruent,1,k,right,red,0.6,,,,,5,3,33,1,,,,,,,,,,,131.64040470000054,None,,,,,,,,,,,,132.7165541000004,None,k,1,0.33488560000023426,132.7165541000004,None,,,,,5,001,2022_Aug_07_1739,Version4,2021.2.0,239.6277143848741,
blue_incongruent,0,a,right,blue,0.6,,,,,5,4,34,2,,,,,,,,,,,133.06277470000077,None,,,,,,,,,,,,134.14709370000037,None,a,1,0.33649079999941023,134.14709370000037,None,,,,,5,001,2022_Aug_07_1739,Version4,2021.2.0,239.6277143848741,
red_incongruent,0,k,left,red,-0.6,,,,,5,5,35,3,,,,,,,,,,,134.49341320000076,None,,,,,,,,,,,,135.61127320000014,None,k,1,0.33681720000004134,135.61127320000014,None,,,,,5,001,2022_Aug_07_1739,Version4,2021.2.0,239.6277143848741,
blue_incongruent,0,a,right,blue,0.6,,,,,6,0,36,2,,,,,,,,,,,135.96176749999995,None,,,,,,,,,,,,137.19211730000006,None,a,1,0.30004009999993286,137.19211730000006,None,,,,,5,001,2022_Aug_07_1739,Version4,2021.2.0,239.6277143848741,
blue_incongruent,0,a,right,blue,0.6,,,,,6,1,37,2,,,,,,,,,,,137.5050200000005,None,,,,,,,,,,,,138.6520473999999,None,a,1,0.34416520000013406,138.6520473999999,None,,,,,5,001,2022_Aug_07_1739,Version4,2021.2.0,239.6277143848741,
red_congruent,1,k,right,red,0.6,,,,,6,2,38,1,,,,,,,,,,,139.0148779000001,None,,,,,,,,,,,,140.11200420000023,None,k,1,0.44461189999947237,140.11200420000023,None,,,,,5,001,2022_Aug_07_1739,Version4,2021.2.0,239.6277143848741,
blue_congruent,1,a,left,blue,-0.6,,,,,6,3,39,0,,,,,,,,,,,140.57070019999992,None,,,,,,,,,,,,141.60952850000012,None,a,1,0.4353795999995782,141.60952850000012,None,,,,,5,001,2022_Aug_07_1739,Version4,2021.2.0,239.6277143848741,
blue_incongruent,0,a,right,blue,0.6,,,,,6,4,40,2,,,,,,,,,,,142.05982700000004,None,,,,,,,,,,,,143.1859682000004,None,a,1,0.5629182000002402,143.1859682000004,None,,,,,5,001,2022_Aug_07_1739,Version4,2021.2.0,239.6277143848741,
blue_incongruent,0,a,right,blue,0.6,,,,,6,5,41,2,,,,,,,,,,,143.76561829999991,None,,,,,,,,,,,,144.93350530000043,None,a,1,0.39176379999935307,144.93350530000043,None,,,,,5,001,2022_Aug_07_1739,Version4,2021.2.0,239.6277143848741,
red_incongruent,0,k,left,red,-0.6,,,,,7,0,42,3,,,,,,,,,,,145.34242330000052,None,,,,,,,,,,,,146.39767830000073,None,k,1,0.43198019999999815,146.39767830000073,None,,,,,5,001,2022_Aug_07_1739,Version4,2021.2.0,239.6277143848741,
red_neutral,0,k,middle,red,0,,,,,7,1,43,4,,,,,,,,,,,146.84399070000018,None,,,,,,,,,,,,147.93287560000044,None,k,1,0.3925851000003604,147.93287560000044,None,,,,,5,001,2022_Aug_07_1739,Version4,2021.2.0,239.6277143848741,
blue_neutral,0,a,middle,blue,0,,,,,7,2,44,5,,,,,,,,,,,148.34129980000034,None,,,,,,,,,,,,149.38842540000041,None,a,1,0.36120910000045114,149.38842540000041,None,,,,,5,001,2022_Aug_07_1739,Version4,2021.2.0,239.6277143848741,
blue_congruent,1,a,left,blue,-0.6,,,,,7,3,45,0,,,,,,,,,,,149.7679304000003,None,,,,,,,,,,,,150.90670480000063,None,a,1,0.42714260000047943,150.90670480000063,None,,,,,5,001,2022_Aug_07_1739,Version4,2021.2.0,239.6277143848741,
blue_congruent,1,a,left,blue,-0.6,,,,,7,4,46,0,,,,,,,,,,,151.34465140000066,None,,,,,,,,,,,,152.39152450000074,None,a,1,0.3985107999997126,152.39152450000074,None,,,,,5,001,2022_Aug_07_1739,Version4,2021.2.0,239.6277143848741,
blue_congruent,1,a,left,blue,-0.6,,,,,7,5,47,0,,,,,,,,,,,152.8045247,None,,,,,,,,,,,,153.88906810000026,None,a,1,0.39720649999981106,153.88906810000026,None,,,,,5,001,2022_Aug_07_1739,Version4,2021.2.0,239.6277143848741,
,,,,,,,,,,,,,,,,,,,,,,,,,,,,,,,,,,,,,,,,,,,,space,2.9041786999996475,,,5,001,2022_Aug_07_1739,Version4,2021.2.0,239.6277143848741,
red_neutral,0,k,middle,red,0,,,,,,,,,0,0,0,4,,,,,,,157.23886970000058,None,,,,,,,,,,,,158.40200189999996,None,k,1,0.3088172999996459,158.40200189999996,None,,,,,5,001,2022_Aug_07_1739,Version4,2021.2.0,239.6277143848741,
blue_neutral,0,a,middle,blue,0,,,,,,,,,0,1,1,5,,,,,,,158.72314220000044,None,,,,,,,,,,,,159.7908976000008,None,a,1,0.336122400000022,159.7908976000008,None,,,,,5,001,2022_Aug_07_1739,Version4,2021.2.0,239.6277143848741,
red_neutral,0,k,middle,red,0,,,,,,,,,0,2,2,4,,,,,,,160.1415375000006,None,,,,,,,,,,,,161.21323960000063,None,k,1,0.3299532000000909,161.21323960000063,None,,,,,5,001,2022_Aug_07_1739,Version4,2021.2.0,239.6277143848741,
blue_incongruent,0,a,right,blue,0.6,,,,,,,,,0,3,3,2,,,,,,,161.55526950000058,None,,,,,,,,,,,,162.61070550000022,None,a,1,0.4527213000001211,162.61070550000022,None,,,,,5,001,2022_Aug_07_1739,Version4,2021.2.0,239.6277143848741,
red_incongruent,0,k,left,red,-0.6,,,,,,,,,0,4,4,3,,,,,,,163.07358850000037,None,,,,,,,,,,,,164.26241980000032,None,k,1,0.4812346999997317,164.26241980000032,None,,,,,5,001,2022_Aug_07_1739,Version4,2021.2.0,239.6277143848741,
red_congruent,1,k,right,red,0.6,,,,,,,,,0,5,5,1,,,,,,,164.75876210000024,None,,,,,,,,,,,,165.8015604000002,None,k,1,0.3422810000001846,165.8015604000002,None,,,,,5,001,2022_Aug_07_1739,Version4,2021.2.0,239.6277143848741,
blue_congruent,1,a,left,blue,-0.6,,,,,,,,,1,0,6,0,,,,,,,166.1602640000001,None,,,,,,,,,,,,167.24472980000064,None,a,1,0.3074232999997548,167.24472980000064,None,,,,,5,001,2022_Aug_07_1739,Version4,2021.2.0,239.6277143848741,
red_incongruent,0,k,left,red,-0.6,,,,,,,,,1,1,7,3,,,,,,,167.5700824000005,None,,,,,,,,,,,,168.65862340000058,None,k,1,0.4295782999997755,168.65862340000058,None,,,,,5,001,2022_Aug_07_1739,Version4,2021.2.0,239.6277143848741,
red_congruent,1,k,right,red,0.6,,,,,,,,,1,2,8,1,,,,,,,169.10094690000005,None,,,,,,,,,,,,170.21044020000045,None,k,1,0.38215300000047137,170.21044020000045,None,,,,,5,001,2022_Aug_07_1739,Version4,2021.2.0,239.6277143848741,
red_congruent,1,k,right,red,0.6,,,,,,,,,1,3,9,1,,,,,,,170.61079280000013,None,,,,,,,,,,,,171.70347880000008,None,k,1,0.3292101000006369,171.70347880000008,None,,,,,5,001,2022_Aug_07_1739,Version4,2021.2.0,239.6277143848741,
red_neutral,0,k,middle,red,0,,,,,,,,,1,4,10,4,,,,,,,172.04564800000026,None,,,,,,,,,,,,173.13014290000046,None,k,1,0.3668253999994704,173.13014290000046,None,,,,,5,001,2022_Aug_07_1739,Version4,2021.2.0,239.6277143848741,
blue_neutral,0,a,middle,blue,0,,,,,,,,,1,5,11,5,,,,,,,173.51396939999995,None,,,,,,,,,,,,174.54422460000023,None,k,0,0.3207726000000548,174.54422460000023,None,,,,,5,001,2022_Aug_07_1739,Version4,2021.2.0,239.6277143848741,
blue_incongruent,0,a,right,blue,0.6,,,,,,,,,2,0,12,2,,,,,,,174.87769310000022,None,,,,,,,,,,,,175.94138300000031,None,a,1,0.5240592999998626,175.94138300000031,None,,,,,5,001,2022_Aug_07_1739,Version4,2021.2.0,239.6277143848741,
blue_incongruent,0,a,right,blue,0.6,,,,,,,,,2,1,13,2,,,,,,,176.48358090000056,None,,,,,,,,,,,,177.55146550000063,None,a,1,0.4099063000003298,177.55146550000063,None,,,,,5,001,2022_Aug_07_1739,Version4,2021.2.0,239.6277143848741,
red_neutral,0,k,middle,red,0,,,,,,,,,2,2,14,4,,,,,,,177.9727608000003,None,,,,,,,,,,,,179.10312500000055,None,k,1,0.39450850000048376,179.10312500000055,None,,,,,5,001,2022_Aug_07_1739,Version4,2021.2.0,239.6277143848741,
red_congruent,1,k,right,red,0.6,,,,,,,,,2,3,15,1,,,,,,,179.51175890000013,None,,,,,,,,,,,,180.67974159999994,None,k,1,0.5140742000003229,180.67974159999994,None,,,,,5,001,2022_Aug_07_1739,Version4,2021.2.0,239.6277143848741,
blue_neutral,0,a,middle,blue,0,,,,,,,,,2,4,16,5,,,,,,,181.2053566000004,None,,,,,,,,,,,,182.3064559000004,None,a,1,0.4636872000000949,182.3064559000004,None,,,,,5,001,2022_Aug_07_1739,Version4,2021.2.0,239.6277143848741,
red_incongruent,0,k,left,red,-0.6,,,,,,,,,2,5,17,3,,,,,,,182.78621040000053,None,,,,,,,,,,,,183.92473620000055,None,k,1,0.4134830000002694,183.92473620000055,None,,,,,5,001,2022_Aug_07_1739,Version4,2021.2.0,239.6277143848741,
blue_neutral,0,a,middle,blue,0,,,,,,,,,3,0,18,5,,,,,,,184.35452440000063,None,,,,,,,,,,,,185.4847264,None,a,1,0.42169230000035896,185.4847264,None,,,,,5,001,2022_Aug_07_1739,Version4,2021.2.0,239.6277143848741,
red_incongruent,0,k,left,red,-0.6,,,,,,,,,3,1,19,3,,,,,,,185.91446180000003,None,,,,,,,,,,,,187.0197594000001,None,k,1,0.43889930000023014,187.0197594000001,None,,,,,5,001,2022_Aug_07_1739,Version4,2021.2.0,239.6277143848741,
red_incongruent,0,k,left,red,-0.6,,,,,,,,,3,2,20,3,,,,,,,187.4701812000003,None,,,,,,,,,,,,188.62971950000065,None,k,1,0.38916040000003704,188.62971950000065,None,,,,,5,001,2022_Aug_07_1739,Version4,2021.2.0,239.6277143848741,
blue_incongruent,0,a,right,blue,0.6,,,,,,,,,3,3,21,2,,,,,,,189.03447500000038,None,,,,,,,,,,,,190.26525570000013,None,a,1,0.4178386000003229,190.26525570000013,None,,,,,5,001,2022_Aug_07_1739,Version4,2021.2.0,239.6277143848741,
blue_incongruent,0,a,right,blue,0.6,,,,,,,,,3,4,22,2,,,,,,,190.69869689999996,None,,,,,,,,,,,,191.80413270000008,None,a,1,0.37534300000061194,191.80413270000008,None,,,,,5,001,2022_Aug_07_1739,Version4,2021.2.0,239.6277143848741,
blue_neutral,0,a,middle,blue,0,,,,,,,,,3,5,23,5,,,,,,,192.19614910000018,None,,,,,,,,,,,,193.2639437000007,None,a,1,0.395791900000404,193.2639437000007,None,,,,,5,001,2022_Aug_07_1739,Version4,2021.2.0,239.6277143848741,
red_incongruent,0,k,left,red,-0.6,,,,,,,,,4,0,24,3,,,,,,,193.6726294,None,,,,,,,,,,,,194.69886700000006,None,k,1,0.6571534999993673,194.69886700000006,None,,,,,5,001,2022_Aug_07_1739,Version4,2021.2.0,239.6277143848741,
blue_neutral,0,a,middle,blue,0,,,,,,,,,4,1,25,5,,,,,,,195.37454550000075,None,,,,,,,,,,,,196.52578780000022,None,a,1,0.6221453999996811,196.52578780000022,None,,,,,5,001,2022_Aug_07_1739,Version4,2021.2.0,239.6277143848741,
blue_congruent,1,a,left,blue,-0.6,,,,,,,,,4,2,26,0,,,,,,,197.1598438000001,None,,,,,,,,,,,,198.19004250000035,None,a,1,0.4300842000002376,198.19004250000035,None,,,,,5,001,2022_Aug_07_1739,Version4,2021.2.0,239.6277143848741,
blue_neutral,0,a,middle,blue,0,,,,,,,,,4,3,27,5,,,,,,,198.63212100000055,None,,,,,,,,,,,,199.72918879999997,None,a,1,0.3711786000003485,199.72918879999997,None,,,,,5,001,2022_Aug_07_1739,Version4,2021.2.0,239.6277143848741,
blue_incongruent,0,a,right,blue,0.6,,,,,,,,,4,4,28,2,,,,,,,200.11704230000032,None,,,,,,,,,,,,201.19325329999992,None,a,1,0.427734099999725,201.19325329999992,None,,,,,5,001,2022_Aug_07_1739,Version4,2021.2.0,239.6277143848741,
blue_congruent,1,a,left,blue,-0.6,,,,,,,,,4,5,29,0,,,,,,,201.63117240000065,None,,,,,,,,,,,,202.7282009999999,None,a,1,0.39654869999958464,202.7282009999999,None,,,,,5,001,2022_Aug_07_1739,Version4,2021.2.0,239.6277143848741,
red_congruent,1,k,right,red,0.6,,,,,,,,,5,0,30,1,,,,,,,203.13674850000007,None,,,,,,,,,,,,204.32969000000048,None,a,0,0.33925189999990835,204.32969000000048,None,,,,,5,001,2022_Aug_07_1739,Version4,2021.2.0,239.6277143848741,
blue_congruent,1,a,left,blue,-0.6,,,,,,,,,5,1,31,0,,,,,,,204.68005070000072,None,,,,,,,,,,,,205.90659159999996,None,a,1,0.5226232000004529,205.90659159999996,None,,,,,5,001,2022_Aug_07_1739,Version4,2021.2.0,239.6277143848741,
blue_congruent,1,a,left,blue,-0.6,,,,,,,,,5,2,32,0,,,,,,,206.44455490000018,None,,,,,,,,,,,,207.47481900000002,None,a,1,0.4350125000000844,207.47481900000002,None,,,,,5,001,2022_Aug_07_1739,Version4,2021.2.0,239.6277143848741,
red_neutral,0,k,middle,red,0,,,,,,,,,5,3,33,4,,,,,,,207.92111270000078,None,,,,,,,,,,,,209.00567670000055,None,k,1,0.35993390000021463,209.00567670000055,None,,,,,5,001,2022_Aug_07_1739,Version4,2021.2.0,239.6277143848741,
red_incongruent,0,k,left,red,-0.6,,,,,,,,,5,4,34,3,,,,,,,209.3767899000004,None,,,,,,,,,,,,210.57392830000026,None,k,1,0.40002129999993485,210.57392830000026,None,,,,,5,001,2022_Aug_07_1739,Version4,2021.2.0,239.6277143848741,
red_neutral,0,k,middle,red,0,,,,,,,,,5,5,35,4,,,,,,,210.98679680000077,None,,,,,,,,,,,,212.00474790000044,None,k,1,0.4092446000004202,212.00474790000044,None,,,,,5,001,2022_Aug_07_1739,Version4,2021.2.0,239.6277143848741,
blue_incongruent,0,a,right,blue,0.6,,,,,,,,,6,0,36,2,,,,,,,212.4300529000002,None,,,,,,,,,,,,213.65634219999993,None,a,1,0.3578804000007949,213.65634219999993,None,,,,,5,001,2022_Aug_07_1739,Version4,2021.2.0,239.6277143848741,
red_neutral,0,k,middle,red,0,,,,,,,,,6,1,37,4,,,,,,,214.02756190000036,None,,,,,,,,,,,,215.07453840000016,None,k,1,0.46791659999962576,215.07453840000016,None,,,,,5,001,2022_Aug_07_1739,Version4,2021.2.0,239.6277143848741,
blue_neutral,0,a,middle,blue,0,,,,,,,,,6,2,38,5,,,,,,,215.55843840000034,None,,,,,,,,,,,,216.7179197000005,None,a,1,0.336699000000408,216.7179197000005,None,,,,,5,001,2022_Aug_07_1739,Version4,2021.2.0,239.6277143848741,
red_congruent,1,k,right,red,0.6,,,,,,,,,6,3,39,1,,,,,,,217.06826230000024,None,,,,,,,,,,,,218.1152630000006,None,k,1,0.4116914000005636,218.1152630000006,None,,,,,5,001,2022_Aug_07_1739,Version4,2021.2.0,239.6277143848741,
red_neutral,0,k,middle,red,0,,,,,,,,,6,4,40,4,,,,,,,218.5406550000007,None,,,,,,,,,,,,219.68364330000077,None,k,1,0.403535099999317,219.68364330000077,None,,,,,5,001,2022_Aug_07_1739,Version4,2021.2.0,239.6277143848741,
blue_congruent,1,a,left,blue,-0.6,,,,,,,,,6,5,41,0,,,,,,,220.10493760000008,None,,,,,,,,,,,,221.21019500000057,None,a,1,0.5331939000006969,221.21019500000057,None,,,,,5,001,2022_Aug_07_1739,Version4,2021.2.0,239.6277143848741,
red_incongruent,0,k,left,red,-0.6,,,,,,,,,7,0,42,3,,,,,,,221.7607613,None,,,,,,,,,,,,222.94537970000056,None,k,1,0.4702751000004355,222.94537970000056,None,,,,,5,001,2022_Aug_07_1739,Version4,2021.2.0,239.6277143848741,
blue_incongruent,0,a,right,blue,0.6,,,,,,,,,7,1,43,2,,,,,,,223.43335110000044,None,,,,,,,,,,,,224.52190969999992,None,a,1,0.47776799999974173,224.52190969999992,None,,,,,5,001,2022_Aug_07_1739,Version4,2021.2.0,239.6277143848741,
red_congruent,1,k,right,red,0.6,,,,,,,,,7,2,44,1,,,,,,,225.01427349999994,None,,,,,,,,,,,,226.17793600000005,None,k,1,0.4219606000006024,226.17793600000005,None,,,,,5,001,2022_Aug_07_1739,Version4,2021.2.0,239.6277143848741,
red_congruent,1,k,right,red,0.6,,,,,,,,,7,3,45,1,,,,,,,226.6159035999999,None,,,,,,,,,,,,227.76303370000005,None,k,1,0.35735829999975977,227.76303370000005,None,,,,,5,001,2022_Aug_07_1739,Version4,2021.2.0,239.6277143848741,
blue_congruent,1,a,left,blue,-0.6,,,,,,,,,7,4,46,0,,,,,,,228.1382278000001,None,,,,,,,,,,,,229.1852912000004,None,a,1,0.3831503999999768,229.1852912000004,None,,,,,5,001,2022_Aug_07_1739,Version4,2021.2.0,239.6277143848741,
blue_congruent,1,a,left,blue,-0.6,,,,,,,,,7,5,47,0,,,,,,,229.58573920000072,None,,,,,,,,,,,,230.60767290000058,None,a,1,0.40079940000032366,230.60767290000058,None,,,,,5,001,2022_Aug_07_1739,Version4,2021.2.0,239.6277143848741,
,,,,,,,,,,,,,,,,,,,,,,,,,,,,,,,,,,,,,,,,,,,,space,10.16454320000048,,,5,001,2022_Aug_07_1739,Version4,2021.2.0,239.6277143848741,
blue_congruent,1,a,left,blue,-0.6,,,,,,,,,,,,,0,0,0,0,,,241.21902430000046,None,,,,,,,,,,,,242.3367728000003,None,a,1,0.34540000000015425,242.3367728000003,None,,,,,5,001,2022_Aug_07_1739,Version4,2021.2.0,239.6277143848741,
red_incongruent,0,k,left,red,-0.6,,,,,,,,,,,,,0,1,1,3,,,242.69542060000003,None,,,,,,,,,,,,243.73409450000054,None,k,1,0.3801445999997668,243.73409450000054,None,,,,,5,001,2022_Aug_07_1739,Version4,2021.2.0,239.6277143848741,
blue_neutral,0,a,middle,blue,0,,,,,,,,,,,,,0,2,2,5,,,244.12611300000026,None,,,,,,,,,,,,245.1939779000004,None,a,1,0.35277080000014394,245.1939779000004,None,,,,,5,001,2022_Aug_07_1739,Version4,2021.2.0,239.6277143848741,
blue_incongruent,0,a,right,blue,0.6,,,,,,,,,,,,,0,3,3,2,,,245.56511750000027,None,,,,,,,,,,,,246.64970020000055,None,a,1,0.44106270000065706,246.64970020000055,None,,,,,5,001,2022_Aug_07_1739,Version4,2021.2.0,239.6277143848741,
blue_incongruent,0,a,right,blue,0.6,,,,,,,,,,,,,0,4,4,2,,,247.10842159999993,None,,,,,,,,,,,,248.19706230000065,None,a,1,0.3580038999998578,248.19706230000065,None,,,,,5,001,2022_Aug_07_1739,Version4,2021.2.0,239.6277143848741,
blue_neutral,0,a,middle,blue,0,,,,,,,,,,,,,0,5,5,5,,,248.572502,None,,,,,,,,,,,,249.68615339999997,None,a,1,0.3648737000003166,249.68615339999997,None,,,,,5,001,2022_Aug_07_1739,Version4,2021.2.0,239.6277143848741,
red_congruent,1,k,right,red,0.6,,,,,,,,,,,,,1,0,6,1,,,250.0697568000005,None,,,,,,,,,,,,251.1210000000001,None,k,1,0.3701976000002105,251.1210000000001,None,,,,,5,001,2022_Aug_07_1739,Version4,2021.2.0,239.6277143848741,
blue_congruent,1,a,left,blue,-0.6,,,,,,,,,,,,,1,1,7,0,,,251.50471259999995,None,,,,,,,,,,,,252.5265997000006,None,a,1,0.3807979000002888,252.5265997000006,None,,,,,5,001,2022_Aug_07_1739,Version4,2021.2.0,239.6277143848741,
red_congruent,1,k,right,red,0.6,,,,,,,,,,,,,1,2,8,1,,,252.92290279999997,None,,,,,,,,,,,,254.02823970000009,None,k,1,0.39950820000012754,254.02823970000009,None,,,,,5,001,2022_Aug_07_1739,Version4,2021.2.0,239.6277143848741,
blue_congruent,1,a,left,blue,-0.6,,,,,,,,,,,,,1,3,9,0,,,254.4454450000003,None,,,,,,,,,,,,255.57153240000025,None,a,1,0.5124144999999771,255.57153240000025,None,,,,,5,001,2022_Aug_07_1739,Version4,2021.2.0,239.6277143848741,
red_neutral,0,k,middle,red,0,,,,,,,,,,,,,1,4,10,4,,,256.0972389000008,None,,,,,,,,,,,,257.25247430000036,None,k,1,0.48757580000074086,257.25247430000036,None,,,,,5,001,2022_Aug_07_1739,Version4,2021.2.0,239.6277143848741,
red_incongruent,0,k,left,red,-0.6,,,,,,,,,,,,,1,5,11,3,,,257.74872660000074,None,,,,,,,,,,,,258.8249803000008,None,k,1,0.3872488999995767,258.8249803000008,None,,,,,5,001,2022_Aug_07_1739,Version4,2021.2.0,239.6277143848741,
red_incongruent,0,k,left,red,-0.6,,,,,,,,,,,,,2,0,12,3,,,259.2254117000002,None,,,,,,,,,,,,260.3223848000007,None,k,1,0.32201679999980115,260.3223848000007,None,,,,,5,001,2022_Aug_07_1739,Version4,2021.2.0,239.6277143848741,
blue_incongruent,0,a,right,blue,0.6,,,,,,,,,,,,,2,1,13,2,,,260.6560919000003,None,,,,,,,,,,,,261.7697115000001,None,a,1,0.33089530000052036,261.7697115000001,None,,,,,5,001,2022_Aug_07_1739,Version4,2021.2.0,239.6277143848741,
red_congruent,1,k,right,red,0.6,,,,,,,,,,,,,2,2,14,1,,,262.1201587000005,None,,,,,,,,,,,,263.1795895000005,None,a,0,0.3612298000007286,263.1795895000005,None,,,,,5,001,2022_Aug_07_1739,Version4,2021.2.0,239.6277143848741,
red_neutral,0,k,middle,red,0,,,,,,,,,,,,,2,3,15,4,,,263.55497990000003,None,,,,,,,,,,,,264.58531720000065,None,k,1,0.5080134999998336,264.58531720000065,None,,,,,5,001,2022_Aug_07_1739,Version4,2021.2.0,239.6277143848741,
red_congruent,1,k,right,red,0.6,,,,,,,,,,,,,2,4,16,1,,,265.1108885000003,None,,,,,,,,,,,,266.12022830000024,None,k,1,0.38098290000016277,266.12022830000024,None,,,,,5,001,2022_Aug_07_1739,Version4,2021.2.0,239.6277143848741,
red_congruent,1,k,right,red,0.6,,,,,,,,,,,,,2,5,17,1,,,266.51238900000044,None,,,,,,,,,,,,267.55093430000034,None,k,1,0.3344658999994863,267.55093430000034,None,,,,,5,001,2022_Aug_07_1739,Version4,2021.2.0,239.6277143848741,
red_neutral,0,k,middle,red,0,,,,,,,,,,,,,3,0,18,4,,,267.90127070000017,None,,,,,,,,,,,,269.01502860000073,None,k,1,0.3105797000007442,269.01502860000073,None,,,,,5,001,2022_Aug_07_1739,Version4,2021.2.0,239.6277143848741,
blue_incongruent,0,a,right,blue,0.6,,,,,,,,,,,,,3,1,19,2,,,269.3445102000005,None,,,,,,,,,,,,270.54162220000035,None,a,1,0.3368429999991349,270.54162220000035,None,,,,,5,001,2022_Aug_07_1739,Version4,2021.2.0,239.6277143848741,
red_congruent,1,k,right,red,0.6,,,,,,,,,,,,,3,2,20,1,,,270.8919769000004,None,,,,,,,,,,,,272.0681632000005,None,k,1,0.34582570000020496,272.0681632000005,None,,,,,5,001,2022_Aug_07_1739,Version4,2021.2.0,239.6277143848741,
blue_neutral,0,a,middle,blue,0,,,,,,,,,,,,,3,3,21,5,,,272.4268944000005,None,,,,,,,,,,,,273.5613032000001,None,a,1,0.3330441999996765,273.5613032000001,None,,,,,5,001,2022_Aug_07_1739,Version4,2021.2.0,239.6277143848741,
red_neutral,0,k,middle,red,0,,,,,,,,,,,,,3,4,22,4,,,273.91177960000005,None,,,,,,,,,,,,274.93794160000016,None,k,1,0.3486855999999534,274.93794160000016,None,,,,,5,001,2022_Aug_07_1739,Version4,2021.2.0,239.6277143848741,
blue_neutral,0,a,middle,blue,0,,,,,,,,,,,,,3,5,23,5,,,275.30077359999996,None,,,,,,,,,,,,276.3225486000001,None,a,1,0.39603099999931146,276.3225486000001,None,,,,,5,001,2022_Aug_07_1739,Version4,2021.2.0,239.6277143848741,
red_incongruent,0,k,left,red,-0.6,,,,,,,,,,,,,4,0,24,3,,,276.7355684000004,None,,,,,,,,,,,,277.8741968000004,None,k,1,0.5007387999994535,277.8741968000004,None,,,,,5,001,2022_Aug_07_1739,Version4,2021.2.0,239.6277143848741,
red_incongruent,0,k,left,red,-0.6,,,,,,,,,,,,,4,1,25,3,,,278.3874616000003,None,,,,,,,,,,,,279.5217513000007,None,k,1,0.36554489999980433,279.5217513000007,None,,,,,5,001,2022_Aug_07_1739,Version4,2021.2.0,239.6277143848741,
blue_incongruent,0,a,right,blue,0.6,,,,,,,,,,,,,4,2,26,2,,,279.90549439999995,None,,,,,,,,,,,,280.96090750000076,None,a,1,0.3824267999998483,280.96090750000076,None,,,,,5,001,2022_Aug_07_1739,Version4,2021.2.0,239.6277143848741,
blue_congruent,1,a,left,blue,-0.6,,,,,,,,,,,,,4,3,27,0,,,281.3614961000003,None,,,,,,,,,,,,282.40837160000046,None,a,1,0.41500779999933,282.40837160000046,None,,,,,5,001,2022_Aug_07_1739,Version4,2021.2.0,239.6277143848741,
blue_neutral,0,a,middle,blue,0,,,,,,,,,,,,,4,4,28,5,,,282.8420861000004,None,,,,,,,,,,,,283.8933517000005,None,a,1,0.3623578999995516,283.8933517000005,None,,,,,5,001,2022_Aug_07_1739,Version4,2021.2.0,239.6277143848741,
red_incongruent,0,k,left,red,-0.6,,,,,,,,,,,,,4,5,29,3,,,284.26856430000043,None,,,,,,,,,,,,285.4489295000003,None,k,1,0.446831100000054,285.4489295000003,None,,,,,5,001,2022_Aug_07_1739,Version4,2021.2.0,239.6277143848741,
blue_neutral,0,a,middle,blue,0,,,,,,,,,,,,,5,0,30,5,,,285.9078614,None,,,,,,,,,,,,287.08831850000024,None,a,1,0.7280908000002455,287.08831850000024,None,,,,,5,001,2022_Aug_07_1739,Version4,2021.2.0,239.6277143848741,
red_neutral,0,k,middle,red,0,,,,,,,,,,,,,5,1,31,4,,,287.8305954000007,None,,,,,,,,,,,,289.03619120000076,None,k,1,0.38807249999990745,289.03619120000076,None,,,,,5,001,2022_Aug_07_1739,Version4,2021.2.0,239.6277143848741,
red_congruent,1,k,right,red,0.6,,,,,,,,,,,,,5,2,32,1,,,289.4366338,None,,,,,,,,,,,,290.5669142000006,None,k,1,0.5215900000002875,290.5669142000006,None,,,,,5,001,2022_Aug_07_1739,Version4,2021.2.0,239.6277143848741,
red_incongruent,0,k,left,red,-0.6,,,,,,,,,,,,,5,3,33,3,,,291.10085010000057,None,,,,,,,,,,,,292.2226580000006,None,k,1,0.3460036999995282,292.2226580000006,None,,,,,5,001,2022_Aug_07_1739,Version4,2021.2.0,239.6277143848741,
blue_congruent,1,a,left,blue,-0.6,,,,,,,,,,,,,5,4,34,0,,,292.5815702,None,,,,,,,,,,,,293.6368210999999,None,a,1,0.3241957000000184,293.6368210999999,None,,,,,5,001,2022_Aug_07_1739,Version4,2021.2.0,239.6277143848741,
red_incongruent,0,k,left,red,-0.6,,,,,,,,,,,,,5,5,35,3,,,293.9790518,None,,,,,,,,,,,,295.0884353000001,None,k,1,0.4006211000005351,295.0884353000001,None,,,,,5,001,2022_Aug_07_1739,Version4,2021.2.0,239.6277143848741,
blue_incongruent,0,a,right,blue,0.6,,,,,,,,,,,,,6,0,36,2,,,295.5054704000004,None,,,,,,,,,,,,296.66512740000053,None,a,1,0.4243326999994679,296.66512740000053,None,,,,,5,001,2022_Aug_07_1739,Version4,2021.2.0,239.6277143848741,
blue_incongruent,0,a,right,blue,0.6,,,,,,,,,,,,,6,1,37,2,,,297.10715849999997,None,,,,,,,,,,,,298.3084379000002,None,a,1,0.41305300000021816,298.3084379000002,None,,,,,5,001,2022_Aug_07_1739,Version4,2021.2.0,239.6277143848741,
blue_neutral,0,a,middle,blue,0,,,,,,,,,,,,,6,2,38,5,,,298.73387810000077,None,,,,,,,,,,,,299.9352340000005,None,a,1,0.5225227999999333,299.9352340000005,None,,,,,5,001,2022_Aug_07_1739,Version4,2021.2.0,239.6277143848741,
blue_congruent,1,a,left,blue,-0.6,,,,,,,,,,,,,6,3,39,0,,,300.46904710000035,None,,,,,,,,,,,,301.5369227000001,None,a,1,0.40916809999998804,301.5369227000001,None,,,,,5,001,2022_Aug_07_1739,Version4,2021.2.0,239.6277143848741,
blue_congruent,1,a,left,blue,-0.6,,,,,,,,,,,,,6,4,40,0,,,301.9623087,None,,,,,,,,,,,,303.0467726000006,None,a,1,0.37139729999944393,303.0467726000006,None,,,,,5,001,2022_Aug_07_1739,Version4,2021.2.0,239.6277143848741,
blue_incongruent,0,a,right,blue,0.6,,,,,,,,,,,,,6,5,41,2,,,303.43050910000056,None,,,,,,,,,,,,304.5109396000007,None,a,1,0.4433914999999615,304.5109396000007,None,,,,,5,001,2022_Aug_07_1739,Version4,2021.2.0,239.6277143848741,
red_congruent,1,k,right,red,0.6,,,,,,,,,,,,,7,0,42,1,,,304.97391100000004,None,,,,,,,,,,,,306.10417899999993,None,k,1,0.4343645999997534,306.10417899999993,None,,,,,5,001,2022_Aug_07_1739,Version4,2021.2.0,239.6277143848741,
blue_congruent,1,a,left,blue,-0.6,,,,,,,,,,,,,7,1,43,0,,,306.55048440000064,None,,,,,,,,,,,,307.61830630000077,None,a,1,0.4484486999999717,307.61830630000077,None,,,,,5,001,2022_Aug_07_1739,Version4,2021.2.0,239.6277143848741,
red_neutral,0,k,middle,red,0,,,,,,,,,,,,,7,2,44,4,,,308.08546730000035,None,,,,,,,,,,,,309.3576311000006,None,k,1,0.4053360999996585,309.3576311000006,None,,,,,5,001,2022_Aug_07_1739,Version4,2021.2.0,239.6277143848741,
blue_neutral,0,a,middle,blue,0,,,,,,,,,,,,,7,3,45,5,,,309.7705433000001,None,,,,,,,,,,,,310.8718080000008,None,a,1,0.3235144999998738,310.8718080000008,None,,,,,5,001,2022_Aug_07_1739,Version4,2021.2.0,239.6277143848741,
red_neutral,0,k,middle,red,0,,,,,,,,,,,,,7,4,46,4,,,311.21377720000055,None,,,,,,,,,,,,312.34421010000005,None,k,1,0.3072892000000138,312.34421010000005,None,,,,,5,001,2022_Aug_07_1739,Version4,2021.2.0,239.6277143848741,
red_neutral,0,k,middle,red,0,,,,,,,,,,,,,7,5,47,4,,,312.66946989999997,None,,,,,,,,,,,,313.77070060000005,None,k,1,0.2888486000001649,313.77070060000005,None,,,,,5,001,2022_Aug_07_1739,Version4,2021.2.0,239.6277143848741,
,,,,,,,,,,,,,,,,,,,,,,,,,,,,,,,,,,,,,,,,,,,,space,4.756899899999553,,,5,001,2022_Aug_07_1739,Version4,2021.2.0,239.6277143848741,
,,,,,,,,,,,,,,,,,,,,,,,,,,,,,,,,,,,,,,,,,,,,,,space,9.65032119999978,5,001,2022_Aug_07_1739,Version4,2021.2.0,239.6277143848741,
