images,congruentcy,corrAns,box_pos,box_color,box_x,pract.thisRepN,pract.thisTrialN,pract.thisN,pract.thisIndex,trials.thisRepN,trials.thisTrialN,trials.thisN,trials.thisIndex,trials_2.thisRepN,trials_2.thisTrialN,trials_2.thisN,trials_2.thisIndex,trials_3.thisRepN,trials_3.thisTrialN,trials_3.thisN,trials_3.thisIndex,key_resp_instr.keys,key_resp_instr.rt,FixCross.started,FixCross.stopped,Box_p.started,Box_p.stopped,key_resp_P.keys,key_resp_P.corr,key_resp_P.rt,key_resp_P.started,key_resp_P.stopped,text_3.started,text_3.stopped,key_resp_2.keys,key_resp_2.rt,Box.started,Box.stopped,key_resp.keys,key_resp.corr,key_resp.rt,key_resp.started,key_resp.stopped,key_resp_3.keys,key_resp_3.rt,key_resp_4.keys,key_resp_4.rt,participant,session,date,expName,psychopyVersion,frameRate,
,,,,,,,,,,,,,,,,,,,,,,space,7.903076099999453,,,,,,,,,,,,,,,,,,,,,,,,,7,001,2022_Sep_29_1244,Version4,2021.2.0,240.7666008573842,
red_incongruent,0,k,left,red,-0.6,0,0,0,3,,,,,,,,,,,,,,,21.358308599999873,None,22.40106190000006,None,k,1,0.8775772000008146,22.40106190000006,None,,,,,,,,,,,,,,,,7,001,2022_Sep_29_1244,Version4,2021.2.0,240.7666008573842,
blue_neutral,0,a,middle,blue,0,0,1,1,5,,,,,,,,,,,,,,,24.299275299999863,None,25.350181099998736,None,a,1,0.40073669999947015,25.350181099998736,None,,,,,,,,,,,,,,,,7,001,2022_Sep_29_1244,Version4,2021.2.0,240.7666008573842,
red_neutral,0,k,middle,red,0,0,2,2,4,,,,,,,,,,,,,,,26.768357499999183,None,27.907052499998827,None,k,1,0.4926030999995419,27.907052499998827,None,,,,,,,,,,,,,,,,7,001,2022_Sep_29_1244,Version4,2021.2.0,240.7666008573842,
blue_neutral,0,a,middle,blue,0,0,3,3,5,,,,,,,,,,,,,,,29.416717000000062,None,30.46810419999929,None,a,1,0.3958543999997346,30.46810419999929,None,,,,,,,,,,,,,,,,7,001,2022_Sep_29_1244,Version4,2021.2.0,240.7666008573842,
blue_neutral,0,a,middle,blue,0,0,4,4,5,,,,,,,,,,,,,,,31.877950500000225,None,32.933295999999245,None,a,1,0.42708940000011353,32.933295999999245,None,,,,,,,,,,,,,,,,7,001,2022_Sep_29_1244,Version4,2021.2.0,240.7666008573842,
red_congruent,1,k,right,red,0.6,0,5,5,1,,,,,,,,,,,,,,,34.37628769999901,None,35.439771699999255,None,k,1,0.5045724000010523,35.439771699999255,None,,,,,,,,,,,,,,,,7,001,2022_Sep_29_1244,Version4,2021.2.0,240.7666008573842,
red_neutral,0,k,middle,red,0,1,0,6,4,,,,,,,,,,,,,,,36.95819920000031,None,38.126286400000026,None,a,0,0.4263848999999027,38.126286400000026,None,,,,,,,,,,,,,,,,7,001,2022_Sep_29_1244,Version4,2021.2.0,240.7666008573842,
blue_incongruent,0,a,right,blue,0.6,1,1,7,2,,,,,,,,,,,,,,,39.56937409999955,None,40.6540057000002,None,a,1,0.739023799998904,40.6540057000002,None,,,,,,,,,,,,,,,,7,001,2022_Sep_29_1244,Version4,2021.2.0,240.7666008573842,
blue_incongruent,0,a,right,blue,0.6,1,2,8,2,,,,,,,,,,,,,,,42.40548750000016,None,43.44406019999951,None,a,1,0.8533989999996265,43.44406019999951,None,,,,,,,,,,,,,,,,7,001,2022_Sep_29_1244,Version4,2021.2.0,240.7666008573842,
red_incongruent,0,k,left,red,-0.6,1,3,9,3,,,,,,,,,,,,,,,45.316883499999676,None,46.39301919999889,None,k,1,0.5767799999994168,46.39301919999889,None,,,,,,,,,,,,,,,,7,001,2022_Sep_29_1244,Version4,2021.2.0,240.7666008573842,
red_neutral,0,k,middle,red,0,1,4,10,4,,,,,,,,,,,,,,,47.98639100000037,None,49.091706299999714,None,k,1,0.4944443999993382,49.091706299999714,None,,,,,,,,,,,,,,,,7,001,2022_Sep_29_1244,Version4,2021.2.0,240.7666008573842,
blue_incongruent,0,a,right,blue,0.6,1,5,11,2,,,,,,,,,,,,,,,50.60610149999957,None,51.63197179999952,None,a,1,0.5945192999988649,51.63197179999952,None,,,,,,,,,,,,,,,,7,001,2022_Sep_29_1244,Version4,2021.2.0,240.7666008573842,
blue_congruent,1,a,left,blue,-0.6,2,0,12,0,,,,,,,,,,,,,,,53.25028609999936,None,54.37231099999917,None,a,1,0.5665907999991759,54.37231099999917,None,,,,,,,,,,,,,,,,7,001,2022_Sep_29_1244,Version4,2021.2.0,240.7666008573842,
blue_congruent,1,a,left,blue,-0.6,2,1,13,0,,,,,,,,,,,,,,,55.9576206999991,None,57.05013599999984,None,a,1,0.6010504999994737,57.05013599999984,None,,,,,,,,,,,,,,,,7,001,2022_Sep_29_1244,Version4,2021.2.0,240.7666008573842,
red_congruent,1,k,right,red,0.6,2,2,14,1,,,,,,,,,,,,,,,58.668519099999685,None,59.761357399998815,None,k,1,0.6584841000003507,59.761357399998815,None,,,,,,,,,,,,,,,,7,001,2022_Sep_29_1244,Version4,2021.2.0,240.7666008573842,
blue_congruent,1,a,left,blue,-0.6,2,3,15,0,,,,,,,,,,,,,,,61.4381314000002,None,62.48923789999935,None,a,1,0.5066944000009244,62.48923789999935,None,,,,,,,,,,,,,,,,7,001,2022_Sep_29_1244,Version4,2021.2.0,240.7666008573842,
red_congruent,1,k,right,red,0.6,2,4,16,1,,,,,,,,,,,,,,,64.01584699999876,None,65.0502693999988,None,k,1,0.5780412999993132,65.0502693999988,None,,,,,,,,,,,,,,,,7,001,2022_Sep_29_1244,Version4,2021.2.0,240.7666008573842,
blue_congruent,1,a,left,blue,-0.6,2,5,17,0,,,,,,,,,,,,,,,66.64396820000002,None,67.7618055999992,None,a,1,0.5709347000010894,67.7618055999992,None,,,,,,,,,,,,,,,,7,001,2022_Sep_29_1244,Version4,2021.2.0,240.7666008573842,
blue_neutral,0,a,middle,blue,0,3,0,18,5,,,,,,,,,,,,,,,69.34678329999952,None,70.53133489999891,None,a,1,0.6501208999998198,70.53133489999891,None,,,,,,,,,,,,,,,,7,001,2022_Sep_29_1244,Version4,2021.2.0,240.7666008573842,
red_congruent,1,k,right,red,0.6,3,1,19,1,,,,,,,,,,,,,,,72.20398439999917,None,73.30483900000036,None,k,1,0.6448630000013509,73.30483900000036,None,,,,,,,,,,,,,,,,7,001,2022_Sep_29_1244,Version4,2021.2.0,240.7666008573842,
red_neutral,0,k,middle,red,0,3,2,20,4,,,,,,,,,,,,,,,74.96946500000013,None,76.12066939999931,None,k,1,0.5730984000001627,76.12066939999931,None,,,,,,,,,,,,,,,,7,001,2022_Sep_29_1244,Version4,2021.2.0,240.7666008573842,
red_incongruent,0,k,left,red,-0.6,3,3,21,3,,,,,,,,,,,,,,,77.71396119999918,None,78.75270040000032,None,k,1,0.7257597999996506,78.75270040000032,None,,,,,,,,,,,,,,,,7,001,2022_Sep_29_1244,Version4,2021.2.0,240.7666008573842,
blue_incongruent,0,a,right,blue,0.6,3,4,22,2,,,,,,,,,,,,,,,80.4999614999997,None,81.5594216999998,None,a,1,0.5350806000005832,81.5594216999998,None,,,,,,,,,,,,,,,,7,001,2022_Sep_29_1244,Version4,2021.2.0,240.7666008573842,
red_incongruent,0,k,left,red,-0.6,3,5,23,3,,,,,,,,,,,,,,,83.11550720000014,None,84.17925219999961,None,k,1,0.7236262999995233,84.17925219999961,None,,,,,,,,,,,,,,,,7,001,2022_Sep_29_1244,Version4,2021.2.0,240.7666008573842,
,,,,,,,,,,,,,,,,,,,,,,,,,,,,,,,,,85.93517280000015,None,space,3.1507600999993883,,,,,,,,,,,,7,001,2022_Sep_29_1244,Version4,2021.2.0,240.7666008573842,
blue_incongruent,0,a,right,blue,0.6,,,,,0,0,0,2,,,,,,,,,,,91.09459699999934,None,,,,,,,,,,,,92.2290436000003,None,a,1,0.5148686000011367,92.2290436000003,None,,,,,7,001,2022_Sep_29_1244,Version4,2021.2.0,240.7666008573842,
red_incongruent,0,k,left,red,-0.6,,,,,0,1,1,3,,,,,,,,,,,92.76295190000019,None,,,,,,,,,,,,93.88088929999867,None,k,1,0.6075888999985182,93.88088929999867,None,,,,,7,001,2022_Sep_29_1244,Version4,2021.2.0,240.7666008573842,
blue_neutral,0,a,middle,blue,0,,,,,0,2,2,5,,,,,,,,,,,94.50648539999929,None,,,,,,,,,,,,95.62874539999939,None,a,1,0.5716467999991437,95.62874539999939,None,,,,,7,001,2022_Sep_29_1244,Version4,2021.2.0,240.7666008573842,
blue_incongruent,0,a,right,blue,0.6,,,,,0,3,3,2,,,,,,,,,,,96.21687679999923,None,,,,,,,,,,,,97.26364879999892,None,a,1,0.8809775000008813,97.26364879999892,None,,,,,7,001,2022_Sep_29_1244,Version4,2021.2.0,240.7666008573842,
blue_congruent,1,a,left,blue,-0.6,,,,,0,4,4,0,,,,,,,,,,,98.15616319999936,None,,,,,,,,,,,,99.26990990000013,None,a,1,0.4669582000005903,99.26990990000013,None,,,,,7,001,2022_Sep_29_1244,Version4,2021.2.0,240.7666008573842,
red_congruent,1,k,right,red,0.6,,,,,0,5,5,1,,,,,,,,,,,99.754030099999,None,,,,,,,,,,,,100.94662160000007,None,k,1,0.4544502000007924,100.94662160000007,None,,,,,7,001,2022_Sep_29_1244,Version4,2021.2.0,240.7666008573842,
red_incongruent,0,k,left,red,-0.6,,,,,1,0,6,3,,,,,,,,,,,101.41803169999912,None,,,,,,,,,,,,102.6067151999996,None,k,1,0.4908391000008123,102.6067151999996,None,,,,,7,001,2022_Sep_29_1244,Version4,2021.2.0,240.7666008573842,
red_congruent,1,k,right,red,0.6,,,,,1,1,7,1,,,,,,,,,,,103.11581549999937,None,,,,,,,,,,,,104.28806579999946,None,k,1,0.4974609999990207,104.28806579999946,None,,,,,7,001,2022_Sep_29_1244,Version4,2021.2.0,240.7666008573842,
red_incongruent,0,k,left,red,-0.6,,,,,1,2,8,3,,,,,,,,,,,104.79668709999896,None,,,,,,,,,,,,105.93940509999993,None,k,1,0.5103854999997566,105.93940509999993,None,,,,,7,001,2022_Sep_29_1244,Version4,2021.2.0,240.7666008573842,
blue_neutral,0,a,middle,blue,0,,,,,1,3,9,5,,,,,,,,,,,106.4649601000001,None,,,,,,,,,,,,107.58281329999954,None,a,1,0.5231559999992896,107.58281329999954,None,,,,,7,001,2022_Sep_29_1244,Version4,2021.2.0,240.7666008573842,
blue_congruent,1,a,left,blue,-0.6,,,,,1,4,10,0,,,,,,,,,,,108.12063109999872,None,,,,,,,,,,,,109.20953009999903,None,a,1,0.5289410999994288,109.20953009999903,None,,,,,7,001,2022_Sep_29_1244,Version4,2021.2.0,240.7666008573842,
blue_neutral,0,a,middle,blue,0,,,,,1,5,11,5,,,,,,,,,,,109.75631069999872,None,,,,,,,,,,,,110.87795659999938,None,a,1,0.5005030000011175,110.87795659999938,None,,,,,7,001,2022_Sep_29_1244,Version4,2021.2.0,240.7666008573842,
blue_neutral,0,a,middle,blue,0,,,,,2,0,12,5,,,,,,,,,,,111.39145209999879,None,,,,,,,,,,,,112.52163549999932,None,a,1,0.4653053000001819,112.52163549999932,None,,,,,7,001,2022_Sep_29_1244,Version4,2021.2.0,240.7666008573842,
blue_congruent,1,a,left,blue,-0.6,,,,,2,1,13,0,,,,,,,,,,,113.00549949999913,None,,,,,,,,,,,,114.13974069999858,None,a,1,0.551082400001178,114.13974069999858,None,,,,,7,001,2022_Sep_29_1244,Version4,2021.2.0,240.7666008573842,
blue_congruent,1,a,left,blue,-0.6,,,,,2,2,14,0,,,,,,,,,,,114.70285329999933,None,,,,,,,,,,,,115.74560539999948,None,a,1,0.5854803000001993,115.74560539999948,None,,,,,7,001,2022_Sep_29_1244,Version4,2021.2.0,240.7666008573842,
blue_congruent,1,a,left,blue,-0.6,,,,,2,3,15,0,,,,,,,,,,,116.34655249999923,None,,,,,,,,,,,,117.4641075999989,None,a,1,0.5231830000011541,117.4641075999989,None,,,,,7,001,2022_Sep_29_1244,Version4,2021.2.0,240.7666008573842,
red_neutral,0,k,middle,red,0,,,,,2,4,16,4,,,,,,,,,,,118.00635409999995,None,,,,,,,,,,,,119.13704510000025,None,k,1,0.5464907999994466,119.13704510000025,None,,,,,7,001,2022_Sep_29_1244,Version4,2021.2.0,240.7666008573842,
blue_incongruent,0,a,right,blue,0.6,,,,,2,5,17,2,,,,,,,,,,,119.70008979999875,None,,,,,,,,,,,,120.77179479999904,None,a,1,0.503962999999203,120.77179479999904,None,,,,,7,001,2022_Sep_29_1244,Version4,2021.2.0,240.7666008573842,
red_neutral,0,k,middle,red,0,,,,,3,0,18,4,,,,,,,,,,,121.28434959999868,None,,,,,,,,,,,,122.4612519000002,None,k,1,0.5107397000010678,122.4612519000002,None,,,,,7,001,2022_Sep_29_1244,Version4,2021.2.0,240.7666008573842,
blue_neutral,0,a,middle,blue,0,,,,,3,1,19,5,,,,,,,,,,,122.98662039999908,None,,,,,,,,,,,,124.0877705999992,None,a,1,0.5086833000004845,124.0877705999992,None,,,,,7,001,2022_Sep_29_1244,Version4,2021.2.0,240.7666008573842,
blue_congruent,1,a,left,blue,-0.6,,,,,3,2,20,0,,,,,,,,,,,124.61360069999864,None,,,,,,,,,,,,125.73146780000025,None,a,1,0.5609923999982129,125.73146780000025,None,,,,,7,001,2022_Sep_29_1244,Version4,2021.2.0,240.7666008573842,
blue_incongruent,0,a,right,blue,0.6,,,,,3,3,21,2,,,,,,,,,,,126.30687079999916,None,,,,,,,,,,,,127.3665234,None,a,1,0.5345030999997107,127.3665234,None,,,,,7,001,2022_Sep_29_1244,Version4,2021.2.0,240.7666008573842,
red_neutral,0,k,middle,red,0,,,,,3,4,22,4,,,,,,,,,,,127.91712879999977,None,,,,,,,,,,,,128.99332709999908,None,k,1,0.5078310000008059,128.99332709999908,None,,,,,7,001,2022_Sep_29_1244,Version4,2021.2.0,240.7666008573842,
blue_incongruent,0,a,right,blue,0.6,,,,,3,5,23,2,,,,,,,,,,,129.51881119999962,None,,,,,,,,,,,,130.6199471,None,a,1,0.705116300001464,130.6199471,None,,,,,7,001,2022_Sep_29_1244,Version4,2021.2.0,240.7666008573842,
red_congruent,1,k,right,red,0.6,,,,,4,0,24,1,,,,,,,,,,,131.33327499999905,None,,,,,,,,,,,,132.35095569999976,None,k,1,0.6706993999996484,132.35095569999976,None,,,,,7,001,2022_Sep_29_1244,Version4,2021.2.0,240.7666008573842,
red_congruent,1,k,right,red,0.6,,,,,4,1,25,1,,,,,,,,,,,133.03928730000007,None,,,,,,,,,,,,134.11506269999882,None,k,1,1.082855800001198,134.11506269999882,None,,,,,7,001,2022_Sep_29_1244,Version4,2021.2.0,240.7666008573842,
blue_incongruent,0,a,right,blue,0.6,,,,,4,2,26,2,,,,,,,,,,,135.21622339999885,None,,,,,,,,,,,,136.3132160999994,None,a,1,0.6686412999988534,136.3132160999994,None,,,,,7,001,2022_Sep_29_1244,Version4,2021.2.0,240.7666008573842,
red_congruent,1,k,right,red,0.6,,,,,4,3,27,1,,,,,,,,,,,136.99765939999997,None,,,,,,,,,,,,138.10284879999926,None,k,1,0.6471975999993447,138.10284879999926,None,,,,,7,001,2022_Sep_29_1244,Version4,2021.2.0,240.7666008573842,
red_incongruent,0,k,left,red,-0.6,,,,,4,4,28,3,,,,,,,,,,,138.76164029999927,None,,,,,,,,,,,,139.99629339999956,None,k,1,0.6100440999998682,139.99629339999956,None,,,,,7,001,2022_Sep_29_1244,Version4,2021.2.0,240.7666008573842,
red_incongruent,0,k,left,red,-0.6,,,,,4,5,29,3,,,,,,,,,,,140.6219584999999,None,,,,,,,,,,,,141.74826249999933,None,k,1,0.5383055000002059,141.74826249999933,None,,,,,7,001,2022_Sep_29_1244,Version4,2021.2.0,240.7666008573842,
blue_neutral,0,a,middle,blue,0,,,,,5,0,30,5,,,,,,,,,,,142.2988408000001,None,,,,,,,,,,,,143.34149109999998,None,a,1,0.4812995000011142,143.34149109999998,None,,,,,7,001,2022_Sep_29_1244,Version4,2021.2.0,240.7666008573842,
red_congruent,1,k,right,red,0.6,,,,,5,1,31,1,,,,,,,,,,,143.83786259999943,None,,,,,,,,,,,,145.05588539999917,None,k,1,0.6071345000000292,145.05588539999917,None,,,,,7,001,2022_Sep_29_1244,Version4,2021.2.0,240.7666008573842,
red_congruent,1,k,right,red,0.6,,,,,5,2,32,1,,,,,,,,,,,145.6775835999997,None,,,,,,,,,,,,146.72008119999919,None,k,1,0.6391503999984707,146.72008119999919,None,,,,,7,001,2022_Sep_29_1244,Version4,2021.2.0,240.7666008573842,
red_incongruent,0,k,left,red,-0.6,,,,,5,3,33,3,,,,,,,,,,,147.37076530000013,None,,,,,,,,,,,,148.53450469999916,None,k,1,0.8333416000004945,148.53450469999916,None,,,,,7,001,2022_Sep_29_1244,Version4,2021.2.0,240.7666008573842,
blue_neutral,0,a,middle,blue,0,,,,,5,4,34,5,,,,,,,,,,,149.3856178999995,None,,,,,,,,,,,,150.5491259999999,None,a,1,0.5788845000006404,150.5491259999999,None,,,,,7,001,2022_Sep_29_1244,Version4,2021.2.0,240.7666008573842,
blue_congruent,1,a,left,blue,-0.6,,,,,5,5,35,0,,,,,,,,,,,151.14585590000024,None,,,,,,,,,,,,152.33435499999905,None,a,1,0.6016617999994196,152.33435499999905,None,,,,,7,001,2022_Sep_29_1244,Version4,2021.2.0,240.7666008573842,
red_neutral,0,k,middle,red,0,,,,,6,0,36,4,,,,,,,,,,,152.95167450000008,None,,,,,,,,,,,,153.97775889999866,None,k,1,0.7904869000012695,153.97775889999866,None,,,,,7,001,2022_Sep_29_1244,Version4,2021.2.0,240.7666008573842,
blue_incongruent,0,a,right,blue,0.6,,,,,6,1,37,2,,,,,,,,,,,154.77873179999915,None,,,,,,,,,,,,155.83395539999947,None,a,1,0.6224849000009272,155.83395539999947,None,,,,,7,001,2022_Sep_29_1244,Version4,2021.2.0,240.7666008573842,
red_neutral,0,k,middle,red,0,,,,,6,2,38,4,,,,,,,,,,,156.46809740000026,None,,,,,,,,,,,,157.61493879999944,None,k,1,0.6337699999985489,157.61493879999944,None,,,,,7,001,2022_Sep_29_1244,Version4,2021.2.0,240.7666008573842,
blue_congruent,1,a,left,blue,-0.6,,,,,6,3,39,0,,,,,,,,,,,158.2617887999986,None,,,,,,,,,,,,159.46303859999898,None,a,1,0.5859007999988535,159.46303859999898,None,,,,,7,001,2022_Sep_29_1244,Version4,2021.2.0,240.7666008573842,
blue_neutral,0,a,middle,blue,0,,,,,6,4,40,5,,,,,,,,,,,160.06337679999888,None,,,,,,,,,,,,161.11457719999999,None,a,1,0.6708987000001798,161.11457719999999,None,,,,,7,001,2022_Sep_29_1244,Version4,2021.2.0,240.7666008573842,
red_incongruent,0,k,left,red,-0.6,,,,,6,5,41,3,,,,,,,,,,,161.80270719999862,None,,,,,,,,,,,,162.91647000000012,None,k,1,0.628959899999245,162.91647000000012,None,,,,,7,001,2022_Sep_29_1244,Version4,2021.2.0,240.7666008573842,
red_neutral,0,k,middle,red,0,,,,,7,0,42,4,,,,,,,,,,,163.55462629999965,None,,,,,,,,,,,,164.61403249999967,None,k,1,0.7956508999996004,164.61403249999967,None,,,,,7,001,2022_Sep_29_1244,Version4,2021.2.0,240.7666008573842,
red_incongruent,0,k,left,red,-0.6,,,,,7,1,43,3,,,,,,,,,,,165.4232164999994,None,,,,,,,,,,,,166.60362519999944,None,k,1,0.5744954999991023,166.60362519999944,None,,,,,7,001,2022_Sep_29_1244,Version4,2021.2.0,240.7666008573842,
red_neutral,0,k,middle,red,0,,,,,7,2,44,4,,,,,,,,,,,167.19592329999978,None,,,,,,,,,,,,168.27680750000036,None,k,1,0.4052787000000535,168.27680750000036,None,,,,,7,001,2022_Sep_29_1244,Version4,2021.2.0,240.7666008573842,
red_congruent,1,k,right,red,0.6,,,,,7,3,45,1,,,,,,,,,,,168.69334609999896,None,,,,,,,,,,,,169.81952529999944,None,k,1,0.4711678000003303,169.81952529999944,None,,,,,7,001,2022_Sep_29_1244,Version4,2021.2.0,240.7666008573842,
blue_incongruent,0,a,right,blue,0.6,,,,,7,4,46,2,,,,,,,,,,,170.30780739999864,None,,,,,,,,,,,,171.42155470000034,None,a,1,0.6130140000004758,171.42155470000034,None,,,,,7,001,2022_Sep_29_1244,Version4,2021.2.0,240.7666008573842,
red_neutral,0,k,middle,red,0,,,,,7,5,47,4,,,,,,,,,,,172.04689189999954,None,,,,,,,,,,,,173.16482949999954,None,k,1,0.65396999999939,173.16482949999954,None,,,,,7,001,2022_Sep_29_1244,Version4,2021.2.0,240.7666008573842,
,,,,,,,,,,,,,,,,,,,,,,,,,,,,,,,,,,,,,,,,,,,,space,6.367031200001293,,,7,001,2022_Sep_29_1244,Version4,2021.2.0,240.7666008573842,
blue_neutral,0,a,middle,blue,0,,,,,,,,,0,0,0,5,,,,,,,180.2347293999992,None,,,,,,,,,,,,181.3150362999986,None,a,1,0.4888178000001062,181.3150362999986,None,,,,,7,001,2022_Sep_29_1244,Version4,2021.2.0,240.7666008573842,
red_neutral,0,k,middle,red,0,,,,,,,,,0,1,1,4,,,,,,,181.8201336000002,None,,,,,,,,,,,,182.89170139999987,None,k,1,0.45634400000017195,182.89170139999987,None,,,,,7,001,2022_Sep_29_1244,Version4,2021.2.0,240.7666008573842,
blue_incongruent,0,a,right,blue,0.6,,,,,,,,,0,2,2,2,,,,,,,183.36342309999964,None,,,,,,,,,,,,184.47720639999898,None,a,1,0.607084200000827,184.47720639999898,None,,,,,7,001,2022_Sep_29_1244,Version4,2021.2.0,240.7666008573842,
blue_incongruent,0,a,right,blue,0.6,,,,,,,,,0,3,3,2,,,,,,,185.1026396999987,None,,,,,,,,,,,,186.3161640999988,None,a,1,0.42482079999899724,186.3161640999988,None,,,,,7,001,2022_Sep_29_1244,Version4,2021.2.0,240.7666008573842,
blue_neutral,0,a,middle,blue,0,,,,,,,,,0,4,4,5,,,,,,,186.75428490000013,None,,,,,,,,,,,,187.8973807000002,None,a,1,0.6836719000002631,187.8973807000002,None,,,,,7,001,2022_Sep_29_1244,Version4,2021.2.0,240.7666008573842,
red_incongruent,0,k,left,red,-0.6,,,,,,,,,0,5,5,3,,,,,,,188.5939225000002,None,,,,,,,,,,,,189.63241620000008,None,k,1,0.6365920999996888,189.63241620000008,None,,,,,7,001,2022_Sep_29_1244,Version4,2021.2.0,240.7666008573842,
red_neutral,0,k,middle,red,0,,,,,,,,,1,0,6,4,,,,,,,190.2828516999998,None,,,,,,,,,,,,191.44241469999906,None,k,1,0.45879080000122485,191.44241469999906,None,,,,,7,001,2022_Sep_29_1244,Version4,2021.2.0,240.7666008573842,
blue_neutral,0,a,middle,blue,0,,,,,,,,,1,1,7,5,,,,,,,191.91799139999966,None,,,,,,,,,,,,193.11502499999915,None,a,1,0.55442260000018,193.11502499999915,None,,,,,7,001,2022_Sep_29_1244,Version4,2021.2.0,240.7666008573842,
blue_congruent,1,a,left,blue,-0.6,,,,,,,,,1,2,8,0,,,,,,,193.6825900999993,None,,,,,,,,,,,,194.90894069999922,None,a,1,0.4807495999993989,194.90894069999922,None,,,,,7,001,2022_Sep_29_1244,Version4,2021.2.0,240.7666008573842,
red_incongruent,0,k,left,red,-0.6,,,,,,,,,1,3,9,3,,,,,,,195.40521259999878,None,,,,,,,,,,,,196.46866039999986,None,k,1,0.4812043000001722,196.46866039999986,None,,,,,7,001,2022_Sep_29_1244,Version4,2021.2.0,240.7666008573842,
blue_congruent,1,a,left,blue,-0.6,,,,,,,,,1,4,10,0,,,,,,,196.96950920000018,None,,,,,,,,,,,,198.05800199999976,None,a,1,0.6441161999991891,198.05800199999976,None,,,,,7,001,2022_Sep_29_1244,Version4,2021.2.0,240.7666008573842,
red_incongruent,0,k,left,red,-0.6,,,,,,,,,1,5,11,3,,,,,,,198.717071699999,None,,,,,,,,,,,,199.76374229999965,None,k,1,0.5145752000007633,199.76374229999965,None,,,,,7,001,2022_Sep_29_1244,Version4,2021.2.0,240.7666008573842,
blue_neutral,0,a,middle,blue,0,,,,,,,,,2,0,12,5,,,,,,,200.28963870000007,None,,,,,,,,,,,,201.35709339999994,None,a,1,0.5614588999997068,201.35709339999994,None,,,,,7,001,2022_Sep_29_1244,Version4,2021.2.0,240.7666008573842,
blue_incongruent,0,a,right,blue,0.6,,,,,,,,,2,1,13,2,,,,,,,201.93269249999867,None,,,,,,,,,,,,203.05920359999982,None,a,1,0.483564899999692,203.05920359999982,None,,,,,7,001,2022_Sep_29_1244,Version4,2021.2.0,240.7666008573842,
blue_incongruent,0,a,right,blue,0.6,,,,,,,,,2,2,14,2,,,,,,,203.55532839999978,None,,,,,,,,,,,,204.6398207000002,None,a,1,0.4391128999995999,204.6398207000002,None,,,,,7,001,2022_Sep_29_1244,Version4,2021.2.0,240.7666008573842,
red_congruent,1,k,right,red,0.6,,,,,,,,,2,3,15,1,,,,,,,205.09019669999907,None,,,,,,,,,,,,206.24143209999966,None,k,1,0.46218600000065635,206.24143209999966,None,,,,,7,001,2022_Sep_29_1244,Version4,2021.2.0,240.7666008573842,
blue_congruent,1,a,left,blue,-0.6,,,,,,,,,2,4,16,0,,,,,,,206.72113910000007,None,,,,,,,,,,,,207.83901700000024,None,a,1,0.6404227999992145,207.83901700000024,None,,,,,7,001,2022_Sep_29_1244,Version4,2021.2.0,240.7666008573842,
red_congruent,1,k,right,red,0.6,,,,,,,,,2,5,17,1,,,,,,,208.49381189999986,None,,,,,,,,,,,,209.74930099999983,None,k,1,0.562769299998763,209.74930099999983,None,,,,,7,001,2022_Sep_29_1244,Version4,2021.2.0,240.7666008573842,
blue_congruent,1,a,left,blue,-0.6,,,,,,,,,3,0,18,0,,,,,,,210.3249794000003,None,,,,,,,,,,,,211.52201009999953,None,a,1,0.6138685000005353,211.52201009999953,None,,,,,7,001,2022_Sep_29_1244,Version4,2021.2.0,240.7666008573842,
blue_congruent,1,a,left,blue,-0.6,,,,,,,,,3,1,19,0,,,,,,,212.14768059999915,None,,,,,,,,,,,,213.19044699999904,None,a,1,0.5216839000004256,213.19044699999904,None,,,,,7,001,2022_Sep_29_1244,Version4,2021.2.0,240.7666008573842,
red_incongruent,0,k,left,red,-0.6,,,,,,,,,3,2,20,3,,,,,,,213.72461549999935,None,,,,,,,,,,,,214.92171929999859,None,k,1,0.4709927999992942,214.92171929999859,None,,,,,7,001,2022_Sep_29_1244,Version4,2021.2.0,240.7666008573842,
red_congruent,1,k,right,red,0.6,,,,,,,,,3,3,21,1,,,,,,,215.40976409999894,None,,,,,,,,,,,,216.43145849999928,None,k,1,0.5295420000002196,216.43145849999928,None,,,,,7,001,2022_Sep_29_1244,Version4,2021.2.0,240.7666008573842,
blue_congruent,1,a,left,blue,-0.6,,,,,,,,,3,4,22,0,,,,,,,216.97370669999873,None,,,,,,,,,,,,218.19992730000013,None,a,1,0.4008702999999514,218.19992730000013,None,,,,,7,001,2022_Sep_29_1244,Version4,2021.2.0,240.7666008573842,
red_congruent,1,k,right,red,0.6,,,,,,,,,3,5,23,1,,,,,,,218.61257750000004,None,,,,,,,,,,,,219.65979109999898,None,k,1,1.365328000001682,219.65979109999898,None,,,,,7,001,2022_Sep_29_1244,Version4,2021.2.0,240.7666008573842,
blue_incongruent,0,a,right,blue,0.6,,,,,,,,,4,0,24,2,,,,,,,221.04062150000027,None,,,,,,,,,,,,222.10412910000014,None,a,1,0.5455794999998034,222.10412910000014,None,,,,,7,001,2022_Sep_29_1244,Version4,2021.2.0,240.7666008573842,
red_congruent,1,k,right,red,0.6,,,,,,,,,4,1,25,1,,,,,,,222.66748729999927,None,,,,,,,,,,,,223.75585990000036,None,k,1,0.49372630000107165,223.75585990000036,None,,,,,7,001,2022_Sep_29_1244,Version4,2021.2.0,240.7666008573842,
red_congruent,1,k,right,red,0.6,,,,,,,,,4,2,26,1,,,,,,,224.2646679999998,None,,,,,,,,,,,,225.294931299999,None,k,1,0.4347665000004781,225.294931299999,None,,,,,7,001,2022_Sep_29_1244,Version4,2021.2.0,240.7666008573842,
red_incongruent,0,k,left,red,-0.6,,,,,,,,,4,3,27,3,,,,,,,225.74122179999904,None,,,,,,,,,,,,226.80494259999978,None,k,1,0.5730063999999402,226.80494259999978,None,,,,,7,001,2022_Sep_29_1244,Version4,2021.2.0,240.7666008573842,
blue_incongruent,0,a,right,blue,0.6,,,,,,,,,4,4,28,2,,,,,,,227.39746190000005,None,,,,,,,,,,,,228.47745919999943,None,a,1,0.5327030999997078,228.47745919999943,None,,,,,7,001,2022_Sep_29_1244,Version4,2021.2.0,240.7666008573842,
red_congruent,1,k,right,red,0.6,,,,,,,,,4,5,29,1,,,,,,,229.0241557999998,None,,,,,,,,,,,,230.22523379999984,None,k,1,0.6811866000007285,230.22523379999984,None,,,,,7,001,2022_Sep_29_1244,Version4,2021.2.0,240.7666008573842,
blue_neutral,0,a,middle,blue,0,,,,,,,,,5,0,30,5,,,,,,,230.9261975999998,None,,,,,,,,,,,,232.0312310999998,None,a,1,0.9315102000000479,232.0312310999998,None,,,,,7,001,2022_Sep_29_1244,Version4,2021.2.0,240.7666008573842,
red_neutral,0,k,middle,red,0,,,,,,,,,5,1,31,4,,,,,,,232.9781366999996,None,,,,,,,,,,,,234.03760109999894,None,k,1,0.5093369000005623,234.03760109999894,None,,,,,7,001,2022_Sep_29_1244,Version4,2021.2.0,240.7666008573842,
blue_incongruent,0,a,right,blue,0.6,,,,,,,,,5,2,32,2,,,,,,,234.56340529999943,None,,,,,,,,,,,,235.6267143999994,None,a,1,1.0885451000012836,235.6267143999994,None,,,,,7,001,2022_Sep_29_1244,Version4,2021.2.0,240.7666008573842,
red_neutral,0,k,middle,red,0,,,,,,,,,5,3,33,4,,,,,,,236.72794629999953,None,,,,,,,,,,,,237.8168012999995,None,k,1,0.5146631999996316,237.8168012999995,None,,,,,7,001,2022_Sep_29_1244,Version4,2021.2.0,240.7666008573842,
red_incongruent,0,k,left,red,-0.6,,,,,,,,,5,4,34,3,,,,,,,238.34648910000033,None,,,,,,,,,,,,239.57254749999993,None,k,1,0.5111003000001801,239.57254749999993,None,,,,,7,001,2022_Sep_29_1244,Version4,2021.2.0,240.7666008573842,
blue_incongruent,0,a,right,blue,0.6,,,,,,,,,5,5,35,2,,,,,,,240.0981095999996,None,,,,,,,,,,,,241.2243837999995,None,a,1,0.5878962999995565,241.2243837999995,None,,,,,7,001,2022_Sep_29_1244,Version4,2021.2.0,240.7666008573842,
blue_congruent,1,a,left,blue,-0.6,,,,,,,,,6,0,36,0,,,,,,,241.8250377000004,None,,,,,,,,,,,,242.8677792999988,None,a,1,0.6803084000002855,242.8677792999988,None,,,,,7,001,2022_Sep_29_1244,Version4,2021.2.0,240.7666008573842,
red_neutral,0,k,middle,red,0,,,,,,,,,6,1,37,4,,,,,,,243.56017950000023,None,,,,,,,,,,,,244.6404153000003,None,k,1,0.4598948000002565,244.6404153000003,None,,,,,7,001,2022_Sep_29_1244,Version4,2021.2.0,240.7666008573842,
red_congruent,1,k,right,red,0.6,,,,,,,,,6,2,38,1,,,,,,,245.1117381999993,None,,,,,,,,,,,,246.18372180000006,None,k,1,1.7489965000004304,246.18372180000006,None,,,,,7,001,2022_Sep_29_1244,Version4,2021.2.0,240.7666008573842,
red_neutral,0,k,middle,red,0,,,,,,,,,6,3,39,4,,,,,,,247.94809109999915,None,,,,,,,,,,,,249.07010309999896,None,k,1,0.4468046999991202,249.07010309999896,None,,,,,7,001,2022_Sep_29_1244,Version4,2021.2.0,240.7666008573842,
red_incongruent,0,k,left,red,-0.6,,,,,,,,,6,4,40,3,,,,,,,249.53311419999955,None,,,,,,,,,,,,250.5801092999991,None,k,1,0.5690472000005684,250.5801092999991,None,,,,,7,001,2022_Sep_29_1244,Version4,2021.2.0,240.7666008573842,
red_incongruent,0,k,left,red,-0.6,,,,,,,,,6,5,41,3,,,,,,,251.16428019999876,None,,,,,,,,,,,,252.26931979999972,None,k,1,0.7360825000014302,252.26931979999972,None,,,,,7,001,2022_Sep_29_1244,Version4,2021.2.0,240.7666008573842,
blue_neutral,0,a,middle,blue,0,,,,,,,,,7,0,42,5,,,,,,,253.02010619999965,None,,,,,,,,,,,,254.19635179999932,None,a,1,0.5132752999998047,254.19635179999932,None,,,,,7,001,2022_Sep_29_1244,Version4,2021.2.0,240.7666008573842,
blue_congruent,1,a,left,blue,-0.6,,,,,,,,,7,1,43,0,,,,,,,254.72644389999914,None,,,,,,,,,,,,255.8064916000003,None,a,1,0.5754629000002751,255.8064916000003,None,,,,,7,001,2022_Sep_29_1244,Version4,2021.2.0,240.7666008573842,
blue_neutral,0,a,middle,blue,0,,,,,,,,,7,2,44,5,,,,,,,256.39900339999986,None,,,,,,,,,,,,257.5499891999989,None,a,1,0.40809970000009343,257.5499891999989,None,,,,,7,001,2022_Sep_29_1244,Version4,2021.2.0,240.7666008573842,
blue_neutral,0,a,middle,blue,0,,,,,,,,,7,3,45,5,,,,,,,257.9712743,None,,,,,,,,,,,,259.0265780999998,None,a,1,0.46764380000058736,259.0265780999998,None,,,,,7,001,2022_Sep_29_1244,Version4,2021.2.0,240.7666008573842,
red_neutral,0,k,middle,red,0,,,,,,,,,7,4,46,4,,,,,,,259.50644569999895,None,,,,,,,,,,,,260.75784589999967,None,k,1,0.5366735999996308,260.75784589999967,None,,,,,7,001,2022_Sep_29_1244,Version4,2021.2.0,240.7666008573842,
red_neutral,0,k,middle,red,0,,,,,,,,,7,5,47,4,,,,,,,261.30833659999917,None,,,,,,,,,,,,262.46792579999965,None,k,1,0.4832110000006651,262.46792579999965,None,,,,,7,001,2022_Sep_29_1244,Version4,2021.2.0,240.7666008573842,
,,,,,,,,,,,,,,,,,,,,,,,,,,,,,,,,,,,,,,,,,,,,space,6.322808299999451,,,7,001,2022_Sep_29_1244,Version4,2021.2.0,240.7666008573842,
blue_congruent,1,a,left,blue,-0.6,,,,,,,,,,,,,0,0,0,0,,,269.32943539999906,None,,,,,,,,,,,,270.38432959999955,None,a,1,0.47147579999909794,270.38432959999955,None,,,,,7,001,2022_Sep_29_1244,Version4,2021.2.0,240.7666008573842,
blue_incongruent,0,a,right,blue,0.6,,,,,,,,,,,,,0,1,1,2,,,270.8723596,None,,,,,,,,,,,,271.9651752999998,None,a,1,1.0510150999998586,271.9651752999998,None,,,,,7,001,2022_Sep_29_1244,Version4,2021.2.0,240.7666008573842,
red_neutral,0,k,middle,red,0,,,,,,,,,,,,,0,2,2,4,,,273.03326279999965,None,,,,,,,,,,,,274.1675075000003,None,k,1,0.4807768999999098,274.1675075000003,None,,,,,7,001,2022_Sep_29_1244,Version4,2021.2.0,240.7666008573842,
red_neutral,0,k,middle,red,0,,,,,,,,,,,,,0,3,3,4,,,274.6599675999987,None,,,,,,,,,,,,275.7692016000001,None,k,1,0.5673311999998987,275.7692016000001,None,,,,,7,001,2022_Sep_29_1244,Version4,2021.2.0,240.7666008573842,
red_incongruent,0,k,left,red,-0.6,,,,,,,,,,,,,0,4,4,3,,,276.35341719999997,None,,,,,,,,,,,,277.50450289999935,None,k,1,0.5282511000004888,277.50450289999935,None,,,,,7,001,2022_Sep_29_1244,Version4,2021.2.0,240.7666008573842,
blue_congruent,1,a,left,blue,-0.6,,,,,,,,,,,,,0,5,5,0,,,278.04683399999885,None,,,,,,,,,,,,279.1065600999991,None,a,1,0.46239669999886246,279.1065600999991,None,,,,,7,001,2022_Sep_29_1244,Version4,2021.2.0,240.7666008573842,
red_congruent,1,k,right,red,0.6,,,,,,,,,,,,,1,0,6,1,,,279.5815634999999,None,,,,,,,,,,,,280.6828175999999,None,k,1,0.5663847999985592,280.6828175999999,None,,,,,7,001,2022_Sep_29_1244,Version4,2021.2.0,240.7666008573842,
blue_incongruent,0,a,right,blue,0.6,,,,,,,,,,,,,1,1,7,2,,,281.25841319999927,None,,,,,,,,,,,,282.3470096000001,None,a,1,0.5584073999998509,282.3470096000001,None,,,,,7,001,2022_Sep_29_1244,Version4,2021.2.0,240.7666008573842,
red_incongruent,0,k,left,red,-0.6,,,,,,,,,,,,,1,2,8,3,,,282.9184456999992,None,,,,,,,,,,,,284.11145959999885,None,k,1,1.0022146999999677,284.11145959999885,None,,,,,7,001,2022_Sep_29_1244,Version4,2021.2.0,240.7666008573842,
blue_neutral,0,a,middle,blue,0,,,,,,,,,,,,,1,3,9,5,,,285.12502119999954,None,,,,,,,,,,,,286.15102829999887,None,a,1,0.5788634999989881,286.15102829999887,None,,,,,7,001,2022_Sep_29_1244,Version4,2021.2.0,240.7666008573842,
red_neutral,0,k,middle,red,0,,,,,,,,,,,,,1,4,10,4,,,286.742862699999,None,,,,,,,,,,,,287.80278779999935,None,k,1,0.5513434999993478,287.80278779999935,None,,,,,7,001,2022_Sep_29_1244,Version4,2021.2.0,240.7666008573842,
blue_incongruent,0,a,right,blue,0.6,,,,,,,,,,,,,1,5,11,2,,,288.3703136999993,None,,,,,,,,,,,,289.5964263999995,None,a,1,0.6139313000003312,289.5964263999995,None,,,,,7,001,2022_Sep_29_1244,Version4,2021.2.0,240.7666008573842,
red_incongruent,0,k,left,red,-0.6,,,,,,,,,,,,,2,0,12,3,,,290.2220166999996,None,,,,,,,,,,,,291.2689627,None,k,1,0.6936172000005172,291.2689627,None,,,,,7,001,2022_Sep_29_1244,Version4,2021.2.0,240.7666008573842,
blue_incongruent,0,a,right,blue,0.6,,,,,,,,,,,,,2,1,13,2,,,291.97387290000006,None,,,,,,,,,,,,293.079307,None,a,1,0.5155400000003283,293.079307,None,,,,,7,001,2022_Sep_29_1244,Version4,2021.2.0,240.7666008573842,
red_congruent,1,k,right,red,0.6,,,,,,,,,,,,,2,2,14,1,,,293.61332479999874,None,,,,,,,,,,,,294.63926269999865,None,k,1,0.6118044999984704,294.63926269999865,None,,,,,7,001,2022_Sep_29_1244,Version4,2021.2.0,240.7666008573842,
red_neutral,0,k,middle,red,0,,,,,,,,,,,,,2,3,15,4,,,295.26522250000016,None,,,,,,,,,,,,296.38307840000016,None,k,1,0.7882337999999436,296.38307840000016,None,,,,,7,001,2022_Sep_29_1244,Version4,2021.2.0,240.7666008573842,
red_congruent,1,k,right,red,0.6,,,,,,,,,,,,,2,4,16,1,,,297.1838122999998,None,,,,,,,,,,,,298.35187699999915,None,k,1,0.45965240000077756,298.35187699999915,None,,,,,7,001,2022_Sep_29_1244,Version4,2021.2.0,240.7666008573842,
blue_congruent,1,a,left,blue,-0.6,,,,,,,,,,,,,2,5,17,0,,,298.8269478000002,None,,,,,,,,,,,,299.90726220000033,None,a,1,0.39242990000093414,299.90726220000033,None,,,,,7,001,2022_Sep_29_1244,Version4,2021.2.0,240.7666008573842,
blue_neutral,0,a,middle,blue,0,,,,,,,,,,,,,3,0,18,5,,,300.31187580000005,None,,,,,,,,,,,,301.5131455999999,None,a,1,0.434807899999214,301.5131455999999,None,,,,,7,001,2022_Sep_29_1244,Version4,2021.2.0,240.7666008573842,
red_congruent,1,k,right,red,0.6,,,,,,,,,,,,,3,1,19,1,,,301.9636056999989,None,,,,,,,,,,,,303.06484529999943,None,k,1,0.45128159999876516,303.06484529999943,None,,,,,7,001,2022_Sep_29_1244,Version4,2021.2.0,240.7666008573842,
red_incongruent,0,k,left,red,-0.6,,,,,,,,,,,,,3,2,20,3,,,303.52783999999883,None,,,,,,,,,,,,304.62058760000036,None,k,1,0.671770099999776,304.62058760000036,None,,,,,7,001,2022_Sep_29_1244,Version4,2021.2.0,240.7666008573842,
blue_neutral,0,a,middle,blue,0,,,,,,,,,,,,,3,3,21,5,,,305.3048777999993,None,,,,,,,,,,,,306.4934108999987,None,a,1,0.4392161000014312,306.4934108999987,None,,,,,7,001,2022_Sep_29_1244,Version4,2021.2.0,240.7666008573842,
blue_congruent,1,a,left,blue,-0.6,,,,,,,,,,,,,3,4,22,0,,,306.94805369999995,None,,,,,,,,,,,,308.17435099999966,None,a,1,0.766889499998797,308.17435099999966,None,,,,,7,001,2022_Sep_29_1244,Version4,2021.2.0,240.7666008573842,
blue_congruent,1,a,left,blue,-0.6,,,,,,,,,,,,,3,5,23,0,,,308.9544189999997,None,,,,,,,,,,,,310.16396689999965,None,a,1,0.48113759999978356,310.16396689999965,None,,,,,7,001,2022_Sep_29_1244,Version4,2021.2.0,240.7666008573842,
red_incongruent,0,k,left,red,-0.6,,,,,,,,,,,,,4,0,24,3,,,310.6561449000001,None,,,,,,,,,,,,311.7656460999988,None,k,1,0.5596600999997463,311.7656460999988,None,,,,,7,001,2022_Sep_29_1244,Version4,2021.2.0,240.7666008573842,
blue_neutral,0,a,middle,blue,0,,,,,,,,,,,,,4,1,25,5,,,312.3370858999988,None,,,,,,,,,,,,313.40113930000007,None,a,1,0.5084323000010045,313.40113930000007,None,,,,,7,001,2022_Sep_29_1244,Version4,2021.2.0,240.7666008573842,
blue_incongruent,0,a,right,blue,0.6,,,,,,,,,,,,,4,2,26,2,,,313.9262837999995,None,,,,,,,,,,,,315.01074789999984,None,a,1,0.8910584999994171,315.01074789999984,None,,,,,7,001,2022_Sep_29_1244,Version4,2021.2.0,240.7666008573842,
red_incongruent,0,k,left,red,-0.6,,,,,,,,,,,,,4,3,27,3,,,315.9202631999997,None,,,,,,,,,,,,317.1087986000002,None,k,1,0.4252458999999362,317.1087986000002,None,,,,,7,001,2022_Sep_29_1244,Version4,2021.2.0,240.7666008573842,
red_neutral,0,k,middle,red,0,,,,,,,,,,,,,4,4,28,4,,,317.54708479999863,None,,,,,,,,,,,,318.6479443999997,None,k,1,0.9103979999999865,318.6479443999997,None,,,,,7,001,2022_Sep_29_1244,Version4,2021.2.0,240.7666008573842,
blue_neutral,0,a,middle,blue,0,,,,,,,,,,,,,4,5,29,5,,,319.5739242999989,None,,,,,,,,,,,,320.7877845999992,None,a,1,0.46675599999980477,320.7877845999992,None,,,,,7,001,2022_Sep_29_1244,Version4,2021.2.0,240.7666008573842,
red_congruent,1,k,right,red,0.6,,,,,,,,,,,,,5,0,30,1,,,321.26761029999943,None,,,,,,,,,,,,322.3269247999997,None,k,1,0.48781029999918246,322.3269247999997,None,,,,,7,001,2022_Sep_29_1244,Version4,2021.2.0,240.7666008573842,
red_congruent,1,k,right,red,0.6,,,,,,,,,,,,,5,1,31,1,,,322.82772769999974,None,,,,,,,,,,,,323.9413091999995,None,k,1,0.5619756000014604,323.9413091999995,None,,,,,7,001,2022_Sep_29_1244,Version4,2021.2.0,240.7666008573842,
blue_incongruent,0,a,right,blue,0.6,,,,,,,,,,,,,5,2,32,2,,,324.5210787999986,None,,,,,,,,,,,,325.634506299999,None,a,1,0.7408532000008563,325.634506299999,None,,,,,7,001,2022_Sep_29_1244,Version4,2021.2.0,240.7666008573842,
red_neutral,0,k,middle,red,0,,,,,,,,,,,,,5,3,33,4,,,326.3894621999989,None,,,,,,,,,,,,327.4867293999996,None,k,1,0.520991999999751,327.4867293999996,None,,,,,7,001,2022_Sep_29_1244,Version4,2021.2.0,240.7666008573842,
red_incongruent,0,k,left,red,-0.6,,,,,,,,,,,,,5,4,34,3,,,328.0206234999987,None,,,,,,,,,,,,329.1969339999996,None,k,1,0.6987728999993124,329.1969339999996,None,,,,,7,001,2022_Sep_29_1244,Version4,2021.2.0,240.7666008573842,
red_congruent,1,k,right,red,0.6,,,,,,,,,,,,,5,5,35,1,,,329.91403790000004,None,,,,,,,,,,,,330.99885689999974,None,k,1,0.48141670000040904,330.99885689999974,None,,,,,7,001,2022_Sep_29_1244,Version4,2021.2.0,240.7666008573842,
blue_incongruent,0,a,right,blue,0.6,,,,,,,,,,,,,6,0,36,2,,,331.49517229999947,None,,,,,,,,,,,,332.5672051999991,None,a,1,0.8252346999997826,332.5672051999991,None,,,,,7,001,2022_Sep_29_1244,Version4,2021.2.0,240.7666008573842,
blue_congruent,1,a,left,blue,-0.6,,,,,,,,,,,,,6,1,37,0,,,333.40557009999975,None,,,,,,,,,,,,334.59427289999985,None,a,1,0.3900919999996404,334.59427289999985,None,,,,,7,001,2022_Sep_29_1244,Version4,2021.2.0,240.7666008573842,
blue_congruent,1,a,left,blue,-0.6,,,,,,,,,,,,,6,2,38,0,,,335.0030093999994,None,,,,,,,,,,,,336.1040197000002,None,a,1,0.36854270000003453,336.1040197000002,None,,,,,7,001,2022_Sep_29_1244,Version4,2021.2.0,240.7666008573842,
red_incongruent,0,k,left,red,-0.6,,,,,,,,,,,,,6,3,39,3,,,336.48377900000014,None,,,,,,,,,,,,337.68084309999904,None,k,1,0.5679709000014554,337.68084309999904,None,,,,,7,001,2022_Sep_29_1244,Version4,2021.2.0,240.7666008573842,
blue_incongruent,0,a,right,blue,0.6,,,,,,,,,,,,,6,4,40,2,,,338.26451689999885,None,,,,,,,,,,,,339.3451831000002,None,a,1,0.4798737000000983,339.3451831000002,None,,,,,7,001,2022_Sep_29_1244,Version4,2021.2.0,240.7666008573842,
red_neutral,0,k,middle,red,0,,,,,,,,,,,,,6,5,41,4,,,339.837313,None,,,,,,,,,,,,340.8967749000003,None,k,1,0.5045031999998173,340.8967749000003,None,,,,,7,001,2022_Sep_29_1244,Version4,2021.2.0,240.7666008573842,
blue_neutral,0,a,middle,blue,0,,,,,,,,,,,,,7,0,42,5,,,341.41001849999884,None,,,,,,,,,,,,342.4731660999987,None,a,1,0.45665980000012496,342.4731660999987,None,,,,,7,001,2022_Sep_29_1244,Version4,2021.2.0,240.7666008573842,
blue_neutral,0,a,middle,blue,0,,,,,,,,,,,,,7,1,43,5,,,342.94474479999917,None,,,,,,,,,,,,344.1083278999995,None,a,1,0.46136379999916244,344.1083278999995,None,,,,,7,001,2022_Sep_29_1244,Version4,2021.2.0,240.7666008573842,
red_neutral,0,k,middle,red,0,,,,,,,,,,,,,7,2,44,4,,,344.5838856999999,None,,,,,,,,,,,,345.6765740999999,None,k,1,0.4853203000002395,345.6765740999999,None,,,,,7,001,2022_Sep_29_1244,Version4,2021.2.0,240.7666008573842,
blue_neutral,0,a,middle,blue,0,,,,,,,,,,,,,7,3,45,5,,,346.17740969999977,None,,,,,,,,,,,,347.236863099999,None,a,1,1.0773232000010466,347.236863099999,None,,,,,7,001,2022_Sep_29_1244,Version4,2021.2.0,240.7666008573842,
red_congruent,1,k,right,red,0.6,,,,,,,,,,,,,7,4,46,1,,,348.3293909999993,None,,,,,,,,,,,,349.46809570000005,None,k,1,0.550329600000623,349.46809570000005,None,,,,,7,001,2022_Sep_29_1244,Version4,2021.2.0,240.7666008573842,
blue_congruent,1,a,left,blue,-0.6,,,,,,,,,,,,,7,5,47,0,,,350.0311920000004,None,,,,,,,,,,,,351.2116067999996,None,a,1,0.6550881999992271,351.2116067999996,None,,,,,7,001,2022_Sep_29_1244,Version4,2021.2.0,240.7666008573842,
,,,,,,,,,,,,,,,,,,,,,,,,,,,,,,,,,,,,,,,,,,,,space,5.927764899999602,,,7,001,2022_Sep_29_1244,Version4,2021.2.0,240.7666008573842,
,,,,,,,,,,,,,,,,,,,,,,,,,,,,,,,,,,,,,,,,,,,,,,space,4.348945600000661,7,001,2022_Sep_29_1244,Version4,2021.2.0,240.7666008573842,
