images,congruentcy,corrAns,box_pos,box_color,box_x,pract.thisRepN,pract.thisTrialN,pract.thisN,pract.thisIndex,trials.thisRepN,trials.thisTrialN,trials.thisN,trials.thisIndex,trials_2.thisRepN,trials_2.thisTrialN,trials_2.thisN,trials_2.thisIndex,trials_3.thisRepN,trials_3.thisTrialN,trials_3.thisN,trials_3.thisIndex,key_resp_instr.keys,key_resp_instr.rt,FixCross.started,FixCross.stopped,Box_p.started,Box_p.stopped,key_resp_P.keys,key_resp_P.corr,key_resp_P.rt,key_resp_P.started,key_resp_P.stopped,text_3.started,text_3.stopped,key_resp_2.keys,key_resp_2.rt,Box.started,Box.stopped,key_resp.keys,key_resp.corr,key_resp.rt,key_resp.started,key_resp.stopped,key_resp_3.keys,key_resp_3.rt,key_resp_4.keys,key_resp_4.rt,participant,session,date,expName,psychopyVersion,frameRate,
,,,,,,,,,,,,,,,,,,,,,,space,10.179343899999992,,,,,,,,,,,,,,,,,,,,,,,,,8,001,2022_Sep_29_1548,Version4,2021.2.0,238.3966395608116,
red_neutral,0,k,middle,red,0,0,0,0,4,,,,,,,,,,,,,,,53.84525019999998,None,54.8842109,None,k,1,0.7630840999999577,54.8842109,None,,,,,,,,,,,,,,,,8,001,2022_Sep_29_1548,Version4,2021.2.0,238.3966395608116,
blue_neutral,0,a,middle,blue,0,0,1,1,5,,,,,,,,,,,,,,,56.660786100000024,None,57.77016069999999,None,a,1,0.3577002000000107,57.77016069999999,None,,,,,,,,,,,,,,,,8,001,2022_Sep_29_1548,Version4,2021.2.0,238.3966395608116,
red_incongruent,0,k,left,red,-0.6,0,2,2,3,,,,,,,,,,,,,,,59.150986399999994,None,60.34804060000002,None,k,1,0.603921200000002,60.34804060000002,None,,,,,,,,,,,,,,,,8,001,2022_Sep_29_1548,Version4,2021.2.0,238.3966395608116,
blue_congruent,1,a,left,blue,-0.6,0,3,3,0,,,,,,,,,,,,,,,61.97044789999998,None,63.205067000000014,None,a,1,0.491242399999976,63.205067000000014,None,,,,,,,,,,,,,,,,8,001,2022_Sep_29_1548,Version4,2021.2.0,238.3966395608116,
red_incongruent,0,k,left,red,-0.6,0,4,4,3,,,,,,,,,,,,,,,64.71516449999999,None,65.87874250000002,None,a,0,0.4099440999999615,65.87874250000002,None,,,,,,,,,,,,,,,,8,001,2022_Sep_29_1548,Version4,2021.2.0,238.3966395608116,
blue_neutral,0,a,middle,blue,0,0,5,5,5,,,,,,,,,,,,,,,67.30963140000003,None,68.4105774,None,a,1,0.9985001000000011,68.4105774,None,,,,,,,,,,,,,,,,8,001,2022_Sep_29_1548,Version4,2021.2.0,238.3966395608116,
blue_incongruent,0,a,right,blue,0.6,1,0,6,2,,,,,,,,,,,,,,,70.4251912,None,71.58060950000001,None,a,1,0.628864300000032,71.58060950000001,None,,,,,,,,,,,,,,,,8,001,2022_Sep_29_1548,Version4,2021.2.0,238.3966395608116,
red_neutral,0,k,middle,red,0,1,1,7,4,,,,,,,,,,,,,,,73.22420680000002,None,74.39188700000003,None,k,1,0.6340933999999834,74.39188700000003,None,,,,,,,,,,,,,,,,8,001,2022_Sep_29_1548,Version4,2021.2.0,238.3966395608116,
red_incongruent,0,k,left,red,-0.6,1,2,8,3,,,,,,,,,,,,,,,76.04788270000003,None,77.17413910000002,None,k,1,0.420016099999998,77.17413910000002,None,,,,,,,,,,,,,,,,8,001,2022_Sep_29_1548,Version4,2021.2.0,238.3966395608116,
red_congruent,1,k,right,red,0.6,1,3,9,1,,,,,,,,,,,,,,,78.61315249999998,None,79.80191590000001,None,k,1,0.6167927999999847,79.80191590000001,None,,,,,,,,,,,,,,,,8,001,2022_Sep_29_1548,Version4,2021.2.0,238.3966395608116,
blue_incongruent,0,a,right,blue,0.6,1,4,10,2,,,,,,,,,,,,,,,81.43714739999999,None,82.51715529999998,None,a,1,0.5097281999999836,82.51715529999998,None,,,,,,,,,,,,,,,,8,001,2022_Sep_29_1548,Version4,2021.2.0,238.3966395608116,
red_incongruent,0,k,left,red,-0.6,1,5,11,3,,,,,,,,,,,,,,,84.04392299999998,None,85.14508900000001,None,k,1,0.46650840000000926,85.14508900000001,None,,,,,,,,,,,,,,,,8,001,2022_Sep_29_1548,Version4,2021.2.0,238.3966395608116,
red_neutral,0,k,middle,red,0,2,0,12,4,,,,,,,,,,,,,,,86.63417210000003,None,87.86887429999999,None,k,1,0.42272689999998647,87.86887429999999,None,,,,,,,,,,,,,,,,8,001,2022_Sep_29_1548,Version4,2021.2.0,238.3966395608116,
red_congruent,1,k,right,red,0.6,2,1,13,1,,,,,,,,,,,,,,,89.30781190000002,None,90.39229500000002,None,k,1,0.3796890000000417,90.39229500000002,None,,,,,,,,,,,,,,,,8,001,2022_Sep_29_1548,Version4,2021.2.0,238.3966395608116,
red_congruent,1,k,right,red,0.6,2,2,14,1,,,,,,,,,,,,,,,91.78543800000003,None,92.87830160000001,None,k,1,0.33395069999994575,92.87830160000001,None,,,,,,,,,,,,,,,,8,001,2022_Sep_29_1548,Version4,2021.2.0,238.3966395608116,
red_congruent,1,k,right,red,0.6,2,3,15,1,,,,,,,,,,,,,,,94.23387040000003,None,95.49758210000002,None,k,1,0.4032174000000168,95.49758210000002,None,,,,,,,,,,,,,,,,8,001,2022_Sep_29_1548,Version4,2021.2.0,238.3966395608116,
blue_incongruent,0,a,right,blue,0.6,2,4,16,2,,,,,,,,,,,,,,,96.91991049999999,None,98.03796930000001,None,a,1,0.42298850000003085,98.03796930000001,None,,,,,,,,,,,,,,,,8,001,2022_Sep_29_1548,Version4,2021.2.0,238.3966395608116,
blue_neutral,0,a,middle,blue,0,2,5,17,5,,,,,,,,,,,,,,,99.48108549999998,None,100.49453100000002,None,a,1,0.3829086999999731,100.49453100000002,None,,,,,,,,,,,,,,,,8,001,2022_Sep_29_1548,Version4,2021.2.0,238.3966395608116,
blue_congruent,1,a,left,blue,-0.6,3,0,18,0,,,,,,,,,,,,,,,101.89599849999999,None,103.08908199999999,None,a,1,0.3248030999999969,103.08908199999999,None,,,,,,,,,,,,,,,,8,001,2022_Sep_29_1548,Version4,2021.2.0,238.3966395608116,
blue_congruent,1,a,left,blue,-0.6,3,1,19,0,,,,,,,,,,,,,,,104.43205429999998,None,105.62932450000002,None,a,1,0.4326735999999869,105.62932450000002,None,,,,,,,,,,,,,,,,8,001,2022_Sep_29_1548,Version4,2021.2.0,238.3966395608116,
blue_congruent,1,a,left,blue,-0.6,3,2,20,0,,,,,,,,,,,,,,,107.0848518,None,108.11095020000002,None,a,1,0.4076552999999876,108.11095020000002,None,,,,,,,,,,,,,,,,8,001,2022_Sep_29_1548,Version4,2021.2.0,238.3966395608116,
blue_incongruent,0,a,right,blue,0.6,3,3,21,2,,,,,,,,,,,,,,,109.5374477,None,110.6594729,None,a,1,0.3551883000000089,110.6594729,None,,,,,,,,,,,,,,,,8,001,2022_Sep_29_1548,Version4,2021.2.0,238.3966395608116,
blue_neutral,0,a,middle,blue,0,3,4,22,5,,,,,,,,,,,,,,,112.0277333,None,113.0828746,None,a,1,0.39611170000000584,113.0828746,None,,,,,,,,,,,,,,,,8,001,2022_Sep_29_1548,Version4,2021.2.0,238.3966395608116,
red_neutral,0,k,middle,red,0,3,5,23,4,,,,,,,,,,,,,,,114.4970936,None,115.63975330000002,None,k,1,0.44756799999998975,115.63975330000002,None,,,,,,,,,,,,,,,,8,001,2022_Sep_29_1548,Version4,2021.2.0,238.3966395608116,
,,,,,,,,,,,,,,,,,,,,,,,,,,,,,,,,,117.12047390000001,None,space,12.94336229999999,,,,,,,,,,,,8,001,2022_Sep_29_1548,Version4,2021.2.0,238.3966395608116,
blue_incongruent,0,a,right,blue,0.6,,,,,0,0,0,2,,,,,,,,,,,132.065526,None,,,,,,,,,,,,133.28380510000002,None,k,0,0.5740521999999828,133.28380510000002,None,,,,,8,001,2022_Sep_29_1548,Version4,2021.2.0,238.3966395608116,
red_neutral,0,k,middle,red,0,,,,,0,1,1,4,,,,,,,,,,,133.87595430000002,None,,,,,,,,,,,,135.068637,None,a,0,0.49330220000001646,135.068637,None,,,,,8,001,2022_Sep_29_1548,Version4,2021.2.0,238.3966395608116,
red_incongruent,0,k,left,red,-0.6,,,,,0,2,2,3,,,,,,,,,,,135.57765350000003,None,,,,,,,,,,,,136.6662476,None,a,0,0.5279132000000004,136.6662476,None,,,,,8,001,2022_Sep_29_1548,Version4,2021.2.0,238.3966395608116,
red_neutral,0,k,middle,red,0,,,,,0,3,3,4,,,,,,,,,,,137.20838820000003,None,,,,,,,,,,,,138.2680635,None,a,0,0.44632199999995237,138.2680635,None,,,,,8,001,2022_Sep_29_1548,Version4,2021.2.0,238.3966395608116,
red_congruent,1,k,right,red,0.6,,,,,0,4,4,1,,,,,,,,,,,138.72687770000002,None,,,,,,,,,,,,139.76538000000002,None,a,0,0.49333780000000615,139.76538000000002,None,,,,,8,001,2022_Sep_29_1548,Version4,2021.2.0,238.3966395608116,
blue_neutral,0,a,middle,blue,0,,,,,0,5,5,5,,,,,,,,,,,140.2743048,None,,,,,,,,,,,,141.32546620000002,None,k,0,0.5092807999999991,141.32546620000002,None,,,,,8,001,2022_Sep_29_1548,Version4,2021.2.0,238.3966395608116,
blue_incongruent,0,a,right,blue,0.6,,,,,1,0,6,2,,,,,,,,,,,141.8467793,None,,,,,,,,,,,,142.99385980000002,None,k,0,0.45730069999996203,142.99385980000002,None,,,,,8,001,2022_Sep_29_1548,Version4,2021.2.0,238.3966395608116,
red_neutral,0,k,middle,red,0,,,,,1,1,7,4,,,,,,,,,,,143.4650278,None,,,,,,,,,,,,144.5703703,None,a,0,0.4329898999999955,144.5703703,None,,,,,8,001,2022_Sep_29_1548,Version4,2021.2.0,238.3966395608116,
red_neutral,0,k,middle,red,0,,,,,1,2,8,4,,,,,,,,,,,145.0209872,None,,,,,,,,,,,,146.08871100000002,None,a,0,0.41872990000001664,146.08871100000002,None,,,,,8,001,2022_Sep_29_1548,Version4,2021.2.0,238.3966395608116,
red_incongruent,0,k,left,red,-0.6,,,,,1,3,9,3,,,,,,,,,,,146.5225725,None,,,,,,,,,,,,147.6403878,None,a,0,0.36320439999997234,147.6403878,None,,,,,8,001,2022_Sep_29_1548,Version4,2021.2.0,238.3966395608116,
red_incongruent,0,k,left,red,-0.6,,,,,1,4,10,3,,,,,,,,,,,148.01581940000003,None,,,,,,,,,,,,149.07942440000002,None,a,0,0.36435009999996737,149.07942440000002,None,,,,,8,001,2022_Sep_29_1548,Version4,2021.2.0,238.3966395608116,
red_incongruent,0,k,left,red,-0.6,,,,,1,5,11,3,,,,,,,,,,,149.45474049999999,None,,,,,,,,,,,,150.55584130000003,None,a,0,0.33614400000004707,150.55584130000003,None,,,,,8,001,2022_Sep_29_1548,Version4,2021.2.0,238.3966395608116,
red_neutral,0,k,middle,red,0,,,,,2,0,12,4,,,,,,,,,,,150.9062292,None,,,,,,,,,,,,152.053281,None,a,0,0.4389295999999945,152.053281,None,,,,,8,001,2022_Sep_29_1548,Version4,2021.2.0,238.3966395608116,
blue_congruent,1,a,left,blue,-0.6,,,,,2,1,13,0,,,,,,,,,,,152.5037535,None,,,,,,,,,,,,153.6008606,None,k,0,0.5157015999999999,153.6008606,None,,,,,8,001,2022_Sep_29_1548,Version4,2021.2.0,238.3966395608116,
blue_incongruent,0,a,right,blue,0.6,,,,,2,2,14,2,,,,,,,,,,,154.13484179999998,None,,,,,,,,,,,,155.25269749999998,None,k,0,0.4319188000000054,155.25269749999998,None,,,,,8,001,2022_Sep_29_1548,Version4,2021.2.0,238.3966395608116,
red_congruent,1,k,right,red,0.6,,,,,2,3,15,1,,,,,,,,,,,155.70300820000003,None,,,,,,,,,,,,156.74571699999998,None,a,0,0.5391091000000188,156.74571699999998,None,,,,,8,001,2022_Sep_29_1548,Version4,2021.2.0,238.3966395608116,
blue_incongruent,0,a,right,blue,0.6,,,,,2,4,16,2,,,,,,,,,,,157.2963141,None,,,,,,,,,,,,158.389127,None,k,0,0.5679261000000224,158.389127,None,,,,,8,001,2022_Sep_29_1548,Version4,2021.2.0,238.3966395608116,
red_congruent,1,k,right,red,0.6,,,,,2,5,17,1,,,,,,,,,,,158.97307680000003,None,,,,,,,,,,,,160.0325483,None,a,0,0.4687270000000012,160.0325483,None,,,,,8,001,2022_Sep_29_1548,Version4,2021.2.0,238.3966395608116,
blue_neutral,0,a,middle,blue,0,,,,,3,0,18,5,,,,,,,,,,,160.51639730000002,None,,,,,,,,,,,,161.54664240000002,None,k,0,0.5148611999999844,161.54664240000002,None,,,,,8,001,2022_Sep_29_1548,Version4,2021.2.0,238.3966395608116,
blue_incongruent,0,a,right,blue,0.6,,,,,3,1,19,2,,,,,,,,,,,162.07219160000002,None,,,,,,,,,,,,163.0899461,None,k,0,0.4037172999999825,163.0899461,None,,,,,8,001,2022_Sep_29_1548,Version4,2021.2.0,238.3966395608116,
red_incongruent,0,k,left,red,-0.6,,,,,3,2,20,3,,,,,,,,,,,163.5070653,None,,,,,,,,,,,,164.6582847,None,a,0,0.3075711000000183,164.6582847,None,,,,,8,001,2022_Sep_29_1548,Version4,2021.2.0,238.3966395608116,
red_congruent,1,k,right,red,0.6,,,,,3,3,21,1,,,,,,,,,,,164.97962809999999,None,,,,,,,,,,,,166.11824049999998,None,a,0,0.351844500000027,166.11824049999998,None,,,,,8,001,2022_Sep_29_1548,Version4,2021.2.0,238.3966395608116,
blue_congruent,1,a,left,blue,-0.6,,,,,3,4,22,0,,,,,,,,,,,166.4853712,None,,,,,,,,,,,,167.5947942,None,k,0,0.34750279999997247,167.5947942,None,,,,,8,001,2022_Sep_29_1548,Version4,2021.2.0,238.3966395608116,
blue_congruent,1,a,left,blue,-0.6,,,,,3,5,23,0,,,,,,,,,,,167.95785350000003,None,,,,,,,,,,,,169.00036939999998,None,k,0,0.342100500000015,169.00036939999998,None,,,,,8,001,2022_Sep_29_1548,Version4,2021.2.0,238.3966395608116,
blue_neutral,0,a,middle,blue,0,,,,,4,0,24,5,,,,,,,,,,,169.35072390000002,None,,,,,,,,,,,,170.5603748,None,k,0,0.4142697999999996,170.5603748,None,,,,,8,001,2022_Sep_29_1548,Version4,2021.2.0,238.3966395608116,
blue_incongruent,0,a,right,blue,0.6,,,,,4,1,25,2,,,,,,,,,,,170.9858123,None,,,,,,,,,,,,172.0536918,None,k,0,0.4011724000000072,172.0536918,None,,,,,8,001,2022_Sep_29_1548,Version4,2021.2.0,238.3966395608116,
blue_congruent,1,a,left,blue,-0.6,,,,,4,2,26,0,,,,,,,,,,,172.4624262,None,,,,,,,,,,,,173.49680500000002,None,k,0,0.3342484000000354,173.49680500000002,None,,,,,8,001,2022_Sep_29_1548,Version4,2021.2.0,238.3966395608116,
blue_neutral,0,a,middle,blue,0,,,,,4,3,27,5,,,,,,,,,,,173.8471398,None,,,,,,,,,,,,174.9359075,None,k,0,0.3593639000000053,174.9359075,None,,,,,8,001,2022_Sep_29_1548,Version4,2021.2.0,238.3966395608116,
red_neutral,0,k,middle,red,0,,,,,4,4,28,4,,,,,,,,,,,175.3112364,None,,,,,,,,,,,,176.4374122,None,a,0,0.3781003999999939,176.4374122,None,,,,,8,001,2022_Sep_29_1548,Version4,2021.2.0,238.3966395608116,
blue_neutral,0,a,middle,blue,0,,,,,4,5,29,5,,,,,,,,,,,176.82947240000001,None,,,,,,,,,,,,177.9056168,None,k,0,1.0140862000000084,177.9056168,None,,,,,8,001,2022_Sep_29_1548,Version4,2021.2.0,238.3966395608116,
red_neutral,0,k,middle,red,0,,,,,5,0,30,4,,,,,,,,,,,178.9317149,None,,,,,,,,,,,,180.0787511,None,a,0,0.39317640000001575,180.0787511,None,,,,,8,001,2022_Sep_29_1548,Version4,2021.2.0,238.3966395608116,
red_incongruent,0,k,left,red,-0.6,,,,,5,1,31,3,,,,,,,,,,,180.4833533,None,,,,,,,,,,,,181.5594933,None,a,0,0.3846472000000176,181.5594933,None,,,,,8,001,2022_Sep_29_1548,Version4,2021.2.0,238.3966395608116,
red_neutral,0,k,middle,red,0,,,,,5,2,32,4,,,,,,,,,,,181.95992370000002,None,,,,,,,,,,,,182.994358,None,a,0,0.30196760000001177,182.994358,None,,,,,8,001,2022_Sep_29_1548,Version4,2021.2.0,238.3966395608116,
blue_congruent,1,a,left,blue,-0.6,,,,,5,3,33,0,,,,,,,,,,,183.31550869999998,None,,,,,,,,,,,,184.40006000000002,None,k,0,0.4084522999999649,184.40006000000002,None,,,,,8,001,2022_Sep_29_1548,Version4,2021.2.0,238.3966395608116,
blue_neutral,0,a,middle,blue,0,,,,,5,4,34,5,,,,,,,,,,,184.8212659,None,,,,,,,,,,,,186.0017864,None,k,0,0.3509323999999765,186.0017864,None,,,,,8,001,2022_Sep_29_1548,Version4,2021.2.0,238.3966395608116,
blue_neutral,0,a,middle,blue,0,,,,,5,5,35,5,,,,,,,,,,,186.36477470000003,None,,,,,,,,,,,,187.4365064,None,k,0,0.3244541000000254,187.4365064,None,,,,,8,001,2022_Sep_29_1548,Version4,2021.2.0,238.3966395608116,
red_incongruent,0,k,left,red,-0.6,,,,,6,0,36,3,,,,,,,,,,,187.7743943,None,,,,,,,,,,,,188.8757062,None,a,0,0.3415008000000057,188.8757062,None,,,,,8,001,2022_Sep_29_1548,Version4,2021.2.0,238.3966395608116,
red_congruent,1,k,right,red,0.6,,,,,6,1,37,1,,,,,,,,,,,189.2301881,None,,,,,,,,,,,,190.35631579999998,None,a,0,0.4210025999999516,190.35631579999998,None,,,,,8,001,2022_Sep_29_1548,Version4,2021.2.0,238.3966395608116,
blue_congruent,1,a,left,blue,-0.6,,,,,6,2,38,0,,,,,,,,,,,190.79430390000002,None,,,,,,,,,,,,191.8371316,None,k,0,0.40437189999994416,191.8371316,None,,,,,8,001,2022_Sep_29_1548,Version4,2021.2.0,238.3966395608116,
blue_incongruent,0,a,right,blue,0.6,,,,,6,3,39,2,,,,,,,,,,,192.2541494,None,,,,,,,,,,,,193.26770789999998,None,k,0,0.31797149999999874,193.26770789999998,None,,,,,8,001,2022_Sep_29_1548,Version4,2021.2.0,238.3966395608116,
blue_incongruent,0,a,right,blue,0.6,,,,,6,4,40,2,,,,,,,,,,,193.59743,None,,,,,,,,,,,,194.6483163,None,k,0,0.3775825000000168,194.6483163,None,,,,,8,001,2022_Sep_29_1548,Version4,2021.2.0,238.3966395608116,
red_congruent,1,k,right,red,0.6,,,,,6,5,41,1,,,,,,,,,,,195.04042389999998,None,,,,,,,,,,,,196.10405770000003,None,a,0,0.4740616999999929,196.10405770000003,None,,,,,8,001,2022_Sep_29_1548,Version4,2021.2.0,238.3966395608116,
blue_congruent,1,a,left,blue,-0.6,,,,,7,0,42,0,,,,,,,,,,,196.5963991,None,,,,,,,,,,,,197.78082700000002,None,k,0,0.35750789999997323,197.78082700000002,None,,,,,8,001,2022_Sep_29_1548,Version4,2021.2.0,238.3966395608116,
red_incongruent,0,k,left,red,-0.6,,,,,7,1,43,3,,,,,,,,,,,198.15218860000002,None,,,,,,,,,,,,199.28242889999999,None,a,0,0.40824750000001586,199.28242889999999,None,,,,,8,001,2022_Sep_29_1548,Version4,2021.2.0,238.3966395608116,
red_congruent,1,k,right,red,0.6,,,,,7,2,44,1,,,,,,,,,,,199.70385460000003,None,,,,,,,,,,,,200.8632587,None,a,0,0.44348999999999705,200.8632587,None,,,,,8,001,2022_Sep_29_1548,Version4,2021.2.0,238.3966395608116,
blue_neutral,0,a,middle,blue,0,,,,,7,3,45,5,,,,,,,,,,,201.3221253,None,,,,,,,,,,,,202.5233431,None,k,0,0.4556731000000127,202.5233431,None,,,,,8,001,2022_Sep_29_1548,Version4,2021.2.0,238.3966395608116,
blue_congruent,1,a,left,blue,-0.6,,,,,7,4,46,0,,,,,,,,,,,202.99071669999998,None,,,,,,,,,,,,204.12114,None,k,0,0.3460390999999845,204.12114,None,,,,,8,001,2022_Sep_29_1548,Version4,2021.2.0,238.3966395608116,
red_congruent,1,k,right,red,0.6,,,,,7,5,47,1,,,,,,,,,,,204.47961469999998,None,,,,,,,,,,,,205.63094270000002,None,a,0,0.4043935999999917,205.63094270000002,None,,,,,8,001,2022_Sep_29_1548,Version4,2021.2.0,238.3966395608116,
,,,,,,,,,,,,,,,,,,,,,,,,,,,,,,,,,,,,,,,,,,,,space,100.45648019999999,,,8,001,2022_Sep_29_1548,Version4,2021.2.0,238.3966395608116,
blue_incongruent,0,a,right,blue,0.6,,,,,,,,,0,0,0,2,,,,,,,306.5375908,None,,,,,,,,,,,,307.69315570000003,None,a,1,0.36383359999990716,307.69315570000003,None,,,,,8,001,2022_Sep_29_1548,Version4,2021.2.0,238.3966395608116,
blue_incongruent,0,a,right,blue,0.6,,,,,,,,,0,1,1,2,,,,,,,308.0685099,None,,,,,,,,,,,,309.173898,None,a,1,0.3392795000000888,309.173898,None,,,,,8,001,2022_Sep_29_1548,Version4,2021.2.0,238.3966395608116,
blue_congruent,1,a,left,blue,-0.6,,,,,,,,,0,2,2,0,,,,,,,309.5242972,None,,,,,,,,,,,,310.70880220000004,None,a,1,0.34860700000001543,310.70880220000004,None,,,,,8,001,2022_Sep_29_1548,Version4,2021.2.0,238.3966395608116,
red_neutral,0,k,middle,red,0,,,,,,,,,0,3,3,4,,,,,,,311.0758817000001,None,,,,,,,,,,,,312.268776,None,k,1,0.3729617999999846,312.268776,None,,,,,8,001,2022_Sep_29_1548,Version4,2021.2.0,238.3966395608116,
red_incongruent,0,k,left,red,-0.6,,,,,,,,,0,4,4,3,,,,,,,312.6566821,None,,,,,,,,,,,,313.7244849,None,k,1,0.509357199999954,313.7244849,None,,,,,8,001,2022_Sep_29_1548,Version4,2021.2.0,238.3966395608116,
blue_neutral,0,a,middle,blue,0,,,,,,,,,0,5,5,5,,,,,,,314.25004090000004,None,,,,,,,,,,,,315.3720548,None,a,1,0.39796130000001995,315.3720548,None,,,,,8,001,2022_Sep_29_1548,Version4,2021.2.0,238.3966395608116,
blue_incongruent,0,a,right,blue,0.6,,,,,,,,,1,0,6,2,,,,,,,315.7850609000001,None,,,,,,,,,,,,316.9362139,None,a,1,0.5622039999999515,316.9362139,None,,,,,8,001,2022_Sep_29_1548,Version4,2021.2.0,238.3966395608116,
blue_congruent,1,a,left,blue,-0.6,,,,,,,,,1,1,7,0,,,,,,,317.51189410000006,None,,,,,,,,,,,,318.5504316,None,a,1,0.3243400000000065,318.5504316,None,,,,,8,001,2022_Sep_29_1548,Version4,2021.2.0,238.3966395608116,
blue_neutral,0,a,middle,blue,0,,,,,,,,,1,2,8,5,,,,,,,318.8924568,None,,,,,,,,,,,,320.04782750000004,None,a,1,0.37906069999996816,320.04782750000004,None,,,,,8,001,2022_Sep_29_1548,Version4,2021.2.0,238.3966395608116,
blue_incongruent,0,a,right,blue,0.6,,,,,,,,,1,3,9,2,,,,,,,320.4399574,None,,,,,,,,,,,,321.5494135,None,a,1,0.33356430000003456,321.5494135,None,,,,,8,001,2022_Sep_29_1548,Version4,2021.2.0,238.3966395608116,
red_incongruent,0,k,left,red,-0.6,,,,,,,,,1,4,10,3,,,,,,,321.8998659,None,,,,,,,,,,,,323.06353850000005,None,k,1,0.379496300000028,323.06353850000005,None,,,,,8,001,2022_Sep_29_1548,Version4,2021.2.0,238.3966395608116,
red_congruent,1,k,right,red,0.6,,,,,,,,,1,5,11,1,,,,,,,323.4556447,None,,,,,,,,,,,,324.5816483,None,k,1,0.34975840000004155,324.5816483,None,,,,,8,001,2022_Sep_29_1548,Version4,2021.2.0,238.3966395608116,
red_incongruent,0,k,left,red,-0.6,,,,,,,,,2,0,12,3,,,,,,,324.94469560000005,None,,,,,,,,,,,,325.96253060000004,None,k,1,0.3692502000000104,325.96253060000004,None,,,,,8,001,2022_Sep_29_1548,Version4,2021.2.0,238.3966395608116,
red_incongruent,0,k,left,red,-0.6,,,,,,,,,2,1,13,3,,,,,,,326.34626390000005,None,,,,,,,,,,,,327.5139957,None,k,1,0.3936560999999301,327.5139957,None,,,,,8,001,2022_Sep_29_1548,Version4,2021.2.0,238.3966395608116,
red_neutral,0,k,middle,red,0,,,,,,,,,2,2,14,4,,,,,,,327.92283910000003,None,,,,,,,,,,,,329.0741244000001,None,k,1,0.30570090000003347,329.0741244000001,None,,,,,8,001,2022_Sep_29_1548,Version4,2021.2.0,238.3966395608116,
red_neutral,0,k,middle,red,0,,,,,,,,,2,3,15,4,,,,,,,329.3910516000001,None,,,,,,,,,,,,330.5381255,None,k,1,0.29790760000003047,330.5381255,None,,,,,8,001,2022_Sep_29_1548,Version4,2021.2.0,238.3966395608116,
red_incongruent,0,k,left,red,-0.6,,,,,,,,,2,4,16,3,,,,,,,330.8509670000001,None,,,,,,,,,,,,331.9521787,None,a,0,0.28403560000003836,331.9521787,None,,,,,8,001,2022_Sep_29_1548,Version4,2021.2.0,238.3966395608116,
red_congruent,1,k,right,red,0.6,,,,,,,,,2,5,17,1,,,,,,,332.2524098,None,,,,,,,,,,,,333.3911656,None,k,1,0.589278400000012,333.3911656,None,,,,,8,001,2022_Sep_29_1548,Version4,2021.2.0,238.3966395608116,
red_neutral,0,k,middle,red,0,,,,,,,,,3,0,18,4,,,,,,,333.9916183,None,,,,,,,,,,,,335.08881800000006,None,k,1,0.4438718000000108,335.08881800000006,None,,,,,8,001,2022_Sep_29_1548,Version4,2021.2.0,238.3966395608116,
blue_incongruent,0,a,right,blue,0.6,,,,,,,,,3,1,19,2,,,,,,,335.54742210000006,None,,,,,,,,,,,,336.71963800000003,None,a,1,0.3572631999999203,336.71963800000003,None,,,,,8,001,2022_Sep_29_1548,Version4,2021.2.0,238.3966395608116,
red_neutral,0,k,middle,red,0,,,,,,,,,3,2,20,4,,,,,,,337.0907244,None,,,,,,,,,,,,338.28379700000005,None,k,1,0.4173402000000124,338.28379700000005,None,,,,,8,001,2022_Sep_29_1548,Version4,2021.2.0,238.3966395608116,
blue_neutral,0,a,middle,blue,0,,,,,,,,,3,3,21,5,,,,,,,338.7132623,None,,,,,,,,,,,,339.84375510000007,None,a,1,0.5135411999999633,339.84375510000007,None,,,,,8,001,2022_Sep_29_1548,Version4,2021.2.0,238.3966395608116,
blue_congruent,1,a,left,blue,-0.6,,,,,,,,,3,4,22,0,,,,,,,340.3693144,None,,,,,,,,,,,,341.5247115000001,None,a,1,0.4728258000000096,341.5247115000001,None,,,,,8,001,2022_Sep_29_1548,Version4,2021.2.0,238.3966395608116,
red_congruent,1,k,right,red,0.6,,,,,,,,,3,5,23,1,,,,,,,342.0127540000001,None,,,,,,,,,,,,343.13891820000003,None,k,1,0.362787199999957,343.13891820000003,None,,,,,8,001,2022_Sep_29_1548,Version4,2021.2.0,238.3966395608116,
red_congruent,1,k,right,red,0.6,,,,,,,,,4,0,24,1,,,,,,,343.51374710000005,None,,,,,,,,,,,,344.5612573000001,None,k,1,0.3488118000000213,344.5612573000001,None,,,,,8,001,2022_Sep_29_1548,Version4,2021.2.0,238.3966395608116,
red_neutral,0,k,middle,red,0,,,,,,,,,4,1,25,4,,,,,,,344.92423840000004,None,,,,,,,,,,,,345.9418838,None,k,1,0.33619679999992513,345.9418838,None,,,,,8,001,2022_Sep_29_1548,Version4,2021.2.0,238.3966395608116,
blue_neutral,0,a,middle,blue,0,,,,,,,,,4,2,26,5,,,,,,,346.28750660000003,None,,,,,,,,,,,,347.3724000000001,None,a,1,0.3459026000000449,347.3724000000001,None,,,,,8,001,2022_Sep_29_1548,Version4,2021.2.0,238.3966395608116,
blue_neutral,0,a,middle,blue,0,,,,,,,,,4,3,27,5,,,,,,,347.7311271,None,,,,,,,,,,,,348.81994900000007,None,a,1,0.2908170999999129,348.81994900000007,None,,,,,8,001,2022_Sep_29_1548,Version4,2021.2.0,238.3966395608116,
blue_congruent,1,a,left,blue,-0.6,,,,,,,,,4,4,28,0,,,,,,,349.1285862000001,None,,,,,,,,,,,,350.3381365,None,a,1,0.3565472000000227,350.3381365,None,,,,,8,001,2022_Sep_29_1548,Version4,2021.2.0,238.3966395608116,
blue_neutral,0,a,middle,blue,0,,,,,,,,,4,5,29,5,,,,,,,350.70943350000005,None,,,,,,,,,,,,351.8356916,None,a,1,0.3551529000000073,351.8356916,None,,,,,8,001,2022_Sep_29_1548,Version4,2021.2.0,238.3966395608116,
blue_incongruent,0,a,right,blue,0.6,,,,,,,,,5,0,30,2,,,,,,,352.202547,None,,,,,,,,,,,,353.3495978000001,None,a,1,0.4975180999999793,353.3495978000001,None,,,,,8,001,2022_Sep_29_1548,Version4,2021.2.0,238.3966395608116,
blue_neutral,0,a,middle,blue,0,,,,,,,,,5,1,31,5,,,,,,,353.8627956,None,,,,,,,,,,,,355.0807174,None,a,1,0.38278600000001006,355.0807174,None,,,,,8,001,2022_Sep_29_1548,Version4,2021.2.0,238.3966395608116,
red_congruent,1,k,right,red,0.6,,,,,,,,,5,2,32,1,,,,,,,355.4811631,None,,,,,,,,,,,,356.60324,None,k,1,0.5963165000000572,356.60324,None,,,,,8,001,2022_Sep_29_1548,Version4,2021.2.0,238.3966395608116,
red_congruent,1,k,right,red,0.6,,,,,,,,,5,3,33,1,,,,,,,357.21224270000005,None,,,,,,,,,,,,358.3174354,None,k,1,0.34633389999999054,358.3174354,None,,,,,8,001,2022_Sep_29_1548,Version4,2021.2.0,238.3966395608116,
blue_incongruent,0,a,right,blue,0.6,,,,,,,,,5,4,34,2,,,,,,,358.67625350000003,None,,,,,,,,,,,,359.7398224,None,a,1,0.48430900000005295,359.7398224,None,,,,,8,001,2022_Sep_29_1548,Version4,2021.2.0,238.3966395608116,
red_incongruent,0,k,left,red,-0.6,,,,,,,,,5,5,35,3,,,,,,,360.2403591,None,,,,,,,,,,,,361.47928920000004,None,k,1,0.5852198000000044,361.47928920000004,None,,,,,8,001,2022_Sep_29_1548,Version4,2021.2.0,238.3966395608116,
blue_neutral,0,a,middle,blue,0,,,,,,,,,6,0,36,5,,,,,,,362.07980480000003,None,,,,,,,,,,,,363.1559303,None,k,0,0.48448310000003403,363.1559303,None,,,,,8,001,2022_Sep_29_1548,Version4,2021.2.0,238.3966395608116,
red_congruent,1,k,right,red,0.6,,,,,,,,,6,1,37,1,,,,,,,363.65237980000006,None,,,,,,,,,,,,364.68254790000003,None,k,1,0.5820988000000398,364.68254790000003,None,,,,,8,001,2022_Sep_29_1548,Version4,2021.2.0,238.3966395608116,
red_neutral,0,k,middle,red,0,,,,,,,,,6,2,38,4,,,,,,,365.2831933,None,,,,,,,,,,,,366.4093988000001,None,k,1,0.4554381000000376,366.4093988000001,None,,,,,8,001,2022_Sep_29_1548,Version4,2021.2.0,238.3966395608116,
red_incongruent,0,k,left,red,-0.6,,,,,,,,,6,3,39,3,,,,,,,366.87670460000004,None,,,,,,,,,,,,368.01941640000007,None,k,1,0.5096707000000151,368.01941640000007,None,,,,,8,001,2022_Sep_29_1548,Version4,2021.2.0,238.3966395608116,
blue_congruent,1,a,left,blue,-0.6,,,,,,,,,6,4,40,0,,,,,,,368.5449999,None,,,,,,,,,,,,369.6752037,None,a,1,0.4542297000000417,369.6752037,None,,,,,8,001,2022_Sep_29_1548,Version4,2021.2.0,238.3966395608116,
blue_incongruent,0,a,right,blue,0.6,,,,,,,,,6,5,41,2,,,,,,,370.14236030000006,None,,,,,,,,,,,,371.27690140000004,None,a,1,0.35670700000002853,371.27690140000004,None,,,,,8,001,2022_Sep_29_1548,Version4,2021.2.0,238.3966395608116,
red_neutral,0,k,middle,red,0,,,,,,,,,7,0,42,4,,,,,,,371.6482657,None,,,,,,,,,,,,372.7576378,None,k,1,0.43604500000003554,372.7576378,None,,,,,8,001,2022_Sep_29_1548,Version4,2021.2.0,238.3966395608116,
red_incongruent,0,k,left,red,-0.6,,,,,,,,,7,1,43,3,,,,,,,373.20825030000003,None,,,,,,,,,,,,374.27590940000005,None,k,1,0.6060031000000663,374.27590940000005,None,,,,,8,001,2022_Sep_29_1548,Version4,2021.2.0,238.3966395608116,
blue_congruent,1,a,left,blue,-0.6,,,,,,,,,7,2,44,0,,,,,,,374.8932993000001,None,,,,,,,,,,,,376.01941650000003,None,a,1,0.5267314999999826,376.01941650000003,None,,,,,8,001,2022_Sep_29_1548,Version4,2021.2.0,238.3966395608116,
red_congruent,1,k,right,red,0.6,,,,,,,,,7,3,45,1,,,,,,,376.5619576,None,,,,,,,,,,,,377.6544951000001,None,k,1,0.37984050000000025,377.6544951000001,None,,,,,8,001,2022_Sep_29_1548,Version4,2021.2.0,238.3966395608116,
blue_congruent,1,a,left,blue,-0.6,,,,,,,,,7,4,46,0,,,,,,,378.04655520000006,None,,,,,,,,,,,,379.16028930000004,None,a,1,0.41033709999999246,379.16028930000004,None,,,,,8,001,2022_Sep_29_1548,Version4,2021.2.0,238.3966395608116,
blue_congruent,1,a,left,blue,-0.6,,,,,,,,,7,5,47,0,,,,,,,379.5858224,None,,,,,,,,,,,,380.6953095,None,a,1,0.38741800000002513,380.6953095,None,,,,,8,001,2022_Sep_29_1548,Version4,2021.2.0,238.3966395608116,
,,,,,,,,,,,,,,,,,,,,,,,,,,,,,,,,,,,,,,,,,,,,space,14.96876020000002,,,8,001,2022_Sep_29_1548,Version4,2021.2.0,238.3966395608116,
blue_neutral,0,a,middle,blue,0,,,,,,,,,,,,,0,0,0,5,,,396.09913370000004,None,,,,,,,,,,,,397.15865840000004,None,a,1,0.4946466999999757,397.15865840000004,None,,,,,8,001,2022_Sep_29_1548,Version4,2021.2.0,238.3966395608116,
red_incongruent,0,k,left,red,-0.6,,,,,,,,,,,,,0,1,1,3,,,397.66746950000004,None,,,,,,,,,,,,398.764509,None,k,1,0.40868969999996807,398.764509,None,,,,,8,001,2022_Sep_29_1548,Version4,2021.2.0,238.3966395608116,
red_congruent,1,k,right,red,0.6,,,,,,,,,,,,,0,2,2,1,,,399.18573790000005,None,,,,,,,,,,,,400.2828721000001,None,k,1,0.3945006999999805,400.2828721000001,None,,,,,8,001,2022_Sep_29_1548,Version4,2021.2.0,238.3966395608116,
blue_congruent,1,a,left,blue,-0.6,,,,,,,,,,,,,0,3,3,0,,,400.6956620000001,None,,,,,,,,,,,,401.8009870000001,None,a,1,0.4528884999999718,401.8009870000001,None,,,,,8,001,2022_Sep_29_1548,Version4,2021.2.0,238.3966395608116,
blue_incongruent,0,a,right,blue,0.6,,,,,,,,,,,,,0,4,4,2,,,402.27236160000007,None,,,,,,,,,,,,403.33182480000005,None,a,1,0.5139503999999988,403.33182480000005,None,,,,,8,001,2022_Sep_29_1548,Version4,2021.2.0,238.3966395608116,
blue_congruent,1,a,left,blue,-0.6,,,,,,,,,,,,,0,5,5,0,,,403.8572921,None,,,,,,,,,,,,405.00450320000004,None,a,1,0.5938377999999602,405.00450320000004,None,,,,,8,001,2022_Sep_29_1548,Version4,2021.2.0,238.3966395608116,
blue_incongruent,0,a,right,blue,0.6,,,,,,,,,,,,,1,0,6,2,,,405.6134094,None,,,,,,,,,,,,406.70617360000006,None,a,1,0.33216989999993984,406.70617360000006,None,,,,,8,001,2022_Sep_29_1548,Version4,2021.2.0,238.3966395608116,
blue_neutral,0,a,middle,blue,0,,,,,,,,,,,,,1,1,7,5,,,407.0523899,None,,,,,,,,,,,,408.1452072000001,None,a,1,0.48531739999998535,408.1452072000001,None,,,,,8,001,2022_Sep_29_1548,Version4,2021.2.0,238.3966395608116,
blue_congruent,1,a,left,blue,-0.6,,,,,,,,,,,,,1,2,8,0,,,408.64560100000006,None,,,,,,,,,,,,409.80939920000003,None,a,1,0.35723139999993236,409.80939920000003,None,,,,,8,001,2022_Sep_29_1548,Version4,2021.2.0,238.3966395608116,
red_incongruent,0,k,left,red,-0.6,,,,,,,,,,,,,1,3,9,3,,,410.1806134000001,None,,,,,,,,,,,,411.3276254,None,k,1,0.4552071000000524,411.3276254,None,,,,,8,001,2022_Sep_29_1548,Version4,2021.2.0,238.3966395608116,
blue_congruent,1,a,left,blue,-0.6,,,,,,,,,,,,,1,4,10,0,,,411.7949065,None,,,,,,,,,,,,413.00019740000005,None,a,1,0.3668572999999924,413.00019740000005,None,,,,,8,001,2022_Sep_29_1548,Version4,2021.2.0,238.3966395608116,
red_congruent,1,k,right,red,0.6,,,,,,,,,,,,,1,5,11,1,,,413.3841431000001,None,,,,,,,,,,,,414.6185836000001,None,k,1,0.5169237000000066,414.6185836000001,None,,,,,8,001,2022_Sep_29_1548,Version4,2021.2.0,238.3966395608116,
red_incongruent,0,k,left,red,-0.6,,,,,,,,,,,,,2,0,12,3,,,415.15260450000005,None,,,,,,,,,,,,416.3456175,None,k,1,0.33403470000007474,416.3456175,None,,,,,8,001,2022_Sep_29_1548,Version4,2021.2.0,238.3966395608116,
blue_neutral,0,a,middle,blue,0,,,,,,,,,,,,,2,1,13,5,,,416.6958976000001,None,,,,,,,,,,,,417.79296420000003,None,a,1,0.46274829999993017,417.79296420000003,None,,,,,8,001,2022_Sep_29_1548,Version4,2021.2.0,238.3966395608116,
blue_incongruent,0,a,right,blue,0.6,,,,,,,,,,,,,2,2,14,2,,,418.2684044,None,,,,,,,,,,,,419.44449540000005,None,a,1,0.40356150000002344,419.44449540000005,None,,,,,8,001,2022_Sep_29_1548,Version4,2021.2.0,238.3966395608116,
red_incongruent,0,k,left,red,-0.6,,,,,,,,,,,,,2,3,15,3,,,419.86177940000005,None,,,,,,,,,,,,421.0338934,None,k,1,0.39825680000001284,421.0338934,None,,,,,8,001,2022_Sep_29_1548,Version4,2021.2.0,238.3966395608116,
blue_congruent,1,a,left,blue,-0.6,,,,,,,,,,,,,2,4,16,0,,,421.4467217,None,,,,,,,,,,,,422.6147569,None,a,1,0.521609900000044,422.6147569,None,,,,,8,001,2022_Sep_29_1548,Version4,2021.2.0,238.3966395608116,
red_congruent,1,k,right,red,0.6,,,,,,,,,,,,,2,5,17,1,,,423.152736,None,,,,,,,,,,,,424.3414904,None,k,1,0.3630534000000125,424.3414904,None,,,,,8,001,2022_Sep_29_1548,Version4,2021.2.0,238.3966395608116,
red_neutral,0,k,middle,red,0,,,,,,,,,,,,,3,0,18,4,,,424.71269400000006,None,,,,,,,,,,,,425.7845466,None,k,1,0.31235340000000633,425.7845466,None,,,,,8,001,2022_Sep_29_1548,Version4,2021.2.0,238.3966395608116,
red_neutral,0,k,middle,red,0,,,,,,,,,,,,,3,1,19,4,,,426.1142879,None,,,,,,,,,,,,427.1736478,None,k,1,0.3313266999999769,427.1736478,None,,,,,8,001,2022_Sep_29_1548,Version4,2021.2.0,238.3966395608116,
red_neutral,0,k,middle,red,0,,,,,,,,,,,,,3,2,20,4,,,427.51981180000007,None,,,,,,,,,,,,428.5667489,None,k,1,0.29051479999998264,428.5667489,None,,,,,8,001,2022_Sep_29_1548,Version4,2021.2.0,238.3966395608116,
red_neutral,0,k,middle,red,0,,,,,,,,,,,,,3,3,21,4,,,428.87548260000005,None,,,,,,,,,,,,429.9723206,None,k,1,0.3569986999999628,429.9723206,None,,,,,8,001,2022_Sep_29_1548,Version4,2021.2.0,238.3966395608116,
red_neutral,0,k,middle,red,0,,,,,,,,,,,,,3,4,22,4,,,430.3436917,None,,,,,,,,,,,,431.436375,None,k,1,0.35715109999989636,431.436375,None,,,,,8,001,2022_Sep_29_1548,Version4,2021.2.0,238.3966395608116,
red_congruent,1,k,right,red,0.6,,,,,,,,,,,,,3,5,23,1,,,431.8119927,None,,,,,,,,,,,,433.01722010000003,None,k,1,0.44050830000003316,433.01722010000003,None,,,,,8,001,2022_Sep_29_1548,Version4,2021.2.0,238.3966395608116,
red_incongruent,0,k,left,red,-0.6,,,,,,,,,,,,,4,0,24,3,,,433.4761586000001,None,,,,,,,,,,,,434.67313,None,k,1,0.4008254999999963,434.67313,None,,,,,8,001,2022_Sep_29_1548,Version4,2021.2.0,238.3966395608116,
blue_congruent,1,a,left,blue,-0.6,,,,,,,,,,,,,4,1,25,0,,,435.0904011,None,,,,,,,,,,,,436.1455303,None,a,1,0.40862699999991037,436.1455303,None,,,,,8,001,2022_Sep_29_1548,Version4,2021.2.0,238.3966395608116,
blue_neutral,0,a,middle,blue,0,,,,,,,,,,,,,4,2,26,5,,,436.57129180000004,None,,,,,,,,,,,,437.65129950000005,None,a,1,0.3270967999999357,437.65129950000005,None,,,,,8,001,2022_Sep_29_1548,Version4,2021.2.0,238.3966395608116,
blue_neutral,0,a,middle,blue,0,,,,,,,,,,,,,4,3,27,5,,,437.9933093000001,None,,,,,,,,,,,,439.1111578,None,a,1,0.2753457000000026,439.1111578,None,,,,,8,001,2022_Sep_29_1548,Version4,2021.2.0,238.3966395608116,
blue_incongruent,0,a,right,blue,0.6,,,,,,,,,,,,,4,4,28,2,,,439.3989474,None,,,,,,,,,,,,440.508468,None,a,1,0.4782916000000341,440.508468,None,,,,,8,001,2022_Sep_29_1548,Version4,2021.2.0,238.3966395608116,
blue_incongruent,0,a,right,blue,0.6,,,,,,,,,,,,,4,5,29,2,,,441.0006568,None,,,,,,,,,,,,442.11860550000006,None,a,1,0.3883191000001034,442.11860550000006,None,,,,,8,001,2022_Sep_29_1548,Version4,2021.2.0,238.3966395608116,
red_incongruent,0,k,left,red,-0.6,,,,,,,,,,,,,5,0,30,3,,,442.51917820000006,None,,,,,,,,,,,,443.71185850000006,None,k,1,0.3873237000000245,443.71185850000006,None,,,,,8,001,2022_Sep_29_1548,Version4,2021.2.0,238.3966395608116,
blue_congruent,1,a,left,blue,-0.6,,,,,,,,,,,,,5,1,31,0,,,444.108213,None,,,,,,,,,,,,445.15505210000003,None,a,1,0.40863500000000386,445.15505210000003,None,,,,,8,001,2022_Sep_29_1548,Version4,2021.2.0,238.3966395608116,
blue_incongruent,0,a,right,blue,0.6,,,,,,,,,,,,,5,2,32,2,,,445.5766176000001,None,,,,,,,,,,,,446.6192409,None,a,1,0.37631550000003244,446.6192409,None,,,,,8,001,2022_Sep_29_1548,Version4,2021.2.0,238.3966395608116,
red_congruent,1,k,right,red,0.6,,,,,,,,,,,,,5,3,33,1,,,447.0111949000001,None,,,,,,,,,,,,448.0623802,None,k,1,0.5013801999999714,448.0623802,None,,,,,8,001,2022_Sep_29_1548,Version4,2021.2.0,238.3966395608116,
red_neutral,0,k,middle,red,0,,,,,,,,,,,,,5,4,34,4,,,448.5798152,None,,,,,,,,,,,,449.73072,None,k,1,0.3532432999999173,449.73072,None,,,,,8,001,2022_Sep_29_1548,Version4,2021.2.0,238.3966395608116,
blue_congruent,1,a,left,blue,-0.6,,,,,,,,,,,,,5,5,35,0,,,450.098027,None,,,,,,,,,,,,451.29906200000005,None,a,1,0.32107810000002246,451.29906200000005,None,,,,,8,001,2022_Sep_29_1548,Version4,2021.2.0,238.3966395608116,
blue_neutral,0,a,middle,blue,0,,,,,,,,,,,,,6,0,36,5,,,451.6328917000001,None,,,,,,,,,,,,452.758921,None,a,1,0.32542690000002494,452.758921,None,,,,,8,001,2022_Sep_29_1548,Version4,2021.2.0,238.3966395608116,
red_incongruent,0,k,left,red,-0.6,,,,,,,,,,,,,6,1,37,3,,,453.10098560000006,None,,,,,,,,,,,,454.1729189,None,k,1,0.4556526000000076,454.1729189,None,,,,,8,001,2022_Sep_29_1548,Version4,2021.2.0,238.3966395608116,
red_congruent,1,k,right,red,0.6,,,,,,,,,,,,,6,2,38,1,,,454.6442554,None,,,,,,,,,,,,455.71205180000004,None,a,0,0.5169687000000067,455.71205180000004,None,,,,,8,001,2022_Sep_29_1548,Version4,2021.2.0,238.3966395608116,
blue_neutral,0,a,middle,blue,0,,,,,,,,,,,,,6,3,39,5,,,456.24155800000005,None,,,,,,,,,,,,457.2928912,None,a,1,0.6162162000000535,457.2928912,None,,,,,8,001,2022_Sep_29_1548,Version4,2021.2.0,238.3966395608116,
red_neutral,0,k,middle,red,0,,,,,,,,,,,,,6,4,40,4,,,457.92690300000004,None,,,,,,,,,,,,459.06567960000007,None,k,1,0.33172990000002756,459.06567960000007,None,,,,,8,001,2022_Sep_29_1548,Version4,2021.2.0,238.3966395608116,
blue_neutral,0,a,middle,blue,0,,,,,,,,,,,,,6,5,41,5,,,459.4159877000001,None,,,,,,,,,,,,460.513093,None,a,1,0.3962715999999773,460.513093,None,,,,,8,001,2022_Sep_29_1548,Version4,2021.2.0,238.3966395608116,
blue_incongruent,0,a,right,blue,0.6,,,,,,,,,,,,,7,0,42,2,,,460.9218625,None,,,,,,,,,,,,461.93113370000003,None,a,1,0.43446499999993193,461.93113370000003,None,,,,,8,001,2022_Sep_29_1548,Version4,2021.2.0,238.3966395608116,
red_incongruent,0,k,left,red,-0.6,,,,,,,,,,,,,7,1,43,3,,,462.3817451,None,,,,,,,,,,,,463.4206434,None,k,1,0.3532787999999982,463.4206434,None,,,,,8,001,2022_Sep_29_1548,Version4,2021.2.0,238.3966395608116,
blue_incongruent,0,a,right,blue,0.6,,,,,,,,,,,,,7,2,44,2,,,463.7875526,None,,,,,,,,,,,,464.8677,None,a,1,0.39441150000004654,464.8677,None,,,,,8,001,2022_Sep_29_1548,Version4,2021.2.0,238.3966395608116,
red_neutral,0,k,middle,red,0,,,,,,,,,,,,,7,3,45,4,,,465.27648320000003,None,,,,,,,,,,,,466.3861044,None,k,1,0.4202635999999984,466.3861044,None,,,,,8,001,2022_Sep_29_1548,Version4,2021.2.0,238.3966395608116,
red_congruent,1,k,right,red,0.6,,,,,,,,,,,,,7,4,46,1,,,466.8199522,None,,,,,,,,,,,,467.9418961,None,k,1,0.5126030000000128,467.9418961,None,,,,,8,001,2022_Sep_29_1548,Version4,2021.2.0,238.3966395608116,
red_congruent,1,k,right,red,0.6,,,,,,,,,,,,,7,5,47,1,,,468.46736740000006,None,,,,,,,,,,,,469.5016575000001,None,k,1,0.3772518000000673,469.5016575000001,None,,,,,8,001,2022_Sep_29_1548,Version4,2021.2.0,238.3966395608116,
,,,,,,,,,,,,,,,,,,,,,,,,,,,,,,,,,,,,,,,,,,,,space,27.220105500000045,,,8,001,2022_Sep_29_1548,Version4,2021.2.0,238.3966395608116,
,,,,,,,,,,,,,,,,,,,,,,,,,,,,,,,,,,,,,,,,,,,,,,space,4.807446900000059,8,001,2022_Sep_29_1548,Version4,2021.2.0,238.3966395608116,
