"","sub","item","cond","seq","trial_type","trial_start","trial_end","target_word_n","target_word","target_changed","Dis_on_t","Dis_off_t","boundary","DC_start_t","DC_end_t","boundary_t","boundarycond","Display_time","Display_lat","sacc_start_t","sacc_end_t","sacc_dur","sacc_start_x","sacc_end_x","sacc_ampl","peak_vel","avg_vel","blink","blink_dur","fix_start_t","fix_end_t","fix_dur","question","corrAns","key_resp","RT_q","accuracy","corr_sacc","jhook"
"1",3,2,"ben",1,"practice",3087802,3092274,6,"aya","bir",3088288,3090673,"759",3089337,3089343,3089335,"sacc",5.709,2,3089316,3089350,34,663.5,837,4.28545,226.004999999999,120.959428571429,"NO",NA,3089351,3089634,283,"Yes","LEFT","left",1258.74,1,"Yes",NA
"2",3,5,"identical",2,"practice",3094155,3096736,5,"i?e","identical",3094503,3096434,"460",3095283,3095291,3095285,"identical",7.732,-2,3095469,3095490,21,459.2,534,1.84756,124.735,80.9486363636364,"NO",NA,3095491,3095687,196,"No",NA,NA,NA,NA,NA,NA
"3",3,4,"ben",3,"practice",3098610,3101421,5,"eve","bir",3099116,3101122,"472",3099956,3099963,3099955,"sacc",6.56,1,3099936,3099958,22,397.1,481.6,2.08715,143.26,89.510652173913,"NO",NA,3099959,3100259,300,"No",NA,NA,NA,NA,"Yes",NA
"4",3,9,"identical",4,"practice",3103311,3106767,7,"?ok","identical",3103880,3105844,"605",3104945,3104951,3104942,"identical",6.173,3,3104931,3104960,29,567.8,692.2,3.07268,206.245000000001,101.846333333333,"NO",NA,3104961,3105175,214,"Yes","RIGHT","left",610.487,0,NA,NA
"5",3,10,"ben",5,"practice",3109902,3112551,5,"ta?","ben",3110461,3112251,"472",3111091,3111100,3111089,"sacc",8.509,2,3111061,3111093,32,309.7,481,4.23111,240.825,127.766363636364,"NO",NA,3111094,3111384,290,"No",NA,NA,NA,NA,"Yes",NA
"6",3,1,"identical",6,"practice",3114427,3117561,6,"ak?","identical",3115442,3117256,"582",3116301,3116310,3116299,"identical",8.325,2,3116276,3116315,39,409.1,675.1,6.5702,375.44,164.008,"NO",NA,3116316,3116604,288,"No",NA,NA,NA,NA,NA,NA
"7",3,7,"identical",7,"practice",3119430,3122749,4,"kez","identical",3120443,3122448,"424",3121270,3121277,3121268,"identical",7.23,2,3121259,3121279,20,396.2,471.5,1.85991,140.79,86.0383333333333,"NO",NA,3121280,3121471,191,"No",NA,NA,NA,NA,NA,NA
"8",3,3,"identical",8,"practice",3126082,3129091,3,"hi?","identical",3126692,3128783,"341",3127380,3127388,3127378,"identical",7.99,2,3127369,3127391,22,310.8,405.6,2.34156,193.895,99.4980434782609,"NO",NA,3127392,3127644,252,"No",NA,NA,NA,NA,NA,NA
"9",3,8,"ben",9,"practice",3131194,3134685,9,"ara","ben",3131584,3134384,"820",3133005,3133011,3133004,"sacc",5.466,1,3132986,3133010,24,739.4,842.7,2.55151,175.369999999999,100.282,"NO",NA,3133011,3133399,388,"No",NA,NA,NA,NA,"Yes",NA
"10",3,6,"ben",10,"practice",3136619,3140857,7,"g?l","ben",3137579,3139747,"546",3138590,3138596,3138588,"sacc",5.865,2,3138570,3138591,21,471.1,549.7,1.94142,156.845000000001,87.0113636363637,"NO",NA,3138592,3138972,380,"Yes","RIGHT","left",792.5,0,"Yes",NA
"11",3,47,"identical",11,"exp_1",3143692,3148111,7,"yan","identical",3144828,3147189,"557",3145983,3145992,3145980,"identical",8.493,3,3146288,3146317,29,556.5,688.3,3.25546,222.3,106.868666666667,"NO",NA,3145980,3146287,307,"Yes","RIGHT","left",600.22,0,NA,NA
"12",3,38,"ben",12,"exp_1",3150196,3154832,7,"i?e","bir",3150927,3153544,"641",3152374,3152382,3152372,"sacc",7.767,2,3152354,3152380,26,567.5,672.5,2.5935,182.779999999999,96.9246296296296,"NO",NA,3152381,3152718,337,"Yes","LEFT","left",968.849,1,"Yes",NA
"13",3,44,"ben",13,"exp_1",3156725,3161653,5,"eve","ben",3157225,3160354,"508",3158401,3158409,3158400,"fix",8.181,1,3158599,3158624,25,518,625.8,2.66266,198.835,101.4125,"NO",NA,3158399,3158598,199,"Yes","LEFT","left",966.107,1,"Yes",NA
"14",3,7,"identical",14,"exp_1",3163447,3168056,6,"a?k","identical",3164479,3167738,"449",3166653,3166660,3166651,"identical",6.907,2,3166836,3166864,28,467,582.2,2.84544,176.605000000001,97.6927586206897,"NO",NA,3166654,3166835,181,"No",NA,NA,NA,NA,NA,NA
"15",3,60,"ben",15,"exp_1",3169988,3173925,4,"ac?","ben",3170443,3172943,"448",3171296,3171303,3171293,"fix",6.406,3,3171688,3171704,16,466,514.1,1.18807,112.385,66.9805882352941,"NO",NA,3171291,3171687,396,"Yes","LEFT","left",659.532,1,"Yes",NA
"16",3,31,"identical",16,"exp_1",3176442,3179102,4,"kar","identical",3176963,3178770,"377",3177681,3177689,3177679,"identical",7.307,2,3177672,3177699,27,366,497.7,3.25299,212.42,116.178214285714,"NO",NA,3177700,3177892,192,"No",NA,NA,NA,NA,NA,NA
"17",3,74,"ben",17,"exp_1",3180990,3184379,5,"ile","ben",3181635,3184044,"630",3182638,3182644,3182636,"sacc",5.764,2,3182614,3182642,28,502.3,650.2,3.65313,245.765000000001,124.522068965517,"NO",NA,3182643,3182822,179,"No",NA,NA,NA,NA,"Yes",NA
"18",3,12,"ben",18,"exp_1",3186108,3189698,3,"caz","bir",3186619,3188468,"245",3187051,3187057,3187048,"sacc",5.886,3,3187036,3187059,23,195,300.7,2.61079,175.37,108.216875,"NO",NA,3187060,3187356,296,"Yes","LEFT","left",904.757,1,"Yes",NA
"19",3,40,"ben",19,"exp_1",3191688,3194400,6,"t?m","bir",3192171,3194084,"604",3193143,3193151,3193141,"sacc",8.079,2,3193123,3193153,30,510.5,654.3,3.55186,213.654999999999,114.058225806452,"NO",NA,3193154,3193497,343,"No",NA,NA,NA,NA,"Yes",NA
"20",3,58,"ben",20,"exp_1",3196284,3201019,7,"t?m","ben",3196855,3200682,"558",3197840,3197848,3197838,"sacc",7.83,2,3197822,3197855,33,480.8,663.4,4.51022,275.404999999999,135.159852941176,"NO",NA,3197856,3198294,438,"No",NA,NA,NA,NA,"Yes",NA
"21",3,5,"identical",21,"exp_1",3202933,3206072,6,"bo?","identical",3203512,3205754,"604",3204646,3204656,3204643,"identical",9.161,3,3204879,3204906,27,615.2,745.1,3.20853,255.644999999999,113.531785714286,"NO",NA,3204647,3204878,231,"No",NA,NA,NA,NA,NA,NA
"22",3,15,"identical",22,"exp_1",3207882,3212074,4,"mal","identical",3208347,3210976,"387",3209101,3209110,3209099,"identical",8.995,2,3209247,3209258,11,384.1,361,0.570570000000001,71.6299999999994,43.6366666666667,"NO",NA,3209097,3209246,149,"Yes","LEFT","left",776.601,1,NA,NA
"23",3,29,"identical",23,"exp_1",3213842,3217160,6,"kez","identical",3214174,3216842,"568",3215088,3215096,3215087,"identical",7.721,1,3215277,3215306,29,572.9,717.7,3.57656,238.354999999999,118.354166666667,"NO",NA,3215089,3215276,187,"No",NA,NA,NA,NA,NA,NA
"24",3,10,"ben",24,"exp_1",3219002,3223737,5,"bot","bir",3219350,3222414,"483",3220431,3220439,3220429,"sacc",7.976,2,3220423,3220442,19,470,532.5,1.54375,132.145,76.57,"NO",NA,3220443,3220888,445,"Yes","LEFT","left",1005.163,1,"Yes",NA
"25",3,16,"ben",25,"exp_1",3226076,3228974,5,"zar","bir",3226600,3228654,"484",3227651,3227659,3227649,"sacc",8.329,2,3227634,3227652,18,440.1,493.8,1.32639,90.1550000000001,67.21,"NO",NA,3227653,3227824,171,"No",NA,NA,NA,NA,"Yes",NA
"26",3,50,"ben",26,"exp_1",3231009,3233992,8,"hep","ben",3231489,3233674,"761",3232761,3232769,3232759,"sacc",7.928,2,3232738,3232764,26,655.3,784.1,3.18136,243.295000000001,117.462222222222,"NO",NA,3232765,3232952,187,"No",NA,NA,NA,NA,"Yes",NA
"27",3,52,"ben",27,"exp_1",3237082,3241061,7,"mum","ben",3237783,3240073,"594",3238848,3238855,3238846,"sacc",6.666,2,3238834,3238862,28,540.5,681.1,3.47282,227.24,118.347068965517,"NO",NA,3238863,3239139,276,"Yes","LEFT","left",667.006,1,"Yes",NA
"28",3,69,"identical",28,"exp_1",3243013,3247156,4,"ton","identical",3243602,3245493,"340",3244164,3244173,3244162,"identical",9.052,2,3244151,3244175,24,300.5,395.4,2.34403,169.195000000001,91.9828,"NO",NA,3244176,3244444,268,"Yes","LEFT","left",1337.564,1,NA,NA
"29",3,28,"ben",29,"exp_1",3249159,3252592,8,"iri","bir",3249621,3251807,"581",3250696,3250705,3250693,"fix",9.006,3,3251040,3251065,25,588.3,687.2,2.44283,187.719999999999,93.6225000000001,"NO",NA,3250695,3251039,344,"Yes","RIGHT","left",455.3,0,"Yes",NA
"30",3,34,"ben",30,"exp_1",3254694,3258645,8,"g?l","bir",3255164,3258328,"617",3256555,3256562,3256554,"sacc",6.453,1,3256541,3256567,26,571.1,674.2,2.54657,167.959999999999,93.9057407407408,"NO",NA,3256568,3256765,197,"No",NA,NA,NA,NA,"Yes",NA
"31",3,26,"ben",31,"exp_1",3261098,3264297,4,"iyi","bir",3261867,3263979,"352",3262565,3262573,3262563,"fix",7.226,2,3262867,3262896,29,351.7,482.9,3.24064,223.535,108.5565,"NO",NA,3262555,3262866,311,"No",NA,NA,NA,NA,"Yes",NA
"32",3,65,"identical",32,"exp_1",3266272,3270799,6,"eve","identical",3266740,3270476,"604",3267981,3267991,3267980,"identical",9.484,1,3267959,3267985,26,501.6,617,2.85038,245.765,105.020740740741,"NO",NA,3267986,3268125,139,"No",NA,NA,NA,NA,NA,NA
"33",3,57,"identical",33,"exp_1",3272825,3277011,7,"sos","identical",3274043,3276688,"519",3274579,3274586,3274577,"identical",6.243,2,3274545,3274580,35,315.5,519.9,5.04868,275.405,140.344027777778,"NO",NA,3275086,3275327,241,"No",NA,NA,NA,NA,NA,NA
"34",3,61,"identical",34,"exp_1",3278831,3282004,3,"k?f","identical",3279758,3281689,"377",3280526,3280533,3280524,"identical",7.154,2,3280754,3280777,23,385.2,474.3,2.20077,159.315,89.5375,"NO",NA,3280526,3280753,227,"No",NA,NA,NA,NA,NA,NA
"35",3,22,"ben",35,"exp_1",3283915,3287641,7,"ge?","bir",3284955,3287324,"593",3286071,3286077,3286069,"sacc",5.636,2,3286050,3286081,31,498.4,645.3,3.62843,239.59,112.385,"NO",NA,3286082,3286444,362,"No",NA,NA,NA,NA,"Yes",NA
"36",3,23,"identical",36,"exp_1",3289619,3292959,6,"kez","identical",3290181,3292635,"642",3291332,3291341,3291330,"identical",8.711,2,3291316,3291339,23,588.6,676.8,2.17854,171.665000000001,89.6404166666666,"NO",NA,3291340,3291541,201,"No",NA,NA,NA,NA,NA,NA
"37",3,8,"ben",37,"exp_1",3295092,3299379,4,"ney","bir",3296722,3299061,"316",3297373,3297381,3297371,"sacc",7.801,2,3297361,3297378,17,286.5,336.5,1.235,98.8,66.4155555555556,"NO",NA,3297379,3297664,285,"No",NA,NA,NA,NA,"Yes",NA
"38",3,19,"identical",38,"exp_1",3301327,3304981,4,"i?i","identical",3301911,3304667,"544",3303207,3303217,3303206,"identical",9.238,1,3303197,3303221,24,520.3,623.1,2.53916,187.720000000001,100.7266,"NO",NA,3303222,3303494,272,"No",NA,NA,NA,NA,NA,NA
"39",3,72,"ben",39,"exp_1",3306983,3312059,10,"kez","ben",3307442,3311740,"893",3309843,3309853,3309842,"sacc",9.403,1,3309806,3309847,41,567.4,910.3,8.46963,389.025,201.422619047619,"NO",NA,3309848,3310225,377,"No",NA,NA,NA,NA,"Yes",NA
"40",3,53,"identical",40,"exp_1",3314015,3317094,6,"ile","identical",3314575,3316784,"508",3315631,3315638,3315629,"identical",6.968,2,3315623,3315650,27,500.3,655.8,3.84085,301.34,136.335178571429,"NO",NA,3315651,3315804,153,"No",NA,NA,NA,NA,NA,NA
"41",3,45,"identical",41,"exp_1",3319154,3324248,8,"s?t","identical",3319880,3323181,"651",3321254,3321261,3321375,"identical",6.752,-121,3321526,3321551,25,648.6,742,2.30698,180.31,93.29,"NO",NA,3321552,3321839,287,"Yes","RIGHT","left",741.527,0,NA,NA
"42",3,76,"ben",42,"exp_1",3326393,3330509,7,"ruj","ben",3326951,3330193,"654",3328462,3328469,3328459,"sacc",6.621,3,3328451,3328466,15,636.8,674.9,0.941070000000001,118.56,58.6625,"NO",NA,3328467,3328957,490,"No",NA,NA,NA,NA,"Yes",NA
"43",3,48,"ben",43,"exp_1",3332423,3336219,5,"ta?","ben",3333091,3335908,"521",3334040,3334046,3334038,"fix",5.547,2,3334627,3334645,18,527.6,579.8,1.28934,111.15,64.3499999999999,"NO",NA,3334039,3334626,587,"No",NA,NA,NA,NA,"Yes",NA
"44",3,73,"identical",44,"exp_1",3338379,3343981,9,"hak","identical",3338909,3342283,"844",3340973,3340983,3340970,"identical",9.086,3,3340936,3340982,46,473.9,878.7,9.99856,445.835,212.709042553192,"NO",NA,3340983,3341354,371,"Yes","LEFT","left",1368.648,1,NA,NA
"45",3,25,"identical",45,"exp_1",3346492,3350717,5,"zor","identical",3347047,3349175,"448",3347965,3347973,3347963,"identical",7.945,2,3347953,3347981,28,417.5,544.8,3.14431,201.305,107.870862068965,"NO",NA,3347982,3348192,210,"Yes","RIGHT","left",1198.861,0,NA,NA
"46",3,30,"ben",46,"exp_1",3352627,3359504,6,"yol","bir",3354676,3357985,"592",3356048,3356057,3356047,"sacc",8.769,1,3356031,3356057,26,515.3,642.7,3.14678,230.944999999999,116.5175,"NO",NA,3356058,3356325,267,"Yes","LEFT","left",1182.843,1,"Yes",NA
"47",3,20,"ben",47,"exp_1",3362247,3365857,4,"tuz","bir",3362952,3365538,"364",3363737,3363745,3363735,"sacc",7.418,2,3363727,3363748,21,346.1,427.4,2.00811,181.545,89.6497727272727,"NO",NA,3363749,3364021,272,"No",NA,NA,NA,NA,"Yes",NA
"48",3,17,"identical",48,"exp_1",3368889,3372428,3,"kar","identical",3369476,3372110,"303",3370647,3370656,3370645,"identical",9,2,3370632,3370661,29,246,400.6,3.81862,342.095,128.687,"NO",NA,3370662,3371052,390,"No",NA,NA,NA,NA,NA,NA
"49",3,51,"identical",49,"exp_1",3374464,3378271,7,"hi?","identical",3374928,3377953,"688",3376597,3376604,3376595,"identical",7,2,3376577,3376605,28,592.5,721.9,3.19618,196.365,108.978103448276,"NO",NA,3376606,3376810,204,"No",NA,NA,NA,NA,NA,NA
"50",3,49,"identical",50,"exp_1",3380314,3384406,5,"top","identical",3380792,3382886,"495",3381872,3381881,3381870,"identical",8.727,2,3381864,3381889,25,486.7,582.9,2.37614,163.020000000001,91.2,"NO",NA,3381890,3382169,279,"Yes","RIGHT","left",1196.757,0,NA,NA
"51",3,4,"ben",51,"exp_1",3386356,3390750,6,"???","bir",3386903,3390439,"461",3387753,3387762,3387751,"sacc",9.077,2,3387738,3387761,23,411.1,503.8,2.28969,184.015,95.1464583333333,"NO",NA,3387762,3388020,258,"No",NA,NA,NA,NA,"Yes",NA
"52",3,21,"identical",52,"exp_1",3392419,3396804,3,"dut","identical",3392989,3394974,"305",3393830,3393836,3393828,"identical",5.295,2,3393988,3394010,22,304.2,384.5,1.98341,175.37,85.5908695652174,"NO",NA,3393827,3393987,160,"Yes","LEFT","left",1502.601,1,NA,NA
"53",3,68,"ben",53,"exp_1",3398786,3402598,8,"onu","ben",3399233,3402278,"712",3401414,3401423,3401412,"sacc",8.644,2,3401400,3401421,21,682,741.6,1.47212,132.145000000001,68.5986363636364,"NO",NA,3401422,3401891,469,"No",NA,NA,NA,NA,"Yes",NA
"54",3,55,"identical",54,"exp_1",3404427,3407316,3,"ipi","identical",3404960,3406995,"318",3405663,3405669,3405661,"identical",5.79,2,3405656,3405681,25,312,419.6,2.65772,201.304999999999,101.6025,"NO",NA,3405682,3405921,239,"No",NA,NA,NA,NA,NA,NA
"55",3,9,"identical",55,"exp_1",3409744,3414753,5,"ku?","identical",3410195,3412735,"436",3411054,3411063,3411053,"identical",8.362,1,3411040,3411059,19,393.9,458.3,1.59068,138.32,77.99025,"NO",NA,3411060,3411391,331,"Yes","LEFT","left",1688.548,1,NA,NA
"56",3,80,"ben",56,"exp_1",3416667,3423173,5,"hep","ben",3418533,3421080,"389",3419433,3419442,3419431,"sacc",9.165,2,3419421,3419444,23,357,436.4,1.96118,149.435,80.58375,"NO",NA,3419445,3419710,265,"Yes","LEFT","left",1763.755,1,"Yes",NA
"57",3,13,"identical",57,"exp_1",3425953,3431093,7,"kar","identical",3426705,3430781,"532",3429417,3429424,3429415,"identical",6.839,2,3429401,3429430,29,465.8,638.8,4.2731,390.26,148.488166666667,"NO",NA,3429431,3429664,233,"No",NA,NA,NA,NA,NA,NA
"58",3,64,"ben",58,"exp_1",3433129,3437804,7,"iyi","ben",3433883,3437488,"665",3435964,3435973,3435962,"fix",8.623,2,3436362,3436385,23,677.4,771.9,2.33415,217.359999999999,96.9989583333333,"NO",NA,3436386,3436624,238,"No",NA,NA,NA,NA,"Yes",NA
"59",3,11,"identical",59,"exp_1",3439785,3448217,8,"?il","identical",3440941,3444781,"676",3442929,3442939,3442927,"identical",9.537,2,3442916,3442944,28,651.3,764.8,2.80345,237.119999999999,96.3725862068966,"NO",NA,3442945,3443135,190,"Yes","LEFT","left",3110.513,1,NA,NA
"60",3,59,"identical",60,"exp_1",3450325,3456062,5,"?ok","identical",3450952,3454991,"448",3452288,3452295,3452286,"identical",6.515,2,3452272,3452293,21,394.4,473.5,1.95377,143.26,87.1236363636364,"NO",NA,3452294,3452504,210,"Yes","RIGHT","left",745.004,0,NA,NA
"61",3,2,"ben",61,"exp_1",3458135,3462957,6,"bol","bir",3458823,3462639,"567",3461078,3461088,3461076,"sacc",9.419,2,3461058,3461080,22,498,583.3,2.10691,155.61,90.5308695652174,"NO",NA,3461081,3461530,449,"No",NA,NA,NA,NA,"Yes",NA
"62",3,3,"identical",62,"exp_1",3464902,3467901,5,"nar","identical",3465338,3467585,"400",3466269,3466277,3466266,"identical",7.415,3,3466259,3466280,21,386.5,454.3,1.67466,150.670000000001,75.335,"NO",NA,3466281,3466576,295,"No",NA,NA,NA,NA,NA,NA
"63",3,27,"identical",63,"exp_1",3470855,3476554,6,"ile","identical",3471624,3476240,"496",3473256,3473264,3473254,"identical",7.274,2,3473250,3473268,18,489,542.4,1.31898,128.440000000001,67.405,"NO",NA,3473269,3473501,232,"No",NA,NA,NA,NA,NA,NA
"64",3,63,"identical",64,"exp_1",3478603,3482916,9,"k?z","identical",3479107,3482598,"664",3481443,3481451,3481441,"identical",8.021,2,3481426,3481453,27,605.2,702.3,2.39837,198.834999999999,85.215,"NO",NA,3481454,3481751,297,"No",NA,NA,NA,NA,NA,NA
"65",3,81,"identical",65,"exp_1",3484923,3490110,6,"ile","identical",3486328,3489793,"618",3487520,3487529,3487519,"identical",8.453,1,3487495,3487524,29,495.8,632.6,3.37896,280.344999999999,111.891,"NO",NA,3487525,3487738,213,"No",NA,NA,NA,NA,NA,NA
"66",3,71,"identical",66,"exp_1",3492066,3495554,5,"iyi","identical",3492572,3495242,"450",3493703,3493711,3493701,"identical",7.243,2,3493692,3493713,21,418.9,495.2,1.88461,149.435,84.0361363636364,"NO",NA,3493714,3493922,208,"No",NA,NA,NA,NA,NA,NA
"67",3,33,"identical",67,"exp_1",3497378,3501690,7,"eve","identical",3497869,3500192,"617",3499255,3499263,3499253,"identical",7.012,2,3499241,3499260,19,577.2,643.7,1.64255,143.259999999999,79.59575,"NO",NA,3499261,3499354,93,"Yes","RIGHT","left",1173.108,0,NA,NA
"68",3,75,"identical",68,"exp_1",3503749,3509419,6,"?ok","identical",3504660,3509104,"508",3506405,3506412,3506403,"identical",6.514,2,3506588,3506607,19,523.1,590.8,1.67219,205.01,80.769,"NO",NA,3506405,3506587,182,"No",NA,NA,NA,NA,NA,NA
"69",3,6,"ben",69,"exp_1",3511326,3515046,6,"toz","bir",3511826,3514730,"460",3513437,3513444,3513435,"sacc",7.155,2,3513423,3513440,17,418.9,478,1.45977,139.555,79.04,"NO",NA,3513441,3513779,338,"No",NA,NA,NA,NA,"Yes",NA
"70",3,54,"ben",70,"exp_1",3517185,3521448,7,"?t?","ben",3517757,3521130,"654",3519081,3519088,3519078,"fix",6.958,3,3519576,3519597,21,650.9,732.1,2.00564,171.665,88.3586363636364,"NO",NA,3519598,3519948,350,"No",NA,NA,NA,NA,"Yes",NA
"71",3,67,"identical",71,"exp_1",3523274,3527268,6,"ama","identical",3524490,3526948,"522",3525905,3525912,3525902,"identical",6.812,3,3525882,3525910,28,440.8,552.2,2.75158,172.9,93.5193103448276,"NO",NA,3525911,3526266,355,"No",NA,NA,NA,NA,NA,NA
"72",3,42,"ben",72,"exp_1",3530266,3533228,5,"ay?","ben",3531285,3532917,"413",3532158,3532165,3532156,"sacc",6.457,2,3532151,3532169,18,402.7,466.1,1.56598,138.32,81.185,"NO",NA,3532170,3532341,171,"No",NA,NA,NA,NA,"Yes",NA
"73",3,62,"ben",73,"exp_1",3535187,3538322,4,"kot","ben",3536040,3538003,"413",3536742,3536749,3536739,"sacc",6.603,3,3536718,3536745,27,316.4,427.2,2.73676,179.075,97.4767857142857,"NO",NA,3536746,3537023,277,"No",NA,NA,NA,NA,"Yes",NA
"74",3,35,"identical",74,"exp_1",3540251,3544942,6,"eve","identical",3540791,3544631,"544",3541965,3541971,3541963,"identical",5.861,2,3542173,3542197,24,541.8,638.8,2.3959,205.009999999999,97.8613999999999,"NO",NA,3542198,3542391,193,"No",NA,NA,NA,NA,NA,NA
"75",3,78,"ben",75,"exp_1",3546996,3550352,5,"g?n","ben",3547848,3550036,"473",3548976,3548983,3548974,"sacc",6.622,2,3548956,3548982,26,372.5,497.3,3.08256,234.65,113.208333333333,"NO",NA,3548983,3549347,364,"No",NA,NA,NA,NA,"Yes",NA
"76",3,36,"ben",76,"exp_1",3552452,3556205,7,"?ok","bir",3553012,3555886,"591",3554321,3554331,3554318,"sacc",9.281,3,3554299,3554324,25,509.4,608.5,2.44777,172.9,94.2875,"NO",NA,3554325,3554604,279,"No",NA,NA,NA,NA,"Yes",NA
"77",3,32,"ben",77,"exp_1",3558143,3561899,4,"s?t","bir",3558619,3561580,"377",3559630,3559636,3559627,"sacc",5.868,3,3559616,3559636,20,343.8,401.4,1.42272,108.68,67.73975,"NO",NA,3559637,3560304,667,"No",NA,NA,NA,NA,"Yes",NA
"78",3,46,"ben",78,"exp_1",3563767,3568243,4,"?ok","ben",3564249,3567929,"268",3565904,3565914,3565902,"sacc",9.483,2,3565889,3565908,19,223.6,286,1.54128,138.32,75.582,"NO",NA,3565909,3566347,438,"No",NA,NA,NA,NA,"Yes",NA
"79",3,70,"ben",79,"exp_1",3570076,3573530,6,"iyi","ben",3570715,3573209,"545",3571684,3571691,3571681,"fix",6.761,3,3571862,3571888,26,546.6,644,2.40578,200.070000000001,88.2338888888889,"NO",NA,3571680,3571861,181,"No",NA,NA,NA,NA,"Yes",NA
"80",3,79,"identical",80,"exp_1",3575601,3579307,7,"kol","identical",3576221,3578993,"676",3577914,3577923,3577912,"identical",8.43,2,3577895,3577918,23,614.5,699.4,2.09703,182.779999999999,86.0897916666666,"NO",NA,3577919,3578115,196,"No",NA,NA,NA,NA,NA,NA
"81",3,14,"ben",81,"exp_1",3581409,3585876,5,"?am","bir",3581956,3585562,"545",3582856,3582866,3582855,"sacc",9.426,1,3582838,3582866,28,469,589.2,2.96894,203.775,104.842678571429,"NO",NA,3582867,3583180,313,"No",NA,NA,NA,NA,"Yes",NA
"82",3,66,"ben",82,"exp_1",3587787,3590770,6,"hi?","ben",3588280,3590455,"617",3589325,3589331,3589323,"sacc",5.362,2,3589302,3589335,33,446.9,680.3,5.76498,361.855000000001,169.521911764706,"NO",NA,3589336,3589597,261,"No",NA,NA,NA,NA,"Yes",NA
"83",3,1,"identical",83,"exp_1",3592658,3596856,6,"ile","identical",3593152,3595324,"484",3594192,3594199,3594190,"identical",6.42,2,3594418,3594452,34,482.6,661.6,4.4213,314.925,126.287571428571,"NO",NA,3594188,3594417,229,"Yes","LEFT","left",1191.987,1,NA,NA
"84",3,24,"ben",84,"exp_1",3598660,3602141,7,"eko","bir",3599137,3601826,"653",3601096,3601102,3601093,"sacc",5.759,3,3601081,3601105,24,620.2,702.1,2.02293,155.609999999999,80.4726,"NO",NA,3601106,3601520,414,"No",NA,NA,NA,NA,"Yes",NA
"85",3,77,"identical",85,"exp_1",3603906,3608244,5,"gri","identical",3604439,3606809,"436",3605525,3605532,3605523,"identical",6.425,2,3605506,3605527,21,374.5,445.8,1.76111,151.905,79.3206818181818,"NO",NA,3605528,3605920,392,"Yes","RIGHT","left",1110.517,0,NA,NA
"86",3,56,"ben",86,"exp_1",3611416,3616864,7,"kez","ben",3612239,3616550,"738",3614277,3614287,3614275,"fix",9.838,2,3614589,3614613,24,750.8,827,1.88214,135.85,75.088,"NO",NA,3614278,3614588,310,"No",NA,NA,NA,NA,"Yes",NA
"87",3,41,"identical",87,"exp_1",3618680,3623509,4,"ter","identical",3619263,3623190,"376",3620535,3620544,3620533,"identical",8.701,2,3620519,3620547,28,324.3,447.6,3.04551,226.005,104.889827586207,"NO",NA,3620548,3620921,373,"No",NA,NA,NA,NA,NA,NA
"88",3,39,"identical",88,"exp_1",3625431,3632229,4,"kar","identical",3625987,3630117,"388",3627633,3627639,3627630,"identical",5.695,3,3627627,3627649,22,381.8,463.8,2.0254,161.785,86.3426086956522,"NO",NA,3627650,3628186,536,"Yes","LEFT","left",1789.714,1,NA,NA
"89",3,37,"identical",89,"exp_1",3634475,3637290,4,"fes","identical",3635122,3636968,"449",3636327,3636336,3636325,"identical",8.694,2,3636317,3636339,22,429.5,508.6,1.95377,158.08,83.2819565217391,"NO",NA,3636340,3636772,432,"No",NA,NA,NA,NA,NA,NA
"90",3,18,"ben",90,"exp_1",3639235,3643917,5,"fal","bir",3639765,3643603,"472",3640759,3640766,3640757,"fix",6.561,2,3641066,3641074,8,468.3,452,0.40261,70.3949999999999,41.1666666666667,"NO",NA,3641734,3642031,297,"No",NA,NA,NA,NA,"Yes",NA
"91",3,43,"identical",91,"exp_1",3645820,3651079,7,"zor","identical",3646952,3650766,"497",3648641,3648649,3648642,"identical",8.122,-1,3648986,3649006,20,496.6,554,1.41778,165.490000000001,68.160238095238,"NO",NA,3649007,3649259,252,"No",NA,NA,NA,NA,NA,NA
"92",3,109,"identical",92,"exp_2",3744797,3750926,7,"?ok","identical",3745805,3749937,"653",3747249,3747256,3747247,"identical",7.19,2,3747230,3747253,23,587.4,677.3,2.22053,180.31,91.5958333333333,"NO",NA,3747254,3747458,204,"Yes","LEFT","left",651.122,1,NA,NA
"93",3,98,"ben",93,"exp_2",3752973,3756695,7,"?t?","bir",3753392,3756369,"748",3754967,3754973,3754965,"sacc",5.51,2,3754946,3754969,23,675.5,761,2.11185,160.55,86.7072916666667,"NO",NA,3754970,3755333,363,"No",NA,NA,NA,NA,"Yes",NA
"94",3,160,"ben",94,"exp_2",3758702,3762289,5,"kez","ben",3759153,3761962,"389",3759918,3759924,3759916,"sacc",6.156,2,3759899,3759919,20,325.6,395.4,1.72406,153.14,80.2161904761905,"NO",NA,3759920,3760144,224,"No",NA,NA,NA,NA,"Yes",NA
"95",3,131,"identical",95,"exp_2",3764192,3767466,6,"hap","identical",3764629,3767130,"483",3765666,3765672,3765665,"identical",5.808,1,3765653,3765676,23,443,528.2,2.10444,142.025,86.3985416666667,"NO",NA,3765677,3766077,400,"No",NA,NA,NA,NA,NA,NA
"96",3,126,"ben",96,"exp_2",3769421,3773678,5,"buz","ben",3770523,3773344,"557",3771534,3771541,3771532,"sacc",6.614,2,3771516,3771539,23,494,579.7,2.11679,203.775,87.530625,"NO",NA,3771540,3771919,379,"No",NA,NA,NA,NA,"Yes",NA
"97",3,150,"ben",97,"exp_2",3775696,3779571,5,"kez","ben",3776254,3779247,"472",3777150,3777160,3777149,"fix",9.297,1,3777510,3777527,17,472.9,516.1,1.06704,87.6850000000003,56.8786111111111,"NO",NA,3777528,3777793,265,"No",NA,NA,NA,NA,"Yes",NA
"98",3,134,"ben",98,"exp_2",3781603,3786116,7,"eve","ben",3782194,3784982,"663",3783550,3783558,3783548,"sacc",7.918,2,3783534,3783559,25,601.6,718.7,2.89237,203.775,112.4325,"NO",NA,3783560,3783888,328,"Yes","LEFT","left",798.648,1,"Yes",NA
"99",3,82,"ben",99,"exp_2",3788755,3795061,6,"s?t","bir",3789381,3792734,"496",3790586,3790595,3790585,"sacc",8.621,1,3790581,3790601,20,491.9,570.5,1.94142,196.365,91.3311904761905,"NO",NA,3790602,3790758,156,"Yes","LEFT","left",1989.707,1,"Yes",NA
"100",3,85,"identical",100,"exp_2",3797110,3800672,6,"iyi","identical",3797661,3800339,"531",3798912,3798921,3798910,"identical",8.37,2,3798895,3798923,28,472.6,597.3,3.08009,190.190000000001,104.84724137931,"NO",NA,3798924,3799073,149,"No",NA,NA,NA,NA,NA,NA
"101",3,93,"identical",101,"exp_2",3802622,3806908,4,"hep","identical",3803084,3806573,"435",3804510,3804519,3804509,"identical",8.18,1,3804498,3804527,29,404.8,542.5,3.40119,224.77,112.549666666667,"NO",NA,3804528,3804780,252,"No",NA,NA,NA,NA,NA,NA
"102",3,128,"ben",102,"exp_2",3808799,3816843,6,"?ok","ben",3809357,3812021,"617",3810587,3810596,3810585,"sacc",8.596,2,3810566,3810591,25,521.8,639.2,2.89978,207.479999999999,110.5325,"NO",NA,3810592,3810956,364,"Yes","RIGHT","left",4489.514,0,"Yes",NA
"103",3,127,"identical",103,"exp_2",3818616,3822796,5,"ucu","identical",3819389,3821890,"533",3820365,3820373,3820363,"identical",7.758,2,3820639,3820663,24,522.7,643.1,2.97388,232.179999999999,116.6828,"NO",NA,3820664,3820901,237,"Yes","LEFT","left",573.499,1,NA,NA
"104",3,139,"identical",104,"exp_2",3825666,3828448,6,"?ok","identical",3826204,3828122,"533",3827048,3827055,3827046,"identical",7.042,2,3827032,3827059,27,490.9,589.4,2.43295,165.490000000001,86.3617857142857,"NO",NA,3827060,3827262,202,"No",NA,NA,NA,NA,NA,NA
"105",3,95,"identical",105,"exp_2",3830426,3834234,5,"zil","identical",3831544,3833910,"497",3832745,3832753,3832743,"identical",8.058,2,3832736,3832755,19,481.7,543.9,1.53634,135.85,75.64375,"NO",NA,3832756,3832917,161,"No",NA,NA,NA,NA,NA,NA
"106",3,135,"identical",106,"exp_2",3836125,3839122,6,"tuz","identical",3836682,3838788,"508",3837577,3837584,3837575,"identical",6.208,2,3837875,3837903,28,500.5,615.8,2.84791,227.24,97.8205172413793,"NO",NA,3837904,3838060,156,"No",NA,NA,NA,NA,NA,NA
"107",3,88,"ben",107,"exp_2",3841036,3846648,5,"ada","bir",3841771,3846322,"509",3843328,3843336,3843327,"sacc",7.296,1,3843320,3843341,21,496.1,580.3,2.07974,159.315,92.3443181818182,"NO",NA,3843342,3843675,333,"No",NA,NA,NA,NA,"Yes",NA
"108",3,123,"identical",108,"exp_2",3848580,3852595,6,"eve","identical",3849075,3852253,"534",3850745,3850752,3850742,"identical",6.659,3,3850728,3850756,28,473,597.3,3.07021,213.654999999999,104.975,"NO",NA,3850757,3850979,222,"No",NA,NA,NA,NA,NA,NA
"109",3,149,"identical",109,"exp_2",3854805,3860787,6,"ilk","identical",3855323,3859016,"545",3856798,3856804,3856796,"identical",6.124,2,3856779,3856801,22,474.8,551.8,1.9019,158.079999999999,82.2080434782608,"NO",NA,3856802,3857039,237,"Yes","RIGHT","left",1439.999,0,NA,NA
"110",3,156,"ben",110,"exp_2",3863815,3867218,5,"yem","ben",3864308,3866889,"568",3865233,3865243,3865231,"fix",9.324,2,3865648,3865670,22,569.3,642.3,1.8031,172.9,77.0532608695652,"NO",NA,3865230,3865647,417,"No",NA,NA,NA,NA,"Yes",NA
"111",3,122,"ben",111,"exp_2",3869175,3872553,8,"?ok","ben",3869727,3872222,"665",3870949,3870957,3870947,"sacc",7.979,2,3870926,3870952,26,549.9,675,3.08997,244.530000000001,112.659444444444,"NO",NA,3870953,3871251,298,"No",NA,NA,NA,NA,"Yes",NA
"112",3,99,"identical",112,"exp_2",3874530,3878061,6,"zor","identical",3875558,3877736,"472",3876410,3876417,3876648,"identical",7.024,-238,3876646,3876666,20,469.2,548.3,1.95377,181.545,89.2728571428571,"NO",NA,3876667,3876813,146,"No",NA,NA,NA,NA,NA,NA
"113",3,103,"identical",113,"exp_2",3879861,3882546,4,"kek","identical",3880401,3882223,"448",3881236,3881243,3881234,"identical",6.911,2,3881229,3881256,27,439.9,547.1,2.64784,164.255,94.6539285714286,"NO",NA,3881257,3881482,225,"No",NA,NA,NA,NA,NA,NA
"114",3,144,"ben",114,"exp_2",3884663,3889791,11,"?ut","ben",3885715,3889467,"906",3887688,3887696,3887685,"sacc",7.736,3,3887666,3887690,24,825.4,921.9,2.38355,177.84,94.8973999999999,"NO",NA,3887691,3888165,474,"No",NA,NA,NA,NA,"Yes",NA
"115",3,107,"identical",115,"exp_2",3891698,3895585,5,"tok","identical",3892205,3894550,"448",3893072,3893081,3893070,"identical",8.947,2,3893051,3893075,24,374.1,461,2.14643,164.255,85.0174,"NO",NA,3893076,3893310,234,"Yes","RIGHT","left",703.24,0,NA,NA
"116",3,121,"identical",116,"exp_2",3898828,3905656,9,"toz","identical",3899947,3904459,"723",3901575,3901582,3901573,"identical",6.525,2,3901734,3901756,22,736.6,817.1,1.98835,151.905000000001,86.3426086956521,"NO",NA,3901575,3901733,158,"Yes","LEFT","left",866.058,1,NA,NA
"117",3,112,"ben",117,"exp_2",3907616,3910975,7,"top","bir",3908189,3910651,"568",3909564,3909570,3909563,"sacc",5.249,1,3909554,3909580,26,551.9,655.7,2.56386,180.31,94.8205555555556,"NO",NA,3909581,3909795,214,"No",NA,NA,NA,NA,"Yes",NA
"118",3,114,"ben",118,"exp_2",3913124,3917862,9,"kin","bir",3914104,3917540,"724",3915704,3915714,3915701,"fix",9.709,3,3916152,3916178,26,735,855.8,2.98376,226.005000000001,110.280925925926,"NO",NA,3915700,3916151,451,"No",NA,NA,NA,NA,"Yes",NA
"119",3,91,"identical",119,"exp_2",3920309,3923692,5,"k?f","identical",3921149,3923361,"485",3922200,3922209,3922197,"identical",8.251,3,3922184,3922202,18,444.5,495.7,1.26464,103.74,63.83,"NO",NA,3922203,3922383,180,"No",NA,NA,NA,NA,NA,NA
"120",3,152,"ben",120,"exp_2",3925565,3930200,3,"a??","ben",3926063,3928941,"294",3926996,3927006,3926993,"sacc",9.214,3,3926991,3927015,24,289.4,380.8,2.25758,184.015,88.8706,"NO",NA,3927016,3927079,63,"Yes","LEFT","left",925.283,1,"Yes",NA
"121",3,100,"ben",121,"exp_2",3932169,3939070,5,"buz","bir",3932645,3938746,"508",3936529,3936537,3936528,"sacc",7.412,1,3936521,3936541,20,495.8,570.9,1.85497,185.25,86.8028571428571,"NO",NA,3936542,3936950,408,"No",NA,NA,NA,NA,"Yes",NA
"122",3,140,"ben",122,"exp_2",3941147,3945423,8,"pes","ben",3941776,3945099,"773",3944041,3944049,3944039,"sacc",7.583,2,3944018,3944051,33,644.3,832.4,4.64607,258.115,135.995294117647,"NO",NA,3944052,3944423,371,"No",NA,NA,NA,NA,"Yes",NA
"123",3,106,"ben",123,"exp_2",3947416,3953687,5,"?ok","bir",3949713,3953356,"605",3951218,3951228,3951216,"sacc",9.294,2,3951199,3951225,26,521.3,632,2.73429,191.425,101.361481481481,"NO",NA,3951226,3951544,318,"No",NA,NA,NA,NA,"Yes",NA
"124",3,154,"ben",124,"exp_2",3955643,3959448,7,"mum","ben",3956229,3959118,"593",3957520,3957526,3957517,"sacc",5.309,3,3957504,3957529,25,546.7,640.6,2.31933,176.604999999999,90.6775,"NO",NA,3957530,3957797,267,"No",NA,NA,NA,NA,"Yes",NA
"125",3,97,"identical",125,"exp_2",3961375,3967741,5,"jet","identical",3961839,3966443,"497",3963078,3963086,3963076,"identical",7.983,2,3963067,3963093,26,479.2,596.9,2.90719,240.825,107.262037037037,"NO",NA,3963094,3963294,200,"Yes","LEFT","left",964.053,1,NA,NA
"126",3,113,"identical",126,"exp_2",3969606,3973246,4,"hi?","identical",3970515,3972916,"399",3971425,3971433,3971423,"identical",7.622,2,3971414,3971438,24,377.1,470.4,2.30451,167.96,91.0936,"NO",NA,3971439,3971703,264,"No",NA,NA,NA,NA,NA,NA
"127",3,101,"identical",127,"exp_2",3975162,3979741,5,"tat","identical",3975775,3978109,"364",3976914,3976922,3976913,"identical",7.8,1,3976904,3976923,19,341.3,404.7,1.56598,143.26,77.311,"NO",NA,3976924,3977163,239,"Yes","RIGHT","left",1295.275,0,NA,NA
"128",3,124,"ben",128,"exp_2",3982106,3988536,5,"hep","ben",3983091,3988206,"532",3985333,3985340,3985331,"fix",6.201,2,3985354,3985372,18,530.7,589.4,1.44989,155.609999999999,73.5149999999999,"NO",NA,3985373,3985658,285,"No",NA,NA,NA,NA,"Yes",NA
"129",3,92,"ben",129,"exp_2",3990596,3995989,4,"k??","bir",3991634,3995661,"496",3993261,3993269,3993258,"sacc",7.663,3,3993241,3993262,21,431.8,505.4,1.81792,150.67,82.8572727272727,"NO",NA,3993263,3993362,99,"No",NA,NA,NA,NA,"Yes",NA
"130",3,158,"ben",130,"exp_2",3998004,4002600,4,"evi","ben",3998700,4002267,"435",3999914,3999922,3999912,"fix",7.695,2,4000107,4000127,20,437.6,503.2,1.62032,117.325,75.5702380952381,"NO",NA,3999914,4000106,192,"No",NA,NA,NA,NA,"Yes",NA
"131",3,136,"ben",131,"exp_2",4005613,4010237,7,"pis","ben",4006137,4009903,"604",4008030,4008039,4008028,"sacc",8.953,2,4008018,4008046,28,570.6,690.4,2.95906,186.484999999999,100.588620689655,"NO",NA,4008047,4008436,389,"No",NA,NA,NA,NA,"Yes",NA
"132",3,147,"identical",132,"exp_2",4012174,4018821,7,"dar","identical",4013416,4018493,"653",4016999,4017007,4017002,"identical",7.968,-3,4017282,4017306,24,652,755,2.5441,184.015000000001,99.6398,"NO",NA,4016995,4017281,286,"No",NA,NA,NA,NA,NA,NA
"133",3,86,"ben",133,"exp_2",4020760,4026044,3,"dut","bir",4021333,4024552,"377",4021948,4021954,4021947,"fix",5.715,1,4022388,4022414,26,356.6,465.6,2.6923,171.665,97.6107407407407,"NO",NA,4022415,4022724,309,"Yes","RIGHT","left",1152.571,0,"Yes",NA
"134",3,108,"ben",134,"exp_2",4027989,4032296,6,"ara","bir",4028620,4031961,"651",4030057,4030063,4030055,"sacc",5.742,2,4030041,4030065,24,596.1,698.7,2.53422,209.95,100.1832,"NO",NA,4030066,4030282,216,"No",NA,NA,NA,NA,"Yes",NA
"135",3,145,"identical",135,"exp_2",4034321,4044107,5,"iyi","identical",4035356,4039987,"496",4036607,4036616,4036605,"identical",8.688,2,4036595,4036618,23,469,556.9,2.17113,151.904999999999,90.1035416666666,"NO",NA,4036619,4036775,156,"Yes","LEFT","left",3786.014,1,NA,NA
"136",3,155,"identical",136,"exp_2",4046444,4168477,5,"tur","identical",4166032,4168156,"376",4166532,4166540,4166531,"identical",8.065,1,4166509,4166534,25,274.1,384.8,2.73429,187.72,103.9775,"NO",NA,4166535,4166628,93,"No",NA,NA,NA,NA,NA,NA
"137",3,105,"identical",137,"exp_2",4170601,4175214,5,"hi?","identical",4171216,4173517,"508",4172293,4172301,4172291,"identical",7.44,2,4172282,4172312,30,487.1,618.7,3.25052,196.365,104.337580645161,"NO",NA,4172313,4172509,196,"Yes","RIGHT","left",1367.12,0,NA,NA
"138",3,84,"ben",138,"exp_2",4177081,4181975,6,"sis","bir",4177686,4179924,"520",4178623,4178633,4178621,"sacc",9.303,2,4178603,4178635,32,433.9,605.1,4.22864,245.765000000001,127.167575757576,"NO",NA,4178636,4178938,302,"Yes","LEFT","left",1721.226,1,"Yes",NA
"139",3,118,"ben",139,"exp_2",4189698,4191707,6,"iyi","bir",4190195,4191372,"567",4190813,4190821,4190811,"sacc",7.384,2,4190791,4190850,59,399.8,1047.7,16.00313,460.655000000001,266.615916666667,"NO",NA,4190851,4191003,152,"No",NA,NA,NA,NA,"Yes",NA
"140",3,115,"identical",140,"exp_2",4193665,4198710,6,"t?y","identical",4194250,4197552,"533",4195600,4195609,4195598,"identical",9.063,2,4195592,4195614,22,523.5,603.5,1.976,143.26,84.2484782608695,"NO",NA,4195615,4195921,306,"Yes","LEFT","left",820.096,1,NA,NA
"141",3,157,"identical",141,"exp_2",4201732,4206796,8,"ge?","identical",4202342,4205796,"832",4204480,4204490,4204478,"identical",9.372,2,4204693,4204715,22,834.9,916.5,2.01552,146.965,86.6647826086956,"NO",NA,4204716,4204941,225,"Yes","RIGHT","left",659.06,0,NA,NA
"142",3,137,"identical",142,"exp_2",4208806,4213555,7,"ku?","identical",4209629,4213229,"580",4211399,4211406,4211398,"identical",6.291,1,4211390,4211412,22,567.6,624,1.39308,123.5,59.8169565217391,"NO",NA,4211413,4211653,240,"No",NA,NA,NA,NA,NA,NA
"143",3,87,"identical",143,"exp_2",4217496,4224868,5,"sis","identical",4221195,4223860,"424",4222183,4222192,4222181,"identical",9.01,2,4222171,4222192,21,394.4,469.6,1.85744,144.495,85.3326190476191,"NO",NA,4222193,4222512,319,"Yes","LEFT","left",676.547,1,NA,NA
"144",3,117,"identical",144,"exp_2",4226842,4231655,7,"?ok","identical",4227857,4231329,"724",4229580,4229588,4229578,"identical",7.453,2,4229572,4229595,23,708.3,783.4,1.85497,122.265,75.3350000000001,"NO",NA,4229596,4229855,259,"No",NA,NA,NA,NA,NA,NA
"145",3,129,"identical",145,"exp_2",4233575,4237393,5,"kan","identical",4234552,4237065,"520",4235615,4235624,4235613,"identical",8.05,2,4235878,4235904,26,517.3,640.6,3.04551,198.835,111.195740740741,"NO",NA,4235905,4236102,197,"No",NA,NA,NA,NA,NA,NA
"146",3,111,"identical",146,"exp_2",4239164,4247082,5,"g??","identical",4242569,4244278,"496",4243827,4243832,4243825,"identical",4.927,2,4243818,4243835,17,483.3,533.1,1.23006,112.385,66.3469444444444,"NO",NA,4243836,4243970,134,"Yes","LEFT","left",2462.111,1,NA,NA
"147",3,94,"ben",147,"exp_2",4249015,4256940,4,"t?p","bir",4252792,4256618,"424",4254080,4254089,4254078,"sacc",9.107,2,4254072,4254093,21,414.9,491.6,1.89449,140.79,84.9343181818182,"NO",NA,4254094,4254232,138,"No",NA,NA,NA,NA,"Yes",NA
"148",3,141,"identical",148,"exp_2",4259090,4267106,9,"f?n","identical",4259666,4265229,"904",4261875,4261885,4261873,"identical",9.913,2,4261858,4261879,21,854,920.6,1.64502,140.79,73.8754545454546,"NO",NA,4261880,4262118,238,"Yes","RIGHT","left",1537.431,0,NA,NA
"149",3,132,"ben",149,"exp_2",4268952,4273172,6,"sos","ben",4269677,4272189,"450",4270724,4270732,4270723,"sacc",8.113,1,4270709,4270725,16,408.3,452.4,1.08927,106.21,62.3311764705882,"NO",NA,4270726,4270927,201,"Yes","LEFT","left",652.855,1,"Yes",NA
"150",3,116,"ben",150,"exp_2",4274937,4280428,3,"zil","bir",4276030,4279617,"377",4276939,4276948,4276938,"sacc",8.245,1,4276932,4276949,17,364.6,411,1.14608,108.68,62.2302777777777,"NO",NA,4276950,4277387,437,"Yes","LEFT","left",473.13,1,"Yes",NA
"151",3,120,"ben",151,"exp_2",4283098,4287539,7,"sel","bir",4284005,4287206,"557",4285403,4285411,4285401,"fix",7.572,2,4285828,4285850,22,537.3,616.7,1.96118,154.375,83.8189130434783,"NO",NA,4285851,4286080,229,"No",NA,NA,NA,NA,"Yes",NA
"152",3,130,"ben",152,"exp_2",4289443,4294325,4,"sa?","ben",4289932,4293997,"376",4292087,4292093,4292084,"sacc",5.715,3,4292081,4292096,15,370.7,408.9,0.94354,83.9800000000001,55.8065625,"NO",NA,4292097,4292344,247,"No",NA,NA,NA,NA,"Yes",NA
"153",3,110,"ben",153,"exp_2",4297308,4301835,8,"?ok","bir",4297883,4301510,"677",4299469,4299476,4299467,"sacc",6.839,2,4299452,4299473,21,625.2,700.3,1.85497,154.375,83.3063636363636,"NO",NA,4299474,4299771,297,"No",NA,NA,NA,NA,"Yes",NA
"154",3,143,"identical",154,"exp_2",4304653,4309054,4,"cam","identical",4305299,4308727,"423",4306090,4306100,4306087,"identical",9.714,3,4306323,4306345,22,438.6,531,2.28228,163.020000000001,98.1019565217391,"NO",NA,4306090,4306322,232,"No",NA,NA,NA,NA,NA,NA
"155",3,148,"ben",155,"exp_2",4311095,4315918,8,"du?","ben",4311594,4315587,"616",4312697,4312703,4312696,"sacc",5.363,1,4312680,4312714,34,542.2,705.8,4.04092,206.245000000001,114.925571428571,"NO",NA,4312715,4313160,445,"No",NA,NA,NA,NA,"Yes",NA
"156",3,102,"ben",156,"exp_2",4318008,4322463,5,"eve","bir",4318530,4322129,"484",4319900,4319907,4319898,"sacc",6.176,2,4319892,4319913,21,472.3,552.6,1.98341,155.61,88.2463636363636,"NO",NA,4319914,4320263,349,"No",NA,NA,NA,NA,"Yes",NA
"157",3,96,"ben",157,"exp_2",4325209,4329672,9,"?ok","bir",4326014,4329348,"713",4327898,4327907,4327896,"sacc",8.577,2,4327888,4327912,24,692.8,796.3,2.55645,188.954999999999,100.9736,"NO",NA,4327913,4328100,187,"No",NA,NA,NA,NA,"Yes",NA
"158",3,119,"identical",158,"exp_2",4331818,4336833,8,"ge?","identical",4332387,4335897,"711",4334649,4334656,4334648,"identical",6.632,1,4334822,4334847,25,711.4,804,2.28722,164.254999999999,87.0199999999999,"NO",NA,4334642,4334821,179,"Yes","RIGHT","left",604.436,0,NA,NA
"159",3,138,"ben",159,"exp_2",4338868,4342260,4,"pul","ben",4339516,4341934,"413",4340335,4340341,4340333,"sacc",5.854,2,4340313,4340336,23,333.2,423,2.21806,177.84,91.4929166666667,"NO",NA,4340337,4340624,287,"No",NA,NA,NA,NA,"Yes",NA
"160",3,146,"ben",160,"exp_2",4344532,4348824,10,"ile","ben",4345167,4348494,"858",4346727,4346736,4346725,"sacc",8.418,2,4346718,4346741,23,841.8,941.6,2.46506,165.49,100.858333333333,"NO",NA,4346742,4347069,327,"No",NA,NA,NA,NA,"Yes",NA
"161",3,142,"ben",161,"exp_2",4351173,4357794,5,"muz","ben",4354640,4357466,"425",4355356,4355366,4355354,"fix",9.512,2,4355744,4355762,18,431.3,488.7,1.41778,112.385,71.955,"NO",NA,4355351,4355743,392,"No",NA,NA,NA,NA,"Yes",NA
"162",3,151,"identical",162,"exp_2",4359822,4371000,7,"?ok","identical",4365185,4368546,"571",4366897,4366903,4366896,"identical",5.985,1,4366878,4366906,28,481.7,617.4,3.35179,243.295000000001,115.323448275862,"NO",NA,4366907,4367066,159,"Yes","LEFT","left",2109.771,1,NA,NA
"163",3,133,"identical",163,"exp_2",4374777,4380904,6,"toz","identical",4375267,4379419,"604",4376747,4376756,4376745,"identical",8.482,2,4376730,4376756,26,541.7,651.6,2.71453,180.31,102.6475,"NO",NA,4376757,4377005,248,"Yes","LEFT","left",1145.33,1,NA,NA
"164",3,90,"ben",164,"exp_2",4382786,4387015,6,"f?n","bir",4383371,4385932,"568",4384764,4384773,4384761,"sacc",8.443,3,4384746,4384770,24,518.5,606.2,2.16619,159.315,83.9800000000001,"NO",NA,4384771,4385151,380,"Yes","RIGHT","left",742.832,0,"Yes",NA
"165",3,104,"ben",165,"exp_2",4388928,4393282,5,"?ok","bir",4389232,4392381,"447",4390205,4390212,4390204,"fix",6.711,1,4390660,4390676,16,454.3,500.7,1.14608,104.975,65.455,"NO",NA,4390205,4390659,454,"Yes","RIGHT","left",567.186,0,"Yes",NA
"166",3,159,"identical",166,"exp_2",4395263,4399968,7,"ya?","identical",4395676,4398650,"605",4396952,4396961,4396949,"identical",8.809,3,4396936,4396960,24,549.1,645.2,2.37367,198.834999999999,95.0455999999999,"NO",NA,4396961,4397260,299,"Yes","LEFT","left",986.969,1,NA,NA
"167",3,153,"identical",167,"exp_2",4401970,4406388,8,"top","identical",4402513,4405344,"797",4403974,4403981,4403973,"identical",6.557,1,4404172,4404192,20,798.8,875.2,1.88708,143.259999999999,89.3904761904762,"NO",NA,4403969,4404171,202,"Yes","LEFT","left",709.17,1,NA,NA
"168",3,83,"identical",168,"exp_2",4408392,4412484,6,"mor","identical",4408895,4412153,"605",4410988,4410997,4410986,"identical",8.67,2,4410965,4410991,26,519.7,617.7,2.4206,179.075,89.3316666666666,"NO",NA,4410992,4411149,157,"No",NA,NA,NA,NA,NA,NA
"169",3,89,"identical",169,"exp_2",4414271,4416786,3,"dil","identical",4414872,4416455,"376",4415804,4415811,4415802,"identical",6.23,2,4415794,4415815,21,353,423.7,1.74629,124.735,77.8611363636364,"NO",NA,4415816,4416004,188,"No",NA,NA,NA,NA,NA,NA
"170",3,125,"identical",170,"exp_2",4420208,4425156,7,"hi?","identical",4421071,4424824,"581",4422970,4422977,4422969,"identical",6.316,1,4422953,4422974,21,523,596.5,1.81545,130.91,81.9029545454545,"NO",NA,4422975,4423210,235,"No",NA,NA,NA,NA,NA,NA
"171",3,231,"identical",171,"exp_3",4711787,4718401,8,"zor","identical",4712299,4714502,"725",4713925,4713934,4713923,"identical",8.749,2,4713917,4713937,20,713.8,768.4,1.34862,124.735,61.3971428571429,"NO",NA,4713938,4714208,270,"Yes","RIGHT","left",3554.838,0,NA,NA
"172",3,191,"identical",172,"exp_3",4720408,4724236,8,"ac?","identical",4721421,4723901,"665",4722448,4722456,4722445,"identical",7.339,3,4722663,4722696,33,665.9,809,3.53457,185.25,102.977205882353,"NO",NA,4722447,4722662,215,"No",NA,NA,NA,NA,NA,NA
"173",3,206,"ben",173,"exp_3",4726284,4730458,5,"g?n","ben",4727282,4730114,"399",4728360,4728366,4728358,"fix",5.889,2,4728663,4728672,9,400.6,383.1,0.43225,77.8050000000001,40.508,"NO",NA,4728358,4728662,304,"No",NA,NA,NA,NA,"Yes",NA
"174",3,189,"identical",174,"exp_3",4732473,4737294,7,"?t?","identical",4733618,4735711,"557",4734637,4734644,4734634,"identical",6.519,3,4734578,4734658,80,492.4,586.8,2.33168,135.85,50.7112345679012,"NO",NA,4734659,4734914,255,"Yes","RIGHT","left",1227.466,0,NA,NA
"175",3,190,"ben",175,"exp_3",4739850,4744539,6,"s?t","bir",4740496,4744197,"556",4742593,4742603,4742591,"sacc",9.251,2,4742576,4742618,42,476.4,792.4,7.8052,382.85,181.947093023256,"NO",NA,4742619,4742787,168,"No",NA,NA,NA,NA,"Yes",NA
"176",3,202,"ben",176,"exp_3",4746380,4748989,4,"ela","bir",4747016,4748651,"340",4747652,4747658,4747650,"sacc",5.906,2,4747639,4747666,27,306.9,425.2,2.92201,191.425,104.3575,"NO",NA,4747667,4748026,359,"No",NA,NA,NA,NA,"Yes",NA
"177",3,199,"identical",177,"exp_3",4751190,4756310,7,"t?y","identical",4751788,4754779,"594",4753558,4753564,4753555,"identical",6.221,3,4753538,4753560,22,527.1,608.1,2.0007,160.55,86.0741304347826,"NO",NA,4753561,4753803,242,"Yes","RIGHT","left",1179.965,0,NA,NA
"178",3,222,"ben",178,"exp_3",4758271,4763630,7,"not","ben",4758766,4763288,"617",4760428,4760434,4760426,"fix",5.991,2,4760798,4760817,19,627.4,694.2,1.64996,158.080000000001,82.004,"NO",NA,4760428,4760797,369,"No",NA,NA,NA,NA,"Yes",NA
"179",3,200,"ben",179,"exp_3",4765921,4772734,5,"ma?","bir",4766412,4772392,"448",4767835,4767843,4767833,"fix",7.294,2,4768253,4768276,23,451.3,523.1,1.77346,135.85,74.4602083333334,"NO",NA,4767805,4768252,447,"No",NA,NA,NA,NA,"Yes",NA
"180",3,163,"identical",180,"exp_3",4774726,4779110,7,"?ok","identical",4775213,4778777,"532",4776954,4776961,4776952,"identical",6.179,2,4777125,4777147,22,539.6,617.9,1.93401,160.55,83.1745652173912,"NO",NA,4776945,4777124,179,"No",NA,NA,NA,NA,NA,NA
"181",3,221,"identical",181,"exp_3",4781203,4785332,7,"her","identical",4781691,4783888,"531",4783167,4783176,4783165,"identical",8.4,2,4783157,4783178,21,518.9,592.4,1.81545,186.485,81.6222727272728,"NO",NA,4783179,4783347,168,"Yes","RIGHT","left",1089.894,0,NA,NA
"182",3,174,"ben",182,"exp_3",4787211,4791991,4,"eti","bir",4788302,4790753,"400",4789143,4789149,4789140,"sacc",5.323,3,4789134,4789155,21,389.5,457.1,1.66972,142.025,74.5490909090909,"NO",NA,4789156,4789468,312,"Yes","RIGHT","left",893.431,0,"Yes",NA
"183",3,168,"ben",183,"exp_3",4793924,4797612,8,"s?r","bir",4794413,4797267,"628",4795750,4795756,4795748,"sacc",5.742,2,4795738,4795759,21,594.4,686,2.26252,176.604999999999,100.933181818182,"NO",NA,4795760,4796090,330,"No",NA,NA,NA,NA,"Yes",NA
"184",3,188,"ben",184,"exp_3",4799420,4803564,4,"?ok","bir",4800349,4803207,"423",4801403,4801412,4801401,"sacc",8.912,2,4801394,4801411,17,404.5,466.5,1.5314,139.555,82.2647222222222,"NO",NA,4801412,4801975,563,"No",NA,NA,NA,NA,"Yes",NA
"185",3,227,"identical",185,"exp_3",4805519,4809184,9,"ge?","identical",4806005,4808846,"688",4807656,4807665,4807653,"identical",8.525,3,4807651,4807674,23,686.7,773.7,2.1489,171.665000000001,88.8685416666666,"NO",NA,4807675,4807882,207,"No",NA,NA,NA,NA,NA,NA
"186",3,177,"identical",186,"exp_3",4811006,4814635,3,"sis","identical",4811723,4814300,"245",4812428,4812437,4812425,"identical",8.331,3,4812410,4812430,20,198.3,254.4,1.38567,140.79,63.8083333333333,"NO",NA,4812431,4812686,255,"No",NA,NA,NA,NA,NA,NA
"187",3,167,"identical",187,"exp_3",4816447,4821613,6,"bal","identical",4817576,4820100,"605",4818834,4818844,4818831,"identical",9.21,3,4818815,4818842,27,536.5,639.4,2.54163,185.25,90.46375,"NO",NA,4818843,4819070,227,"Yes","RIGHT","left",1165.695,0,NA,NA
"188",3,224,"ben",188,"exp_3",4823565,4829909,6,"zor","ben",4824224,4829566,"533",4825506,4825514,4825503,"sacc",7.957,3,4825487,4825509,22,461.8,550,2.17854,180.31,93.9136956521739,"NO",NA,4825510,4825656,146,"No",NA,NA,NA,NA,"Yes",NA
"189",3,219,"identical",189,"exp_3",4832682,4837796,6,"hi?","identical",4833293,4836308,"497",4834541,4834548,4834539,"identical",6.745,2,4834528,4834549,21,459,538.5,1.96365,155.61,88.4709090909091,"NO",NA,4834550,4834856,306,"Yes","RIGHT","left",1134.91,0,NA,NA
"190",3,193,"identical",190,"exp_3",4840343,4844565,7,"top","identical",4841026,4844228,"591",4843666,4843675,4843664,"identical",8.323,2,4843644,4843673,29,462.8,633.4,4.21382,326.04,140.1725,"NO",NA,4843674,4843898,224,"No",NA,NA,NA,NA,NA,NA
"191",3,211,"identical",191,"exp_3",4846619,4851493,3,"cam","identical",4847204,4850054,"339",4847761,4847767,4847759,"identical",5.412,2,4847974,4847998,24,351.9,442.4,2.23535,163.020000000001,88.4754,"NO",NA,4847762,4847973,211,"Yes","LEFT","left",1089.102,1,NA,NA
"192",3,196,"ben",192,"exp_3",4853732,4858879,6,"has","bir",4855066,4858537,"424",4857123,4857131,4857120,"sacc",7.529,3,4857103,4857125,22,358.5,439.6,2.00317,138.32,85.3760869565218,"NO",NA,4857126,4857396,270,"No",NA,NA,NA,NA,"Yes",NA
"193",3,164,"ben",193,"exp_3",4861168,4880622,6,"ge?","bir",4862424,4880283,"497",4863997,4864005,4863995,"sacc",7.835,2,4863976,4864002,26,408.1,520.3,2.77134,193.895,101.681666666667,"NO",NA,4864003,4864206,203,"No",NA,NA,NA,NA,"Yes",NA
"194",3,208,"ben",194,"exp_3",4882499,4885675,4,"?ay","ben",4882980,4885335,"413",4883927,4883935,4883924,"sacc",8.601,3,4883914,4883931,17,383.7,434.7,1.2597,109.915,67.6505555555555,"NO",NA,4883932,4884237,305,"No",NA,NA,NA,NA,"Yes",NA
"195",3,229,"identical",195,"exp_3",4888003,4891460,5,"kez","identical",4888619,4891122,"509",4889534,4889541,4889532,"identical",6.77,2,4889520,4889541,21,458.5,547.6,2.20077,192.66,100.505476190476,"NO",NA,4889542,4889859,317,"No",NA,NA,NA,NA,NA,NA
"196",3,226,"ben",196,"exp_3",4893427,4898113,6,"zor","ben",4893921,4896673,"616",4895062,4895068,4895060,"sacc",5.632,2,4895039,4895066,27,510.9,635,3.06527,228.475,108.856428571429,"NO",NA,4895067,4895233,166,"Yes","LEFT","left",1091.083,1,"Yes",NA
"197",3,237,"identical",197,"exp_3",4899942,4902757,3,"tu?","identical",4900628,4902415,"352",4901264,4901271,4901262,"identical",6.198,2,4901253,4901286,33,332.5,503,4.21135,245.765,124.153823529412,"NO",NA,4901287,4901601,314,"No",NA,NA,NA,NA,NA,NA
"198",3,220,"ben",198,"exp_3",4904726,4909026,7,"kez","ben",4905897,4908684,"642",4906997,4907006,4906994,"sacc",8.606,3,4906977,4907002,25,555.2,686.5,3.24311,263.054999999999,122.8825,"NO",NA,4907003,4907185,182,"No",NA,NA,NA,NA,"Yes",NA
"199",3,207,"identical",199,"exp_3",4910832,4913428,3,"kar","identical",4911407,4913090,"330",4911782,4911790,4911780,"identical",8.02,2,4911758,4911783,25,217.9,334.3,2.87508,229.71,109.725,"NO",NA,4911784,4912049,265,"No",NA,NA,NA,NA,NA,NA
"200",3,232,"ben",200,"exp_3",4915536,4918180,4,"gri","ben",4915928,4917834,"414",4916849,4916858,4916847,"sacc",8.847,2,4916836,4916863,27,384.3,507.8,3.05045,243.295,109.473928571429,"NO",NA,4916864,4917052,188,"No",NA,NA,NA,NA,"Yes",NA
"201",3,235,"identical",201,"exp_3",4921220,4923741,4,"iyi","identical",4921693,4923405,"341",4922170,4922177,4922169,"identical",6.324,1,4922407,4922441,34,344.3,536.2,4.73993,291.46,136.661571428571,"NO",NA,4922167,4922406,239,"No",NA,NA,NA,NA,NA,NA
"202",3,172,"ben",202,"exp_3",4925672,4928492,6,"bo?","bir",4926127,4928154,"593",4927272,4927278,4927270,"sacc",5.278,2,4927260,4927287,27,568.2,694.6,3.12208,243.294999999999,114.634464285714,"NO",NA,4927288,4927549,261,"No",NA,NA,NA,NA,"Yes",NA
"203",3,181,"identical",203,"exp_3",4930545,4938488,4,"pas","identical",4935954,4938144,"352",4936563,4936571,4936562,"identical",7.936,1,4936543,4936570,27,254.1,380.3,3.11714,218.595,110.664821428571,"NO",NA,4936571,4936888,317,"No",NA,NA,NA,NA,NA,NA
"204",3,242,"ben",204,"exp_3",4940409,4943974,6,"?ok","ben",4940893,4943628,"665",4942053,4942061,4942051,"sacc",7.421,2,4942032,4942058,26,594.1,684.2,2.22547,161.785,86.8616666666666,"NO",NA,4942059,4942497,438,"No",NA,NA,NA,NA,"Yes",NA
"205",3,244,"ben",205,"exp_3",4946205,4951994,7,"du?","ben",4947471,4951648,"618",4948669,4948676,4948667,"sacc",6.564,2,4948651,4948674,23,542.8,645.2,2.52928,216.125,104.66625,"NO",NA,4948675,4948973,298,"No",NA,NA,NA,NA,"Yes",NA
"206",3,184,"ben",206,"exp_3",4953861,4957989,7,"fay","bir",4955642,4957646,"593",4957012,4957018,4957010,"sacc",6.178,2,4956998,4957019,21,551,625.8,1.84756,166.725,83.1940909090909,"NO",NA,4957020,4957357,337,"No",NA,NA,NA,NA,"Yes",NA
"207",3,223,"identical",207,"exp_3",4960237,4965217,6,"d??","identical",4961132,4963550,"388",4962188,4962195,4962187,"identical",6.574,1,4962177,4962197,20,358.6,435.5,1.89943,175.37,88.3907142857143,"NO",NA,4962198,4962366,168,"Yes","RIGHT","left",1313.142,0,NA,NA
"208",3,195,"identical",208,"exp_3",4967069,4969885,7,"tas","identical",4967647,4969544,"496",4968987,4968994,4968985,"identical",6.625,2,4968976,4969000,24,472.2,560.8,2.18842,174.135,86.7464,"NO",NA,4969001,4969148,147,"No",NA,NA,NA,NA,NA,NA
"209",3,205,"identical",209,"exp_3",4971809,4975705,5,"muz","identical",4972285,4974789,"437",4973099,4973107,4973098,"identical",7.406,1,4973083,4973102,19,383.4,449.2,1.62526,149.435,79.1635,"NO",NA,4973103,4973265,162,"Yes","RIGHT","left",573.613,0,NA,NA
"210",3,246,"ben",210,"exp_3",4977696,4981207,7,"pek","ben",4978192,4980862,"700",4979415,4979422,4979412,"sacc",7.565,3,4979391,4979422,31,593.7,745.8,3.75687,238.354999999999,119.874677419355,"NO",NA,4979423,4979724,301,"No",NA,NA,NA,NA,"Yes",NA
"211",3,216,"ben",211,"exp_3",4983315,4987602,5,"ile","ben",4984619,4987260,"438",4985410,4985416,4985407,"sacc",5.535,3,4985394,4985418,24,382.3,483.5,2.49964,186.485,97.9108,"NO",NA,4985419,4985716,297,"No",NA,NA,NA,NA,"Yes",NA
"212",3,233,"identical",212,"exp_3",4989610,4993679,7,"zor","identical",4990642,4993337,"581",4991932,4991940,4991929,"identical",7.535,3,4991921,4991944,23,560.2,654.2,2.3218,185.25,95.9183333333333,"NO",NA,4991945,4992157,212,"No",NA,NA,NA,NA,NA,NA
"213",3,238,"ben",213,"exp_3",4995710,5001324,7,"kez","ben",4996290,5000979,"569",4998200,4998209,4998197,"sacc",9.563,3,4998182,4998203,21,512.9,584.4,1.76605,149.435,80.1065909090909,"NO",NA,4998204,4998579,375,"No",NA,NA,NA,NA,"Yes",NA
"214",3,204,"ben",214,"exp_3",5003197,5007034,6,"nem","bir",5003911,5006694,"521",5004917,5004925,5004916,"sacc",7.248,1,5004898,5004918,20,459.9,529,1.70677,129.675,80.2161904761905,"NO",NA,5004919,5005231,312,"No",NA,NA,NA,NA,"Yes",NA
"215",3,175,"identical",215,"exp_3",5008939,5012779,4,"ipi","identical",5009492,5011742,"376",5010094,5010101,5010092,"identical",6.684,2,5010077,5010097,20,317.7,394.4,1.89449,181.545,88.8611904761905,"NO",NA,5010098,5010291,193,"Yes","LEFT","left",691.247,1,NA,NA
"216",3,236,"ben",216,"exp_3",5014663,5020550,7,"top","ben",5016104,5019520,"605",5017403,5017409,5017401,"sacc",5.404,2,5017387,5017412,25,548.5,653.4,2.59103,202.540000000001,98.6575,"NO",NA,5017413,5017574,161,"Yes","LEFT","left",672.966,1,"Yes",NA
"217",3,176,"ben",217,"exp_3",5022437,5028544,5,"??k","bir",5023720,5028208,"473",5024822,5024830,5024819,"sacc",7.344,3,5024811,5024829,18,450.5,498.8,1.19301,111.15,61.035,"NO",NA,5024830,5025101,271,"No",NA,NA,NA,NA,"Yes",NA
"218",3,210,"ben",218,"exp_3",5033074,5039215,6,"iyi","ben",5034665,5038876,"497",5035965,5035975,5035962,"sacc",9.768,3,5035952,5035975,23,467.2,552.8,2.11432,186.485,88.4904347826086,"NO",NA,5035976,5036513,537,"No",NA,NA,NA,NA,"Yes",NA
"219",3,228,"ben",219,"exp_3",5041228,5045318,7,"ile","ben",5041798,5044977,"522",5043122,5043129,5043120,"sacc",6.134,2,5043111,5043138,27,501.6,626,3.07268,219.829999999999,109.429821428571,"NO",NA,5043139,5043548,409,"No",NA,NA,NA,NA,"Yes",NA
"220",3,197,"identical",220,"exp_3",5047020,5050528,4,"hep","identical",5047604,5050193,"424",5048731,5048739,5048730,"identical",7.477,1,5049007,5049026,19,434.3,493.2,1.45483,121.029999999999,70.889,"NO",NA,5048730,5049006,276,"No",NA,NA,NA,NA,NA,NA
"221",3,171,"identical",221,"exp_3",5052469,5056748,6,"fal","identical",5053765,5056403,"448",5054888,5054896,5054887,"identical",7.121,1,5055106,5055128,22,448.2,533.5,2.10691,161.785,90.4771739130435,"NO",NA,5055129,5055372,243,"No",NA,NA,NA,NA,NA,NA
"222",3,218,"ben",222,"exp_3",5058778,5064701,6,"iyi","ben",5060080,5063380,"521",5061187,5061194,5061185,"sacc",6.564,2,5061173,5061201,28,481.5,602.6,2.99117,197.6,102.590172413793,"NO",NA,5061202,5061458,256,"Yes","RIGHT","left",971.933,0,"Yes",NA
"223",3,169,"identical",223,"exp_3",5066548,5072087,6,"k?r","identical",5067622,5070464,"521",5068742,5068748,5068739,"identical",6.566,3,5068728,5068746,18,489.9,538,1.18807,97.5649999999997,60.7100000000001,"NO",NA,5068747,5069078,331,"Yes","RIGHT","left",1274.53,0,NA,NA
"224",3,173,"identical",224,"exp_3",5076205,5081225,6,"hep","identical",5076740,5080887,"460",5078601,5078609,5078599,"identical",7.344,2,5078585,5078603,18,412.9,473,1.48447,148.2,76.05,"NO",NA,5078604,5078868,264,"No",NA,NA,NA,NA,NA,NA
"225",3,187,"identical",225,"exp_3",5083337,5088094,8,"ke?","identical",5084323,5087758,"784",5085993,5086000,5085991,"identical",6.749,2,5085977,5086001,24,730.3,833.1,2.53916,200.070000000001,100.5784,"NO",NA,5086002,5086095,93,"No",NA,NA,NA,NA,NA,NA
"226",3,180,"ben",226,"exp_3",5090017,5094948,6,"pil","bir",5091022,5093748,"497",5091944,5091953,5091941,"sacc",8.968,3,5091924,5091953,29,432.8,544.8,2.7664,164.254999999999,94.2858620689655,"NO",NA,5091954,5092223,269,"Yes","RIGHT","left",850.598,0,"Yes",NA
"227",3,212,"ben",227,"exp_3",5096979,5100375,5,"g?n","ben",5097533,5100036,"424",5098251,5098259,5098248,"fix",7.788,3,5098650,5098675,25,425.2,530.3,2.59597,172.9,97.565,"NO",NA,5098676,5098896,220,"No",NA,NA,NA,NA,"Yes",NA
"228",3,203,"identical",228,"exp_3",5102237,5106928,7,"ba?","identical",5104358,5106584,"557",5105279,5105288,5105277,"identical",8.317,2,5105263,5105290,27,492.3,630.1,3.40366,281.579999999999,120.985892857143,"NO",NA,5105291,5105633,342,"No",NA,NA,NA,NA,NA,NA
"229",3,186,"ben",229,"exp_3",5108694,5111479,5,"d?n","bir",5109092,5111142,"412",5109907,5109914,5109904,"sacc",6.114,3,5109886,5109911,25,330.8,431.7,2.49223,170.43,94.715,"NO",NA,5109912,5110243,331,"No",NA,NA,NA,NA,"Yes",NA
"230",3,198,"ben",230,"exp_3",5113266,5116965,5,"bo?","bir",5114552,5116621,"388",5115278,5115286,5115276,"fix",7.775,2,5115446,5115466,20,401.1,461.6,1.49435,139.555,69.16,"NO",NA,5115278,5115445,167,"No",NA,NA,NA,NA,"Yes",NA
"231",3,214,"ben",231,"exp_3",5118943,5123868,3,"iyi","ben",5119945,5122622,"268",5120414,5120421,5120412,"sacc",6.549,2,5120396,5120415,19,214.3,277.3,1.5561,139.555,75.4585,"NO",NA,5120416,5120686,270,"Yes","RIGHT","left",897.946,0,"Yes",NA
"232",3,194,"ben",232,"exp_3",5125742,5130421,6,"ta?","bir",5126377,5129498,"604",5127974,5127983,5127972,"sacc",8.797,2,5127954,5127978,24,517.1,625.2,2.67007,193.895000000001,106.1112,"NO",NA,5127979,5128366,387,"Yes","RIGHT","left",576.94,0,"Yes",NA
"233",3,230,"ben",233,"exp_3",5132626,5138441,8,"g?n","ben",5133164,5138100,"617",5134824,5134832,5134821,"sacc",7.951,3,5134813,5134834,21,593.6,669.5,1.87473,156.845000000001,84.4290909090909,"NO",NA,5134835,5134949,114,"No",NA,NA,NA,NA,"Yes",NA
"234",3,185,"identical",234,"exp_3",5140699,5145794,6,"tuz","identical",5142478,5145455,"592",5143875,5143884,5143873,"identical",8.415,2,5144057,5144079,22,594,677.7,2.06739,195.129999999999,88.92,"NO",NA,5143870,5144056,186,"No",NA,NA,NA,NA,NA,NA
"235",3,217,"identical",235,"exp_3",5147794,5154231,6,"kez","identical",5148714,5153887,"520",5149823,5149832,5149821,"identical",8.421,2,5149812,5149832,20,497.1,564.7,1.66972,124.735,77.99025,"NO",NA,5149833,5150049,216,"No",NA,NA,NA,NA,NA,NA
"236",3,234,"ben",236,"exp_3",5156509,5160325,6,"ile","ben",5157169,5159985,"582",5158252,5158262,5158250,"sacc",9.449,2,5158234,5158257,23,512,600.2,2.17854,185.25,90.2579166666667,"NO",NA,5158258,5158644,386,"No",NA,NA,NA,NA,"Yes",NA
"237",3,247,"identical",237,"exp_3",5162807,5166628,7,"kek","identical",5163530,5166287,"605",5164830,5164840,5164828,"identical",9.402,2,5164812,5164836,24,550,645.4,2.35638,176.604999999999,93.366,"NO",NA,5164837,5165244,407,"No",NA,NA,NA,NA,NA,NA
"238",3,248,"ben",238,"exp_3",5168534,5181535,5,"dar","ben",5169524,5175231,"520",5173750,5173758,5173748,"fix",7.516,2,5174353,5174374,21,508.6,579.9,1.76111,146.965,79.1522727272727,"NO",NA,5174375,5174610,235,"Yes","RIGHT","left",5955.997,0,"Yes",NA
"239",3,225,"identical",239,"exp_3",5183620,5188729,9,"s?t","identical",5184690,5188390,"762",5187025,5187030,5187022,"identical",5.809,3,5187009,5187034,25,720.7,818.6,2.41813,170.429999999999,94.1450000000001,"NO",NA,5187035,5187330,295,"No",NA,NA,NA,NA,NA,NA
"240",3,170,"ben",240,"exp_3",5190758,5195407,4,"saf","bir",5191794,5195071,"495",5192717,5192724,5192715,"sacc",7.738,2,5192694,5192719,25,408.8,505.3,2.38355,167.96,90.5825,"NO",NA,5192720,5193071,351,"No",NA,NA,NA,NA,"Yes",NA
"241",3,239,"identical",241,"exp_3",5197454,5203952,7,"yem","identical",5198059,5201998,"569",5199471,5199477,5199468,"identical",6.771,3,5199453,5199474,21,511.4,587,1.86732,150.669999999999,83.3625,"NO",NA,5199475,5199668,193,"Yes","LEFT","left",1577.147,1,NA,NA
"242",3,201,"identical",242,"exp_3",5205961,5209697,7,"cam","identical",5206598,5209360,"569",5207805,5207811,5207801,"identical",6.847,4,5208030,5208051,21,571,650.5,1.96365,160.55,87.685,"NO",NA,5207794,5208029,235,"No",NA,NA,NA,NA,NA,NA
"243",3,241,"identical",243,"exp_3",5211586,5214707,4,"ucu","identical",5212612,5214367,"389",5213164,5213197,5213162,"identical",32.086,2,5213146,5213166,20,325.9,401.5,1.86732,150.67,87.9790476190476,"NO",NA,5213167,5213417,250,"No",NA,NA,NA,NA,NA,NA
"244",3,183,"identical",244,"exp_3",5216464,5219651,4,"g?k","identical",5217092,5219312,"364",5217872,5217881,5217871,"identical",8.214,1,5217855,5217877,22,296.9,392.6,2.36379,174.135,100.142391304348,"NO",NA,5217878,5218148,270,"No",NA,NA,NA,NA,NA,NA
"245",3,165,"identical",245,"exp_3",5221642,5225703,8,"g?k","identical",5222582,5225362,"532",5223739,5223745,5223737,"identical",5.76,2,5223723,5223744,21,482.1,558.1,1.8772,156.845000000001,83.0818181818182,"NO",NA,5223745,5224051,306,"No",NA,NA,NA,NA,NA,NA
"246",3,215,"identical",246,"exp_3",5227601,5231173,6,"iri","identical",5228313,5230825,"509",5229550,5229556,5229548,"identical",5.627,2,5229776,5229802,26,507.5,618,2.72935,213.654999999999,100.62962962963,"NO",NA,5229546,5229775,229,"No",NA,NA,NA,NA,NA,NA
"247",3,240,"ben",247,"exp_3",5233145,5238172,7,"yer","ben",5233823,5236642,"568",5235053,5235062,5235051,"sacc",8.527,2,5235035,5235057,22,500.1,590,2.22053,186.485,94.2895652173913,"NO",NA,5235058,5235226,168,"Yes","LEFT","left",1184.725,1,"Yes",NA
"248",3,179,"identical",248,"exp_3",5240035,5244378,4,"kan","identical",5241239,5244033,"473",5242217,5242224,5242215,"identical",6.463,2,5242387,5242406,19,483.8,542.2,1.44248,124.735,70.7655,"NO",NA,5242213,5242386,173,"No",NA,NA,NA,NA,NA,NA
"249",3,209,"identical",249,"exp_3",5246336,5251339,5,"iyi","identical",5246962,5249881,"555",5248105,5248113,5248103,"identical",8.159,2,5248090,5248112,22,507.9,595.4,2.16125,161.785,92.8934782608696,"NO",NA,5248113,5248354,241,"Yes","RIGHT","left",1107.447,0,NA,NA
"250",3,245,"identical",250,"exp_3",5253309,5258164,6,"ipi","identical",5254558,5257829,"676",5256274,5256281,5256271,"identical",7.04,3,5256252,5256275,23,604.5,687.2,2.04269,148.2,83.4139583333333,"NO",NA,5256276,5256461,185,"No",NA,NA,NA,NA,NA,NA
"251",3,243,"identical",251,"exp_3",5262086,5270678,6,"zor","identical",5262587,5270342,"555",5263656,5263664,5263653,"identical",8.177,3,5263641,5263662,21,507.8,593.4,2.11432,186.484999999999,94.1968181818182,"NO",NA,5263663,5263900,237,"No",NA,NA,NA,NA,NA,NA
"252",3,182,"ben",252,"exp_3",5272743,5278015,3,"?i?","bir",5274037,5276031,"353",5274676,5274684,5274674,"sacc",7.594,2,5274655,5274678,23,272.3,364.4,2.27487,175.37,93.4997916666667,"NO",NA,5274679,5274983,304,"Yes","RIGHT","left",1634.447,0,"Yes",NA
"253",3,213,"identical",253,"exp_3",5280034,5284417,4,"kez","identical",5280966,5284081,"401",5282341,5282351,5282339,"identical",9.29,2,5282328,5282347,19,364.4,425,1.49682,134.615,72.92675,"NO",NA,5282348,5282624,276,"No",NA,NA,NA,NA,NA,NA
"254",3,192,"ben",254,"exp_3",5286347,5290023,6,"kel","bir",5287018,5289681,"567",5288232,5288240,5288229,"sacc",7.954,3,5288216,5288240,24,519.4,623.4,2.5688,180.31,101.681666666667,"NO",NA,5288241,5288524,283,"No",NA,NA,NA,NA,"Yes",NA
"255",3,178,"ben",255,"exp_3",5291787,5297215,3,"iri","bir",5292854,5295448,"376",5293503,5293513,5293500,"sacc",9.349,3,5293484,5293508,24,304.6,402.1,2.40825,175.37,95.4408,"NO",NA,5293509,5293867,358,"Yes","RIGHT","left",1420.741,0,"Yes",NA
"256",3,166,"ben",256,"exp_3",5299206,5303942,8,"?n?","bir",5300116,5303609,"521",5301475,5301484,5301471,"fix",9.283,4,5302039,5302064,25,511.6,600.6,2.1983,158.079999999999,84.17,"NO",NA,5302065,5302329,264,"No",NA,NA,NA,NA,"Yes",NA
