"","sub","item","cond","seq","trial_type","trial_start","trial_end","target_word_n","target_word","target_changed","Dis_on_t","Dis_off_t","boundary","DC_start_t","DC_end_t","boundary_t","boundarycond","Display_time","Display_lat","sacc_start_t","sacc_end_t","sacc_dur","sacc_start_x","sacc_end_x","sacc_ampl","peak_vel","avg_vel","blink","blink_dur","fix_start_t","fix_end_t","fix_dur","question","corrAns","key_resp","RT_q","accuracy","corr_sacc","jhook"
"1",98,3,"ben",1,"practice",5902358,5906647,3,"hi?","bir",5903807,5906322,"341",5904461,5904470,5904460,"sacc",8.971,1,5904441,5904466,25,264,367.7,2.56139,154.375,96.8525,"NO",NA,5904467,5904678,211,"No",NA,NA,NA,NA,"Yes",NA
"2",98,17,"ben",2,"practice",5909823,5919366,7,"?ok","ben",5911190,5916828,"605",5913891,5913897,5913889,"sacc",5.849,2,5913877,5913896,19,562.6,633.4,1.74876,135.85,85.3385,"NO",NA,5913897,5914412,515,"Yes","RIGHT","right",2234.944,1,"Yes",NA
"3",98,5,"ben",3,"practice",5921194,5925285,5,"i?e","bir",5921677,5924992,"460",5923158,5923166,5923155,"sacc",8.174,3,5923145,5923167,22,429.1,516,2.14643,156.845,91.0141304347826,"NO",NA,5923168,5923526,358,"No",NA,NA,NA,NA,"Yes",NA
"4",98,18,"identical",4,"practice",5927174,5932730,5,"ta?",NA,5927520,5932442,"472",5928794,5928801,5928792,NA,6.54,2,5929401,5929420,19,456.7,528.5,1.77346,177.84,88.0555,"NO",NA,5929421,5929798,377,"No",NA,NA,NA,NA,NA,NA
"5",98,14,"identical",5,"practice",5934599,5941626,8,"g?l",NA,5936889,5940336,"546",5939088,5939095,5939086,NA,7.135,2,5939073,5939090,17,511.7,554.4,1.05469,95.0950000000006,56.81,"NO",NA,5939091,5939304,213,"Yes","RIGHT","right",989.78,1,NA,NA
"6",98,2,"identical",6,"practice",5943502,5950629,6,"aya",NA,5945260,5949634,"759",5946875,5946883,5946872,NA,7.664,3,5946982,5946993,11,751,729.2,0.538459999999999,95.0950000000006,42.2987499999999,"NO",NA,5947351,5947576,225,"Yes","LEFT","right",689.533,0,NA,NA
"7",98,4,"identical",7,"practice",5952478,5956515,5,"eve",NA,5953328,5956224,"472",5954822,5954829,5954820,NA,6.822,2,5954984,5955003,19,473,531.5,1.44495,106.21,69.96275,"NO",NA,5954809,5954983,174,"No",NA,NA,NA,NA,NA,NA
"8",98,1,"ben",8,"practice",5958306,5964218,6,"ak?","bir",5958858,5963925,"582",5961253,5961261,5961250,"sacc",8.714,3,5961237,5961258,21,527.7,605.3,1.91672,167.959999999999,84.2606818181818,"NO",NA,5961259,5961804,545,"No",NA,NA,NA,NA,"Yes",NA
"9",98,15,"ben",9,"practice",5966104,5972171,4,"kez","ben",5966596,5971873,"424",5969680,5969687,5969679,"sacc",6.536,1,5969669,5969686,17,395.4,444.3,1.20783,109.915,63.7397222222222,"NO",NA,5969687,5969863,176,"No",NA,NA,NA,NA,"Yes",NA
"10",98,16,"identical",10,"practice",5974062,5980408,9,"ara",NA,5974567,5980115,"820",5977722,5977729,5977721,NA,6.485,1,5977704,5977726,22,763.1,838.2,1.85497,145.729999999999,82.0469565217392,"NO",NA,5977727,5977945,218,"No",NA,NA,NA,NA,NA,NA
"11",98,4,"identical",11,"exp_1",5983234,5988482,6,"???",NA,5984007,5988180,"461",5986104,5986113,5986101,NA,9.628,3,5986470,5986486,16,469.5,515.4,1.13373,95.0949999999999,64.7285294117647,"NO",NA,5986102,5986469,367,"No",NA,NA,NA,NA,NA,NA
"12",98,69,"ben",12,"exp_1",5990243,5995160,4,"kot","ben",5990635,5994859,"413",5991955,5991961,5991953,"sacc",5.629,2,5991950,5991971,21,408.7,474.7,1.6302,104.975,72.3597727272727,"NO",NA,5991972,5992409,437,"No",NA,NA,NA,NA,"Yes",NA
"13",98,70,"identical",13,"exp_1",5997016,6001997,9,"k?z",NA,5997872,6001693,"664",6000046,6000053,6000044,NA,6.707,2,6000035,6000056,21,631.1,706.7,1.86732,139.555000000001,82.1836363636364,"NO",NA,6000057,6000418,361,"No",NA,NA,NA,NA,NA,NA
"14",98,20,"identical",14,"exp_1",6003701,6009842,4,"tuz",NA,6005446,6009522,"364",6006965,6006973,6006998,NA,8.743,-33,6006998,6007016,18,364.1,424.2,1.48447,116.09,75.53,"NO",NA,6007017,6007420,403,"No",NA,NA,NA,NA,NA,NA
"15",98,23,"ben",15,"exp_1",6011749,6018036,6,"kez","bir",6012417,6017737,"642",6014660,6014669,6014656,"fix",9.563,4,6015239,6015259,20,661.7,713.7,1.2844,98.8,59.7504761904762,"NO",NA,6014653,6015238,585,"No",NA,NA,NA,NA,"Yes",NA
"16",98,67,"ben",16,"exp_1",6019817,6027574,3,"k?f","ben",6020480,6027267,"377",6022443,6022448,6022440,"sacc",5.929,3,6022432,6022451,19,352.9,419.7,1.64996,139.555,81.016,"NO",NA,6022452,6022690,238,"No",NA,NA,NA,NA,"Yes",NA
"17",98,30,"identical",17,"exp_1",6029388,6041728,6,"yol",NA,6029865,6037080,"592",6031861,6031871,6031858,NA,9.583,3,6031844,6031865,21,546.1,618,1.77593,155.61,78.4225,"NO",NA,6031866,6032019,153,"Yes","LEFT","right",4339.076,0,NA,NA
"18",98,60,"identical",18,"exp_1",6044388,6051218,3,"ipi",NA,6044873,6050913,"318",6045763,6045770,6045762,NA,6.025,1,6046128,6046144,16,325.3,378.1,1.30416,112.385,74.1726470588235,"NO",NA,6046145,6046781,636,"No",NA,NA,NA,NA,NA,NA
"19",98,66,"identical",19,"exp_1",6052976,6060480,4,"ac?",NA,6053953,6057405,"448",6055708,6055713,6055704,NA,5.962,4,6055701,6055722,21,443.3,535.7,2.28228,198.835,101.550681818182,"NO",NA,6055723,6055978,255,"Yes","LEFT","right",2764.372,0,NA,NA
"20",98,73,"ben",20,"exp_1",6062306,6068707,6,"hi?","ben",6064169,6068386,"617",6066238,6066246,6066236,"sacc",7.464,2,6066219,6066242,23,548.4,636.2,2.16866,146.965000000001,90.1035416666667,"NO",NA,6066243,6066655,412,"No",NA,NA,NA,NA,"Yes",NA
"21",98,76,"identical",21,"exp_1",6070537,6079086,4,"ton",NA,6071034,6076421,"340",6073271,6073279,6073268,NA,7.977,3,6073264,6073284,20,334.6,408.3,1.82039,151.905,84.2740476190476,"NO",NA,6073285,6073447,162,"Yes","LEFT","right",2358.641,0,NA,NA
"22",98,9,"ben",22,"exp_1",6081610,6088974,5,"ku?","bir",6083214,6087036,"436",6084604,6084612,6084602,"sacc",7.185,2,6084586,6084610,24,378.9,468.6,2.21559,145.73,87.0922,"NO",NA,6084611,6084865,254,"Yes","LEFT","right",1632.518,0,"Yes",NA
"23",98,18,"identical",23,"exp_1",6091036,6096944,5,"fal",NA,6092491,6096648,"472",6093887,6093897,6093885,NA,9.244,2,6093872,6093897,25,417,529.7,2.78369,197.6,108.6306,"NO",NA,6093898,6094223,325,"No",NA,NA,NA,NA,NA,NA
"24",98,75,"ben",24,"exp_1",6099269,6105416,9,"onu","ben",6101180,6105111,"736",6104307,6104312,6104304,"sacc",5.422,3,6104298,6104315,17,721.6,771.4,1.23006,100.035,65.523611111111,"NO",NA,6104316,6104715,399,"No",NA,NA,NA,NA,"Yes",NA
"25",98,31,"ben",25,"exp_1",6108614,6124222,4,"kar","bir",6109685,6123921,"377",6110802,6110811,6110801,"fix",8.407,1,6111030,6111048,18,384.3,438.6,1.34121,108.68,67.665,"NO",NA,6110794,6111029,235,"No",NA,NA,NA,NA,"Yes",NA
"26",98,19,"ben",26,"exp_1",6126103,6132711,4,"i?i","bir",6127767,6132408,"544",6129476,6129506,6129475,"fix",29.937,1,6129836,6129859,23,557,634.1,1.90437,144.494999999999,79.2972916666667,"NO",NA,6129477,6129835,358,"No",NA,NA,NA,NA,"Yes",NA
"27",98,65,"ben",27,"exp_1",6134691,6144456,5,"?ok","ben",6136413,6142724,"448",6139529,6139538,6139527,"sacc",8.417,2,6139521,6139540,19,435.4,498.8,1.56598,129.675,76.26125,"NO",NA,6139541,6140314,773,"Yes","RIGHT","right",1423.832,1,"Yes",NA
"28",98,50,"identical",28,"exp_1",6146621,6157817,4,"kez",NA,6147280,6157513,"424",6149969,6149974,6149966,NA,5.471,3,6149949,6149973,24,338.7,451.6,2.78863,192.66,110.5572,"NO",NA,6149974,6150203,229,"No",NA,NA,NA,NA,NA,NA
"29",98,26,"identical",29,"exp_1",6159693,6164235,4,"iyi",NA,6160890,6163930,"352",6161935,6161941,6161931,NA,6.812,4,6162147,6162168,21,357.9,432.4,1.84015,151.905,82.4643181818182,"NO",NA,6161934,6162146,212,"No",NA,NA,NA,NA,NA,NA
"30",98,42,"identical",30,"exp_1",6166088,6170063,5,"ay?",NA,6166692,6169757,"413",6167998,6168006,6167997,NA,7.92,1,6168457,6168467,10,423.1,438.7,0.385319999999999,56.8100000000003,33.0081818181817,"NO",NA,6167996,6168456,460,"No",NA,NA,NA,NA,NA,NA
"31",98,43,"ben",31,"exp_1",6171924,6176615,7,"zor","ben",6172449,6176314,"497",6173956,6173963,6173954,"fix",6.183,2,6174586,6174604,18,501.2,565.2,1.5808,143.259999999999,81.9000000000001,"NO",NA,6173955,6174585,630,"No",NA,NA,NA,NA,"Yes",NA
"32",98,24,"identical",32,"exp_1",6178419,6183702,7,"eko",NA,6180228,6183397,"653",6182737,6182743,6182734,NA,6.538,3,6182973,6182991,18,665.9,726.3,1.49188,123.5,76.05,"NO",NA,6182738,6182972,234,"No",NA,NA,NA,NA,NA,NA
"33",98,61,"ben",33,"exp_1",6185755,6195073,7,"kez","ben",6186948,6194768,"738",6190450,6190460,6190447,"fix",10.135,3,6190881,6190897,16,760.2,800.8,1.00282,88.9199999999992,55.720294117647,"NO",NA,6190451,6190880,429,"No",NA,NA,NA,NA,"Yes",NA
"34",98,53,"ben",34,"exp_1",6197285,6204461,5,"ta?","ben",6199757,6204151,"472",6202105,6202114,6202102,"fix",9.554,3,6202351,6202382,31,476.9,645,4.15207,243.295000000001,129.1346875,"NO",NA,6202383,6202643,260,"No",NA,NA,NA,NA,"Yes",NA
"35",98,46,"identical",35,"exp_1",6206638,6211264,4,"?ok",NA,6207286,6210958,"268",6208033,6208041,6208031,NA,7.963,2,6208018,6208035,17,223.1,280.2,1.41037,111.15,75.1291666666666,"NO",NA,6208036,6208205,169,"No",NA,NA,NA,NA,NA,NA
"36",98,64,"identical",36,"exp_1",6213423,6218341,7,"t?m",NA,6214377,6218037,"558",6215952,6215958,6215949,NA,6.766,3,6216157,6216180,23,565.6,648,2.03528,146.965,83.3624999999999,"NO",NA,6215952,6216156,204,"No",NA,NA,NA,NA,NA,NA
"37",98,83,"ben",37,"exp_1",6220464,6226918,7,"ruj","ben",6221072,6226609,"654",6223282,6223291,6223279,"sacc",9.664,3,6223272,6223285,13,638.5,671.2,0.807690000000001,85.2149999999997,54.7810714285715,"NO",NA,6223286,6223716,430,"No",NA,NA,NA,NA,"Yes",NA
"38",98,8,"identical",38,"exp_1",6228880,6233739,4,"ney",NA,6229452,6233425,"388",6231097,6231104,6231095,NA,6.492,2,6231081,6231100,19,339,400.7,1.52399,127.205,74.347,"NO",NA,6231101,6231454,353,"No",NA,NA,NA,NA,NA,NA
"39",98,33,"ben",39,"exp_1",6235498,6242152,7,"eve","bir",6236222,6239693,"617",6238346,6238353,6238343,"sacc",7.055,3,6238331,6238349,18,577,634.8,1.42766,106.21,72.5399999999999,"NO",NA,6238350,6238538,188,"Yes","RIGHT","right",2143.772,1,"Yes",NA
"40",98,35,"ben",40,"exp_1",6244070,6249530,6,"eve","bir",6245348,6249230,"544",6246886,6246892,6246885,"fix",5.508,1,6247436,6247554,118,550.6,663.3,2.78369,NA,NA,"YES",37,6246873,6247435,562,"No",NA,NA,NA,NA,"Yes",NA
"41",98,56,"identical",41,"exp_1",6251470,6257559,7,"hi?",NA,6252823,6257251,"688",6255061,6255067,6255059,NA,5.653,2,6255051,6255070,19,668.3,730.7,1.54128,123.5,74.6557500000001,"NO",NA,6255071,6255244,173,"No",NA,NA,NA,NA,NA,NA
"42",98,79,"ben",42,"exp_1",6260084,6267780,10,"kez","ben",6260992,6267472,"893",6265870,6265879,6265868,"sacc",8.734,2,6265858,6265878,20,868.7,933.7,1.6055,144.495000000001,75.8054761904762,"NO",NA,6265879,6266071,192,"No",NA,NA,NA,NA,"Yes",NA
"43",98,11,"ben",43,"exp_1",6274474,6294174,8,"?il","bir",6275264,6280809,"676",6278419,6278426,6278417,"sacc",6.468,2,6278407,6278431,24,647.8,741.2,2.30698,154.375,91.7358000000001,"NO",NA,6278432,6278615,183,"Yes","LEFT","right",13052.326,0,"Yes",NA
"44",98,40,"identical",44,"exp_1",6296013,6300961,6,"t?m",NA,6296662,6300655,"604",6298831,6298840,6298827,NA,9.295,4,6298809,6298835,26,511.3,629.8,2.92695,205.009999999999,108.03962962963,"NO",NA,6298836,6299089,253,"No",NA,NA,NA,NA,NA,NA
"45",98,81,"ben",45,"exp_1",6302789,6311248,5,"ile","ben",6305276,6310942,"630",6308146,6308154,6308143,"fix",8.625,3,6308481,6308508,27,637.6,757.7,2.96647,208.715,105.680714285714,"NO",NA,6308141,6308480,339,"No",NA,NA,NA,NA,"Yes",NA
"46",98,28,"identical",46,"exp_1",6313175,6323679,8,"iri",NA,6314098,6318617,"581",6316690,6316697,6316688,NA,6.162,2,6316675,6316696,21,540.9,607.2,1.63761,158.079999999999,73.4825,"NO",NA,6316697,6317011,314,"Yes","RIGHT","right",4721.524,1,NA,NA
"47",98,3,"ben",47,"exp_1",6326902,6331782,5,"nar","bir",6328055,6331480,"400",6329688,6329694,6329687,"sacc",5.584,1,6329667,6329690,23,315.9,411.5,2.36132,167.96,97.25625,"NO",NA,6329691,6329955,264,"No",NA,NA,NA,NA,"Yes",NA
"48",98,68,"identical",48,"exp_1",6333762,6341011,6,"gol",NA,6334382,6340709,"617",6336154,6336164,6336153,NA,9.203,1,6336582,6336592,10,619.4,599.7,0.486589999999998,59.2800000000008,40.7549999999999,"NO",NA,6336148,6336581,433,"No",NA,NA,NA,NA,NA,NA
"49",98,34,"identical",49,"exp_1",6342997,6352124,8,"g?l",NA,6346321,6351821,"617",6348903,6348911,6348900,NA,7.388,3,6348888,6348910,22,577,660,2.0501,153.140000000001,88.0071739130435,"NO",NA,6348911,6349133,222,"No",NA,NA,NA,NA,NA,NA
"50",98,15,"ben",50,"exp_1",6353997,6362545,4,"mal","bir",6354709,6358809,"387",6356063,6356068,6356060,"sacc",5.936,3,6356053,6356072,19,372.4,437.2,1.60056,125.97,77.6815,"NO",NA,6356073,6356323,250,"Yes","LEFT","right",3422.217,0,"Yes",NA
"51",98,63,"ben",51,"exp_1",6364655,6375267,8,"mor","ben",6365358,6374961,"676",6370158,6370167,6370155,"sacc",9.633,3,6370128,6371333,1205,464.7,572.8,2.67007,NA,NA,"YES",1041,6372500,6372716,216,"No",NA,NA,NA,NA,"Yes","yes"
"52",98,13,"ben",52,"exp_1",6378880,6383896,7,"kar","bir",6379528,6383592,"532",6381863,6381872,6381860,"sacc",8.958,3,6381841,6381866,25,443.3,548.2,2.59103,206.245000000001,100.0825,"NO",NA,6381867,6382169,302,"No",NA,NA,NA,NA,"Yes",NA
"53",98,62,"identical",53,"exp_1",6386172,6392525,7,"sos",NA,6388187,6392216,"519",6389871,6389880,6389867,NA,9.615,4,6389853,6389873,20,471.5,536.3,1.60056,130.91,73.9235714285714,"NO",NA,6389874,6390029,155,"No",NA,NA,NA,NA,NA,NA
"54",98,22,"identical",54,"exp_1",6394621,6400100,7,"ge?",NA,6395324,6399792,"593",6397338,6397347,6397334,NA,9.102,4,6397323,6397342,19,556.6,618.2,1.52152,135.85,74.1,"NO",NA,6397343,6397436,93,"No",NA,NA,NA,NA,NA,NA
"55",98,58,"identical",55,"exp_1",6402173,6411741,6,"ile",NA,6404075,6411436,"508",6405591,6405597,6405589,NA,5.764,2,6405873,6405890,17,503.9,454.1,1.23006,95.0949999999999,66.1411111111111,"NO",NA,6406197,6406372,175,"No",NA,NA,NA,NA,NA,NA
"56",98,71,"ben",56,"exp_1",6414182,6423254,7,"iyi","ben",6417990,6422949,"665",6420541,6420547,6420538,"sacc",6.326,3,6420525,6420545,20,628.2,688.9,1.49929,111.15,69.3364285714286,"NO",NA,6420546,6420819,273,"No",NA,NA,NA,NA,"Yes",NA
"57",98,38,"identical",57,"exp_1",6425301,6432133,7,"i?e",NA,6426483,6430727,"641",6428752,6428760,6428749,NA,7.502,3,6428733,6428753,20,588,655.6,1.66972,127.204999999999,76.0995238095238,"NO",NA,6428754,6429133,379,"Yes","LEFT","right",1094.172,0,NA,NA
"58",98,44,"identical",58,"exp_1",6434043,6441637,5,"eve",NA,6434908,6438909,"508",6436616,6436623,6436615,NA,6.077,1,6437056,6437080,24,506.3,608.1,2.51446,209.95,99.788,"NO",NA,6437081,6437289,208,"Yes","LEFT","right",2415.457,0,NA,NA
"59",98,39,"ben",59,"exp_1",6443747,6450288,4,"kar","bir",6444694,6448596,"388",6446044,6446049,6446041,"sacc",5.894,3,6446034,6446055,21,371.7,452.9,2.00564,145.73,89.0322727272727,"NO",NA,6446056,6446576,520,"Yes","LEFT","right",1387.483,0,"Yes",NA
"60",98,16,"identical",60,"exp_1",6452069,6455918,5,"zar",NA,6452548,6455612,"484",6454387,6454392,6454384,NA,5.061,3,6454344,6454438,94,466.4,551.6,2.10444,114.854999999999,27.235,"NO",NA,6454439,6454687,248,"No",NA,NA,NA,NA,NA,NA
"61",98,52,"identical",61,"exp_1",6458214,6488416,7,"?ok",NA,6461722,6477535,"605",6463930,6463936,6463927,NA,6.009,3,6463914,6463937,23,555.6,642.5,2.14643,175.369999999999,89.3316666666667,"NO",NA,6463938,6464359,421,"Yes","RIGHT","right",10565.495,1,NA,NA
"62",98,1,"ben",62,"exp_1",6490564,6497119,6,"ile","bir",6491048,6494243,"484",6492768,6492775,6492765,"fix",7.603,3,6493092,6493113,21,518.1,588.7,1.74382,140.79,78.3663636363636,"NO",NA,6492769,6493091,322,"Yes","LEFT","right",2561.334,0,"Yes",NA
"63",98,2,"identical",63,"exp_1",6500205,6507304,6,"bol",NA,6503249,6507004,"567",6505350,6505355,6505347,NA,5.825,3,6505333,6505354,21,517.2,593.5,1.88461,143.26,84.3729545454545,"NO",NA,6505355,6505590,235,"No",NA,NA,NA,NA,NA,NA
"64",98,21,"ben",64,"exp_1",6509127,6514702,3,"dut","bir",6509735,6512215,"305",6510430,6510436,6510429,"fix",5.553,1,6510594,6510616,22,315.6,398.3,2.04269,159.315,88.2756521739131,"NO",NA,6510430,6510593,163,"Yes","LEFT","right",2170.745,0,"Yes",NA
"65",98,78,"identical",65,"exp_1",6516558,6521805,5,"iyi",NA,6517202,6521497,"450",6518879,6518887,6518877,NA,7.421,2,6519021,6519041,20,447.9,516.6,1.69689,149.435,80.5102380952382,"NO",NA,6518875,6519020,145,"No",NA,NA,NA,NA,NA,NA
"66",98,12,"identical",66,"exp_1",6527784,6536261,3,"caz",NA,6528597,6534200,"245",6529255,6529261,6529251,NA,6.057,4,6529507,6529526,19,255.1,320.7,1.62032,116.09,78.6695,"NO",NA,6529250,6529506,256,"Yes","LEFT","right",1747.834,0,NA,NA
"67",98,37,"ben",67,"exp_1",6539475,6545782,4,"fes","bir",6542341,6545480,"449",6544579,6544586,6544578,"sacc",6.171,1,6544570,6544594,24,432.9,528.4,2.35885,200.07,93.6624,"NO",NA,6544595,6544792,197,"No",NA,NA,NA,NA,"Yes",NA
"68",98,59,"ben",68,"exp_1",6548317,6554858,7,"?t?","ben",6548961,6554561,"654",6551122,6551130,6551119,"fix",8.653,3,6551674,6551694,20,669.2,733.5,1.58821,140.79,74.3940476190476,"NO",NA,6551117,6551673,556,"No",NA,NA,NA,NA,"Yes",NA
"69",98,77,"ben",69,"exp_1",6559431,6564306,6,"iyi","ben",6560553,6564005,"545",6562114,6562121,6562110,"sacc",7.664,4,6562074,6562139,65,534.7,586.3,1.27452,111.15,31.7918939393939,"NO",NA,6562140,6562423,283,"No",NA,NA,NA,NA,"Yes",NA
"70",98,7,"ben",70,"exp_1",6568808,6574286,6,"a?k","bir",6570013,6573979,"449",6571511,6571519,6571508,"sacc",8.295,3,6571493,6571513,20,391,465.9,1.85003,143.26,86.567619047619,"NO",NA,6571514,6572077,563,"No",NA,NA,NA,NA,"Yes",NA
"71",98,27,"ben",71,"exp_1",6576706,6581789,6,"ile","bir",6577363,6581480,"496",6579306,6579315,6579305,"fix",8.472,1,6579694,6579722,28,505,643,3.4086,234.65,116.984310344828,"NO",NA,6579307,6579693,386,"No",NA,NA,NA,NA,"Yes",NA
"72",98,74,"identical",72,"exp_1",6586487,6591310,6,"ama",NA,6587002,6591005,"522",6589526,6589534,6589524,NA,8.761,2,6589697,6589717,20,526.6,590.8,1.58574,118.559999999999,73.2766666666667,"NO",NA,6589526,6589696,170,"No",NA,NA,NA,NA,NA,NA
"73",98,57,"ben",73,"exp_1",6593573,6604165,7,"mum","ben",6594347,6599730,"594",6596522,6596529,6596519,"sacc",7.849,3,6596504,6596527,23,538.8,622.2,2.05998,174.135,86.4499999999999,"NO",NA,6596528,6596794,266,"Yes","LEFT","right",4125.111,0,"Yes",NA
"74",98,54,"identical",74,"exp_1",6607967,6615445,5,"top",NA,6609423,6611883,"495",6610598,6610603,6610595,NA,5.216,3,6610585,6610607,22,462.7,540.7,1.9266,156.845,81.9932608695652,"NO",NA,6610608,6610882,274,"Yes","RIGHT","right",3244.123,1,NA,NA
"75",98,10,"identical",75,"exp_1",6618520,6625891,5,"bot",NA,6620001,6624422,"483",6621886,6621894,6621883,NA,8.916,3,6621872,6621894,22,445.9,535.9,2.223,196.365,98.1825,"NO",NA,6621895,6622137,242,"Yes","LEFT","right",1155.218,0,NA,NA
"76",98,72,"identical",76,"exp_1",6634488,6641164,6,"eve",NA,6636431,6640859,"604",6638606,6638613,6638603,NA,7.067,3,6638904,6638926,22,615.7,694,1.93401,139.554999999999,83.1745652173913,"NO",NA,6638601,6638903,302,"No",NA,NA,NA,NA,NA,NA
"77",98,47,"ben",77,"exp_1",6643132,6651669,7,"yan","ben",6643831,6649324,"557",6646439,6646446,6646437,"sacc",6.587,2,6646429,6646450,21,540.2,614.7,1.84015,140.79,82.0713636363637,"NO",NA,6646451,6646904,453,"Yes","RIGHT","right",2033.293,1,"Yes",NA
"78",98,32,"identical",78,"exp_1",6653637,6660981,4,"s?t",NA,6654338,6660679,"377",6655468,6655477,6655465,NA,9.079,3,6655456,6655476,20,351.3,416.1,1.60056,123.5,74.9233333333333,"NO",NA,6655477,6655846,369,"No",NA,NA,NA,NA,NA,NA
"79",98,45,"ben",79,"exp_1",6663688,6672786,8,"s?t","ben",6664958,6670232,"651",6667370,6667377,6667366,"sacc",7.475,4,6667357,6667376,19,624.8,683.7,1.45483,123.5,71.19775,"NO",NA,6667377,6667535,158,"Yes","RIGHT","right",2242.76,1,"Yes",NA
"80",98,48,"identical",80,"exp_1",6674785,6681407,5,"ta?",NA,6676370,6681101,"521",6678024,6678030,6678022,NA,5.669,2,6678010,6678035,25,471,577.8,2.63796,184.015,100.89,"NO",NA,6678036,6678266,230,"No",NA,NA,NA,NA,NA,NA
"81",98,49,"ben",81,"exp_1",6683235,6690677,7,"g?l","ben",6684971,6688896,"546",6687399,6687407,6687396,"sacc",8.575,3,6687383,6687405,22,503.3,578.9,1.86732,140.79,79.9528260869565,"NO",NA,6687406,6687993,587,"Yes","RIGHT","right",1467.438,1,"Yes",NA
"82",98,55,"ben",82,"exp_1",6692600,6699697,8,"hep","ben",6693080,6699392,"761",6697188,6697197,6697186,"sacc",8.489,2,6697177,6697196,19,738.1,796.2,1.43507,113.620000000001,70.0245000000001,"NO",NA,6697197,6697377,180,"No",NA,NA,NA,NA,"Yes",NA
"83",98,41,"ben",83,"exp_1",6701718,6705527,4,"ter","bir",6702190,6705223,"376",6703308,6703316,6703306,"sacc",7.694,2,6703289,6703310,21,306.9,388.9,2.0254,165.49,91.1654545454545,"NO",NA,6703311,6703565,254,"No",NA,NA,NA,NA,"Yes",NA
"84",98,25,"ben",84,"exp_1",6707566,6716227,5,"zor","bir",6708055,6712700,"448",6709890,6709898,6709891,"fix",8.641,-1,6709987,6710096,109,451.6,448.1,0.08645,NA,NA,"YES",31,6709882,6709986,104,"Yes","RIGHT","right",3214.783,1,"Yes",NA
"85",98,29,"ben",85,"exp_1",6722088,6731984,6,"kez","bir",6726988,6731676,"568",6729181,6729190,6729178,"sacc",8.538,3,6729165,6729183,18,524.8,580.2,1.36838,119.795000000001,70.8500000000001,"NO",NA,6729184,6729272,88,"No",NA,NA,NA,NA,"Yes",NA
"86",98,36,"identical",86,"exp_1",6734715,6744473,7,"?ok",NA,6738863,6744165,"591",6741116,6741124,6741113,NA,8.286,3,6741106,6741124,18,573,630.6,1.42272,123.5,76.5013888888888,"NO",NA,6741125,6741372,247,"No",NA,NA,NA,NA,NA,NA
"87",98,82,"identical",87,"exp_1",6748556,6757703,6,"?ok",NA,6749754,6757397,"532",6752815,6752824,6752812,NA,9.275,3,6752802,6752825,23,507.9,584,1.87967,140.790000000001,77.650625,"NO",NA,6752826,6753063,237,"No",NA,NA,NA,NA,NA,NA
"88",98,80,"identical",88,"exp_1",6768544,6779238,10,"hak",NA,6770852,6776747,"844",6774593,6774602,6774591,NA,8.174,2,6774576,6774597,21,787.5,864.9,1.91178,148.2,85.215,"NO",NA,6774598,6774771,173,"Yes","LEFT","right",2160.23,0,NA,NA
"89",98,14,"identical",89,"exp_1",6782987,6791485,5,"?am",NA,6785881,6791180,"533",6787382,6787391,6787379,NA,9.061,3,6787582,6787765,183,536.3,653.6,2.89731,NA,NA,"YES",104,6787372,6787581,209,"No",NA,NA,NA,NA,NA,NA
"90",98,6,"identical",90,"exp_1",6795485,6800703,6,"toz",NA,6796959,6800406,"460",6798721,6798728,6798718,NA,7.364,3,6798712,6798736,24,454.8,543.1,2.18101,158.08,86.7958,"NO",NA,6798737,6799344,607,"No",NA,NA,NA,NA,NA,NA
"91",98,17,"ben",91,"exp_1",6803429,6807263,3,"kar","bir",6803942,6806967,"303",6804986,6804993,6804983,"sacc",7.492,3,6804967,6804988,21,240.7,316.1,1.86238,144.495,83.7554545454546,"NO",NA,6804989,6805165,176,"No",NA,NA,NA,NA,"Yes",NA
"92",98,5,"ben",92,"exp_1",6810927,6815537,6,"bo?","bir",6811429,6815232,"604",6813193,6813202,6813191,"fix",9.362,2,6813299,6813323,24,607.4,530.5,1.89943,150.670000000001,76.0266,"NO",NA,6813191,6813298,107,"No",NA,NA,NA,NA,"Yes",NA
"93",98,51,"ben",93,"exp_1",6817598,6826247,9,"ara","ben",6819179,6825952,"820",6823648,6823655,6823646,"sacc",6.344,2,6823630,6823652,22,765.3,837.7,1.78828,151.905000000001,77.1069565217391,"NO",NA,6823653,6824059,406,"No",NA,NA,NA,NA,"Yes",NA
"94",98,15,"ben",94,"exp_2",6948562,6954439,9,"?ok","bir",6949675,6954128,"713",6952339,6952349,6952337,"sacc",9.305,2,6952333,6952353,20,705.3,766.8,1.51905,127.205000000001,70.512619047619,"NO",NA,6952354,6952580,226,"No",NA,NA,NA,NA,"Yes",NA
"95",98,31,"ben",95,"exp_2",6956292,6992756,5,"g??","bir",6988050,6991085,"496",6990008,6990015,6990005,"sacc",7.041,3,6989989,6990009,20,432.1,509.6,1.91425,165.49,89.2140476190476,"NO",NA,6990010,6990339,329,"Yes","LEFT","right",1353.591,0,"Yes",NA
"96",98,14,"identical",96,"exp_2",6994563,6999726,5,"zil",NA,6995157,6999419,"497",6997133,6997139,6997131,NA,5.222,2,6997120,6997142,22,460.1,546,2.12173,161.785,90.8530434782609,"NO",NA,6997143,6997694,551,"No",NA,NA,NA,NA,NA,NA
"97",98,77,"ben",97,"exp_2",7001527,7006462,7,"mum","ben",7002007,7006150,"593",7004097,7004105,7004096,"fix",7.4,1,7004609,7004628,19,607,663.4,1.39308,121.029999999999,67.3692499999999,"NO",NA,7004097,7004608,511,"No",NA,NA,NA,NA,"Yes",NA
"98",98,42,"identical",98,"exp_2",7008462,7023831,9,"kez",NA,7011079,7023510,"833",7014483,7014491,7014481,NA,8.526,2,7014468,7014486,18,792.6,846,1.31898,127.204999999999,67.73,"NO",NA,7014487,7014742,255,"No",NA,NA,NA,NA,NA,NA
"99",98,64,"identical",99,"exp_2",7025729,7034151,5,"muz",NA,7026375,7033828,"425",7028810,7028819,7028807,NA,9.531,3,7028788,7028812,24,340.3,441.2,2.49223,174.135,98.8988,"NO",NA,7028813,7029036,223,"No",NA,NA,NA,NA,NA,NA
"100",98,57,"ben",100,"exp_2",7035985,7040068,6,"tuz","ben",7036661,7039739,"508",7038214,7038221,7038212,"sacc",7.338,2,7038197,7038381,184,493.1,463.3,0.73606,NA,NA,"YES",83,7038826,7038987,161,"No",NA,NA,NA,NA,"Yes","yes"
"101",98,72,"identical",101,"exp_2",7045524,7050355,5,"kez",NA,7046167,7050048,"472",7047859,7047869,7047857,NA,9.506,2,7048108,7048129,21,480.5,557.6,1.90437,140.79,83.6431818181818,"NO",NA,7047860,7048107,247,"No",NA,NA,NA,NA,NA,NA
"102",98,69,"ben",102,"exp_2",7052238,7059809,7,"dar","ben",7053037,7059501,"653",7057602,7057609,7057599,"fix",6.147,3,7057988,7058169,181,661.6,716.3,1.35109,NA,NA,"YES",84,7057602,7057987,385,"No",NA,NA,NA,NA,"Yes",NA
"103",98,79,"ben",103,"exp_2",7061735,7067897,5,"yem","ben",7062685,7067589,"568",7064625,7064633,7064622,"sacc",8.372,3,7064607,7064626,19,521,578.3,1.41531,117.325,68.72775,"NO",NA,7064627,7064751,124,"No",NA,NA,NA,NA,"Yes",NA
"104",98,22,"identical",104,"exp_2",7069656,7075050,4,"kek",NA,7070181,7074736,"448",7072538,7072546,7072535,NA,8.132,3,7072531,7072551,20,445.1,505.3,1.48694,118.56,69.6304761904762,"NO",NA,7072552,7072767,215,"No",NA,NA,NA,NA,NA,NA
"105",98,70,"identical",105,"exp_2",7077457,7083615,8,"du?",NA,7078085,7083288,"616",7080082,7080087,7080080,NA,5.769,2,7080068,7080086,18,586.9,628.4,1.02505,91.3899999999997,52.455,"NO",NA,7080087,7080233,146,"No",NA,NA,NA,NA,NA,NA
"106",98,65,"ben",106,"exp_2",7085495,7095533,4,"cam","ben",7088271,7095227,"423",7090795,7090824,7090792,"sacc",29.401,3,7090784,7090809,25,402,509.1,2.64537,182.779999999999,101.5075,"NO",NA,7090810,7091117,307,"No",NA,NA,NA,NA,"Yes",NA
"107",98,75,"ben",107,"exp_2",7097597,7106083,3,"a??","ben",7099287,7103226,"294",7100253,7100259,7100250,"fix",6.548,3,7100718,7100737,19,284.2,346.1,1.52893,109.915,74.65575,"NO",NA,7100738,7101075,337,"Yes","LEFT","right",2533.151,0,"Yes",NA
"108",98,56,"identical",108,"exp_2",7108054,7132402,8,"eve",NA,7109953,7126785,"735",7113138,7113144,7113135,NA,6.424,3,7113120,7113141,21,694.3,752.1,1.42766,111.15,62.2552272727273,"NO",NA,7113142,7113345,203,"Yes","LEFT","right",5274.662,0,NA,NA
"109",98,41,"ben",109,"exp_2",7134403,7209549,9,"toz","bir",7203700,7208402,"723",7206874,7206883,7206871,"sacc",9.481,3,7206863,7206883,20,701.6,769.7,1.68207,125.970000000001,76.6935,"NO",NA,7206884,7207152,268,"Yes","LEFT","right",829.146,0,"Yes",NA
"110",98,17,"ben",110,"exp_2",7211527,7216771,7,"?t?","bir",7212339,7216455,"748",7215107,7215113,7215104,"sacc",6.445,3,7215087,7215114,27,678.7,787.2,2.67995,179.075,94.78625,"NO",NA,7215115,7215507,392,"No",NA,NA,NA,NA,"Yes",NA
"111",98,29,"ben",111,"exp_2",7218784,7257661,7,"?ok","bir",7250071,7256149,"653",7252085,7252095,7252084,"sacc",9.218,1,7252073,7252093,20,619.1,689.6,1.74135,140.79,81.2159523809524,"NO",NA,7252094,7252399,305,"Yes","LEFT","right",1193.171,0,"Yes",NA
"112",98,49,"ben",112,"exp_2",7259766,7266098,6,"?ok","ben",7260308,7264423,"617",7261952,7261960,7261949,"sacc",7.033,3,7261877,7261999,122,552.9,628.9,1.8772,NA,NA,"YES",45,7262000,7262212,212,"Yes","RIGHT","right",1350.961,1,"Yes",NA
"113",98,50,"identical",113,"exp_2",7419227,7428652,5,"kan",NA,7424682,7428335,"520",7426386,7426392,7426384,NA,6.317,2,7426640,7426656,16,525.8,565.7,0.985530000000002,101.269999999999,56.8100000000001,"NO",NA,7426381,7426639,258,"No",NA,NA,NA,NA,NA,NA
"114",98,73,"ben",114,"exp_2",7431106,7437931,7,"?ok","ben",7432344,7436207,"571",7433785,7433792,7433782,"sacc",7.262,3,7433771,7433789,18,534.3,597.2,1.55363,133.379999999999,79.3000000000001,"NO",NA,7433790,7434155,365,"Yes","LEFT","right",1404.17,0,"Yes",NA
"115",98,1,"ben",115,"exp_2",7441875,7449594,6,"s?t","bir",7443152,7447242,"496",7444620,7444629,7444617,"sacc",8.95,3,7444608,7444626,18,473.1,526.3,1.31404,133.38,66.6899999999999,"NO",NA,7444627,7444908,281,"Yes","LEFT","right",2033.09,0,"Yes",NA
"116",98,13,"ben",116,"exp_2",7451806,7459548,4,"t?p","bir",7452304,7459236,"424",7454007,7454014,7454004,"sacc",7.138,3,7453997,7454022,25,410.5,502.9,2.28228,148.2,86.4975,"NO",NA,7454023,7454413,390,"No",NA,NA,NA,NA,"Yes",NA
"117",98,16,"identical",117,"exp_2",7463270,7469611,5,"jet",NA,7463950,7467648,"497",7465473,7465480,7465470,NA,7.709,3,7465455,7465494,39,428.6,615,4.60408,224.77,114.638875,"NO",NA,7465495,7465797,302,"Yes","LEFT","right",1643.039,0,NA,NA
"118",98,67,"ben",118,"exp_2",7472042,7481986,5,"iyi","ben",7472742,7478763,"496",7475545,7475554,7475931,"fix",8.333,-386,7475925,7475944,19,482.8,547.4,1.59562,143.26,77.74325,"NO",NA,7475945,7476235,290,"Yes","LEFT","right",2896.647,0,"Yes",NA
"119",98,40,"identical",119,"exp_2",7484558,7489723,7,"sel",NA,7485164,7489402,"557",7486917,7486925,7486915,NA,7.075,2,7486896,7486920,24,465.8,570.9,2.59597,195.129999999999,102.7026,"NO",NA,7486921,7487179,258,"No",NA,NA,NA,NA,NA,NA
"120",98,2,"identical",120,"exp_2",7491579,7496056,6,"mor",NA,7492067,7495744,"605",7494283,7494291,7494281,NA,8.137,2,7494178,7494316,138,592,650.5,1.44495,NA,NA,"YES",60,7494317,7494453,136,"No",NA,NA,NA,NA,NA,NA
"121",98,62,"identical",121,"exp_2",7498421,7504362,8,"pes",NA,7499067,7504044,"773",7502788,7502796,7502785,NA,8.313,3,7502763,7502791,28,681.4,792.2,2.73676,164.254999999999,93.9025862068965,"NO",NA,7502792,7503043,251,"No",NA,NA,NA,NA,NA,NA
"122",98,27,"ben",122,"exp_2",7506237,7512299,5,"tok","bir",7506863,7510791,"448",7508604,7508611,7508602,"fix",6.95,2,7508817,7508842,25,463.8,554.9,2.25017,146.965,85.9275,"NO",NA,7508605,7508816,211,"Yes","RIGHT","right",1182.973,1,"Yes",NA
"123",98,6,"identical",123,"exp_2",7514478,7521375,5,"sis",NA,7515209,7518911,"424",7516764,7516769,7516761,NA,5.372,3,7516750,7516769,19,391.7,451.4,1.47459,102.505,72.345,"NO",NA,7516770,7517028,258,"Yes","LEFT","right",2147.234,0,NA,NA
"124",98,53,"ben",124,"exp_2",7523131,7528639,6,"sos","ben",7523656,7526911,"450",7525204,7525212,7525200,"sacc",8.204,4,7525193,7525212,19,432.1,499.9,1.67466,134.615,81.705,"NO",NA,7525213,7525335,122,"Yes","LEFT","right",1404.098,0,"Yes",NA
"125",98,81,"ben",125,"exp_2",7531042,7536148,4,"evi","ben",7531527,7535837,"435",7532752,7532757,7532749,"sacc",5.605,3,7532739,7532761,22,410.4,487.1,1.89449,153.14,81.8858695652174,"NO",NA,7532762,7533233,471,"No",NA,NA,NA,NA,"Yes",NA
"126",98,9,"ben",126,"exp_2",7537944,7543512,6,"f?n","bir",7538526,7542359,"568",7540678,7540687,7540675,"sacc",9.334,3,7540665,7540688,23,543.7,633.7,2.223,193.894999999999,91.1327083333333,"NO",NA,7540689,7540898,209,"Yes","RIGHT","right",828.447,1,"Yes",NA
"127",98,24,"identical",127,"exp_2",7545351,7551133,5,"?ok",NA,7545834,7549755,"447",7547303,7547311,7547301,NA,8.251,2,7547479,7547504,25,454.2,568.2,2.8158,217.36,106.875,"NO",NA,7547301,7547478,177,"Yes","RIGHT","right",1050.088,1,NA,NA
"128",98,11,"ben",128,"exp_2",7553140,7557410,4,"k??","bir",7554068,7557094,"496",7555816,7555824,7555813,"sacc",8.478,3,7555807,7555829,22,486.6,570,2.05998,175.370000000001,89.0810869565217,"NO",NA,7555830,7556051,221,"No",NA,NA,NA,NA,"Yes",NA
"129",98,60,"identical",129,"exp_2",7559295,7563455,4,"pul",NA,7559908,7563143,"413",7561431,7561439,7561429,NA,7.172,2,7561418,7561438,20,380.1,441.7,1.52152,113.62,70.395,"NO",NA,7561439,7561636,197,"No",NA,NA,NA,NA,NA,NA
"130",98,61,"ben",130,"exp_2",7565278,7570916,6,"?ok","ben",7565910,7570604,"533",7567705,7567712,7567702,"fix",7.525,3,7567941,7567959,18,545.4,600.9,1.37085,116.090000000001,70.2,"NO",NA,7567706,7567940,234,"No",NA,NA,NA,NA,"Yes",NA
"131",98,37,"ben",131,"exp_2",7572915,7578353,7,"?ok","bir",7573589,7578040,"724",7575579,7575587,7575576,"sacc",8.763,3,7575557,7575581,24,651.6,743.2,2.26252,155.609999999999,88.0308,"NO",NA,7575582,7575828,246,"No",NA,NA,NA,NA,"Yes",NA
"132",98,76,"identical",132,"exp_2",7583515,7591717,8,"top",NA,7584464,7589970,"797",7586991,7587000,7586988,NA,9.07,3,7586978,7587002,24,766.1,854.8,2.19089,130.91,85.9066,"NO",NA,7587003,7587332,329,"Yes","LEFT","right",1426.124,0,NA,NA
"133",98,80,"identical",133,"exp_2",7595949,7606840,8,"ge?",NA,7598712,7604158,"832",7601620,7601628,7601618,NA,8.477,2,7601855,7601875,20,833.3,903.7,1.73888,146.965,80.6278571428572,"NO",NA,7601620,7601854,234,"Yes","RIGHT","right",2362.359,1,NA,NA
"134",98,3,"ben",134,"exp_2",7638059,7649467,6,"sis","bir",7643102,7647195,"520",7645434,7645442,7645431,"sacc",8.721,3,7645415,7645438,23,454.9,549.7,2.34156,158.080000000001,96.02125,"NO",NA,7645439,7645835,396,"Yes","LEFT","right",1946.766,0,"Yes",NA
"135",98,30,"identical",135,"exp_2",7651597,7657462,8,"?ok",NA,7652141,7657145,"677",7654413,7654418,7654411,NA,5.772,2,7654396,7654417,21,634.9,696,1.50917,104.975,66.5215909090909,"NO",NA,7654418,7654641,223,"No",NA,NA,NA,NA,NA,NA
"136",98,10,"identical",136,"exp_2",7659198,7663314,5,"k?f",NA,7659687,7663000,"485",7661716,7661722,7661714,NA,5.926,2,7661878,7661899,21,502.3,576.1,1.82286,143.26,81.51,"NO",NA,7661716,7661877,161,"No",NA,NA,NA,NA,NA,NA
"137",98,19,"ben",137,"exp_2",7665295,7669917,5,"buz","bir",7666173,7669594,"508",7667573,7667583,7667571,"fix",9.424,2,7668003,7668026,23,507.4,585.2,1.92166,133.379999999999,78.4739583333334,"NO",NA,7667561,7668002,441,"No",NA,NA,NA,NA,"Yes",NA
"138",98,54,"identical",138,"exp_2",7671822,7681630,6,"toz",NA,7672250,7678041,"604",7674771,7674778,7674767,NA,7.6,4,7674976,7674996,20,612.4,679.9,1.66725,127.205000000001,78.6283333333334,"NO",NA,7674763,7674975,212,"Yes","LEFT","right",3265.841,0,NA,NA
"139",98,23,"ben",139,"exp_2",7683834,7691960,8,"s?t","bir",7684318,7690374,"676",7687315,7687321,7687313,"sacc",6.317,2,7687300,7687321,21,629.6,706.1,1.88955,158.080000000001,85.6854761904762,"NO",NA,7687322,7687548,226,"Yes","RIGHT","right",1261.307,1,"Yes",NA
"140",98,48,"identical",140,"exp_2",7693660,7699321,5,"ucu",NA,7694224,7697399,"533",7696066,7696072,7696063,NA,6.578,3,7696238,7696261,23,548.5,637.9,2.20818,159.315,89.84625,"NO",NA,7696066,7696237,171,"Yes","LEFT","right",1598.274,0,NA,NA
"141",98,43,"ben",141,"exp_2",7701179,7706224,8,"?ok","ben",7701628,7705908,"665",7703920,7703926,7703917,"fix",6.839,3,7704363,7704388,25,665.5,759.9,2.33168,144.494999999999,88.73,"NO",NA,7703908,7704362,454,"No",NA,NA,NA,NA,"Yes",NA
"142",98,34,"identical",142,"exp_2",7709279,7714503,9,"kin",NA,7709649,7714190,"724",7712055,7712065,7712052,NA,9.889,3,7712041,7712060,19,689.4,748.3,1.45483,123.5,70.2715,"NO",NA,7712061,7712294,233,"No",NA,NA,NA,NA,NA,NA
"143",98,47,"ben",143,"exp_2",7716559,7721939,5,"buz","ben",7717387,7721624,"557",7719114,7719122,7719111,"sacc",7.623,3,7719104,7719123,19,541.1,606.5,1.61538,133.379999999999,79.4105,"NO",NA,7719124,7719311,187,"No",NA,NA,NA,NA,"Yes",NA
"144",98,7,"ben",144,"exp_2",7723767,7729342,5,"ada","bir",7724278,7729029,"509",7726183,7726188,7726179,"sacc",5.703,4,7726174,7726196,22,501.8,585.9,2.07727,164.254999999999,88.5978260869565,"NO",NA,7726197,7726714,517,"No",NA,NA,NA,NA,"Yes",NA
"145",98,66,"identical",145,"exp_2",7731346,7739780,11,"?ut",NA,7731965,7739460,"906",7735182,7735190,7735179,NA,8.028,3,7735577,7735598,21,921.5,988.7,1.65984,142.025,74.2684090909091,"NO",NA,7735182,7735576,394,"No",NA,NA,NA,NA,NA,NA
"146",98,74,"identical",146,"exp_2",7741931,7750268,7,"?al",NA,7742426,7749951,"725",7747402,7747411,7747399,NA,9.645,3,7747387,7747406,19,688.6,743.2,1.34862,101.270000000001,65.26975,"NO",NA,7747407,7747568,161,"No",NA,NA,NA,NA,NA,NA
"147",98,44,"identical",147,"exp_2",7752284,7759131,6,"eve",NA,7752963,7758815,"534",7754356,7754365,7754355,NA,8.049,1,7754548,7754564,16,540,489.8,1.23994,124.735,70.9761764705882,"NO",NA,7754356,7754547,191,"No",NA,NA,NA,NA,NA,NA
"148",98,52,"identical",148,"exp_2",7765271,7770610,6,"hap",NA,7766945,7770294,"483",7768077,7768084,7768075,NA,6.023,2,7768065,7768082,17,451.4,507,1.37332,134.615,74.1686111111111,"NO",NA,7768083,7768198,115,"No",NA,NA,NA,NA,NA,NA
"149",98,25,"ben",149,"exp_2",7772480,7778147,5,"hi?","bir",7772968,7776596,"508",7774379,7774386,7774375,"fix",7.695,4,7774650,7774670,20,512.4,580.7,1.68701,129.675,79.0400000000001,"NO",NA,7774372,7774649,277,"Yes","RIGHT","right",1228.445,1,"Yes",NA
"150",98,71,"ben",150,"exp_2",7780081,7786942,6,"ilk","ben",7780572,7785284,"545",7782511,7782520,7782507,"sacc",9.379,4,7782501,7782521,20,534.4,605.2,1.74876,138.320000000001,81.3335714285715,"NO",NA,7782522,7782704,182,"Yes","RIGHT","right",1337.538,1,"Yes",NA
"151",98,21,"ben",151,"exp_2",7789003,7794446,5,"eve","bir",7789490,7794131,"484",7791090,7791096,7791088,"fix",6.384,2,7791535,7791552,17,494,531,0.9139,82.7449999999999,49.0569444444444,"NO",NA,7791075,7791534,459,"No",NA,NA,NA,NA,"Yes",NA
"152",98,12,"identical",152,"exp_2",7796235,7801198,4,"hep",NA,7796731,7800881,"435",7798042,7798049,7798039,NA,7.855,3,7797955,7798084,129,392.2,477.7,2.11185,NA,NA,"YES",41,7798085,7798284,199,"No",NA,NA,NA,NA,NA,NA
"153",98,35,"ben",153,"exp_2",7803686,7810577,6,"t?y","bir",7804319,7809213,"533",7806254,7806262,7806250,"sacc",8.759,4,7806235,7806255,20,479.9,547.8,1.67713,119.795000000001,77.5109523809524,"NO",NA,7806256,7806380,124,"Yes","LEFT","right",1043.05,0,"Yes",NA
"154",98,18,"identical",154,"exp_2",7812733,7817096,6,"zor",NA,7813233,7816786,"472",7814959,7814968,7814955,NA,9.198,4,7814943,7814963,20,426.3,497.7,1.76358,132.145000000001,81.8040476190476,"NO",NA,7814964,7815261,297,"No",NA,NA,NA,NA,NA,NA
"155",98,26,"identical",155,"exp_2",7818984,7826559,5,"?ok",NA,7821896,7826239,"605",7823788,7823794,7823784,NA,6.206,4,7823776,7823803,27,586.7,698.6,2.76393,184.015,97.4767857142857,"NO",NA,7823804,7824166,362,"No",NA,NA,NA,NA,NA,NA
"156",98,36,"identical",156,"exp_2",7828417,7834663,3,"zil",NA,7829283,7832966,"377",7830381,7830389,7830378,NA,8.168,3,7830633,7830652,19,388.6,447.3,1.44989,117.325,70.889,"NO",NA,7830380,7830632,252,"Yes","LEFT","right",1371.968,0,NA,NA
"157",98,45,"ben",157,"exp_2",7836746,7842666,5,"hep","ben",7837342,7842351,"532",7839516,7839524,7839513,"sacc",7.947,3,7839506,7839528,22,518.9,598.4,1.96365,138.320000000001,84.4095652173913,"NO",NA,7839529,7839814,285,"No",NA,NA,NA,NA,"Yes",NA
"158",98,63,"ben",158,"exp_2",7845564,7856580,9,"f?n","ben",7846410,7855090,"904",7851478,7851486,7851475,"sacc",8.802,3,7851461,7851482,21,857.3,922.8,1.61785,133.379999999999,71.9106818181818,"NO",NA,7851483,7851922,439,"Yes","RIGHT","right",1163.484,1,"Yes",NA
"159",98,59,"ben",159,"exp_2",7858454,7865159,7,"ku?","ben",7859070,7864844,"580",7861885,7861894,7861882,"sacc",9.125,3,7861871,7861894,23,546.4,637.8,2.25758,144.495000000001,92.9471739130434,"NO",NA,7861895,7862021,126,"No",NA,NA,NA,NA,"Yes",NA
"160",98,5,"ben",160,"exp_2",7867343,7873704,3,"dut","bir",7868251,7873247,"377",7869217,7869222,7869215,"fix",5.715,2,7869369,7869385,16,384.6,434.9,1.24241,108.68,71.2667647058823,"NO",NA,7869213,7869368,155,"Yes","RIGHT","right",129.06,1,"Yes",NA
"161",98,55,"ben",161,"exp_2",7875817,7886160,7,"g?n","ben",7876338,7885841,"533",7879574,7879579,7879570,"fix",5.857,4,7879672,7879694,22,534.4,612.4,1.9266,150.669999999999,83.0671739130434,"NO",NA,7879695,7879860,165,"No",NA,NA,NA,NA,"Yes",NA
"162",98,78,"identical",162,"exp_2",7894835,7900707,5,"tur",NA,7895497,7900395,"376",7897711,7897720,7897708,NA,9.397,3,7897700,7897722,22,359.4,440.3,1.99823,164.255,86.0204347826087,"NO",NA,7897723,7898035,312,"No",NA,NA,NA,NA,NA,NA
"163",98,20,"identical",163,"exp_2",7902445,7905626,5,"tat",NA,7903013,7905307,"364",7904133,7904140,7904130,NA,6.903,3,7904119,7904138,19,329.7,395.2,1.61785,130.91,78.6695,"NO",NA,7904139,7904368,229,"No",NA,NA,NA,NA,NA,NA
"164",98,28,"identical",164,"exp_2",7908294,7913137,6,"ara",NA,7908878,7912825,"651",7911178,7911184,7911175,NA,6.935,3,7911157,7911185,28,559.5,694.2,3.32709,226.004999999999,114.684655172414,"NO",NA,7911186,7911374,188,"No",NA,NA,NA,NA,NA,NA
"165",98,39,"ben",165,"exp_2",7915352,7925501,8,"ge?","bir",7915844,7924019,"711",7922411,7922418,7922408,"sacc",6.885,3,7922398,7922418,20,676.4,745.4,1.7043,132.145000000001,82.4362500000001,"NO",NA,7922419,7922952,533,"Yes","RIGHT","right",1157.605,1,"Yes",NA
"166",98,46,"identical",166,"exp_2",7927601,7933138,7,"hi?",NA,7928216,7932821,"581",7930030,7930038,7930027,NA,7.851,3,7929956,7930082,126,575.5,626.2,1.25229,NA,NA,"YES",42,7930083,7930398,315,"No",NA,NA,NA,NA,NA,NA
"167",98,82,"identical",167,"exp_2",7935034,7944001,7,"ya?",NA,7935599,7941025,"605",7938475,7938481,7938473,NA,6.221,2,7938458,7938477,19,552,621.4,1.71418,132.145000000001,83.05375,"NO",NA,7938478,7938753,275,"Yes","LEFT","right",2650.576,0,NA,NA
"168",98,38,"identical",168,"exp_2",7956715,7962592,6,"iyi",NA,7957614,7962279,"567",7959616,7959625,7959613,NA,8.957,3,7959600,7959618,18,526.3,583.9,1.42272,121.030000000001,74.425,"NO",NA,7959619,7959746,127,"No",NA,NA,NA,NA,NA,NA
"169",98,51,"ben",169,"exp_2",7964447,7970062,4,"sa?","ben",7965160,7969745,"376",7966505,7966511,7966503,"fix",6.601,2,7966577,7966599,22,384.7,307.6,1.90437,145.729999999999,81.5636956521739,"NO",NA,7966506,7966576,70,"No",NA,NA,NA,NA,"Yes",NA
"170",98,33,"ben",170,"exp_2",7971961,7976716,4,"hi?","bir",7972459,7976397,"399",7974173,7974182,7974170,"fix",9.454,3,7974249,7974272,23,402.9,319.2,2.06739,150.670000000001,85.215,"NO",NA,7974172,7974248,76,"No",NA,NA,NA,NA,"Yes",NA
"171",98,8,"identical",171,"exp_2",7978922,7982076,3,"dil",NA,7979588,7981757,"376",7980543,7980551,7980540,NA,8.877,3,7980528,7980544,16,332.6,388.9,1.39061,117.325,78.6041176470588,"NO",NA,7980545,7980850,305,"No",NA,NA,NA,NA,NA,NA
"172",98,68,"identical",172,"exp_2",7984819,7991738,10,"ile",NA,7985498,7991422,"858",7989054,7989060,7989051,NA,6.851,3,7989045,7989067,22,844.3,918.7,1.83768,127.204999999999,77.4828260869566,"NO",NA,7989068,7989273,205,"No",NA,NA,NA,NA,NA,NA
"173",98,32,"identical",173,"exp_2",7993819,7998316,7,"top",NA,7994321,7997997,"568",7996280,7996285,7996278,NA,5.712,2,7996260,7996281,21,505.2,575.3,1.73147,116.090000000001,77.1875,"NO",NA,7996282,7996465,183,"No",NA,NA,NA,NA,NA,NA
"174",98,83,"ben",174,"exp_2",8000364,8007862,5,"kez","ben",8000994,8007523,"389",8002867,8002876,8002864,"sacc",9.051,3,8002857,8002876,19,372.8,422.9,1.23747,86.45,59.345,"NO",NA,8002877,8003041,164,"No",NA,NA,NA,NA,"Yes",NA
"175",98,58,"identical",175,"exp_2",8009787,8018666,7,"pis",NA,8010409,8018349,"604",8014716,8014722,8014713,NA,6.312,3,8014866,8014891,25,612.1,700.4,2.18101,145.729999999999,83.03,"NO",NA,8014716,8014865,149,"No",NA,NA,NA,NA,NA,NA
"176",98,4,"identical",176,"exp_2",8020494,8027752,6,"iyi",NA,8021116,8027442,"531",8023635,8023644,8023632,NA,9.457,3,8023615,8023642,27,462,570.9,2.68983,146.965,94.8303571428571,"NO",NA,8023643,8023759,116,"No",NA,NA,NA,NA,NA,NA
"177",98,21,"ben",177,"exp_3",8155092,8168952,3,"?i?","bir",8155733,8158312,"353",8156368,8156376,8156365,"fix",8.004,3,8156989,8157009,20,358.8,427.1,1.68701,123.5,78.6871428571429,"NO",NA,8156357,8156988,631,"Yes","RIGHT","right",10304.579,1,"Yes",NA
"178",98,15,"ben",178,"exp_3",8170768,8179531,5,"??k","bir",8172847,8179205,"473",8174714,8174720,8174711,"sacc",6.939,3,8174699,8174717,18,437.8,487.6,1.23006,108.68,62.53,"NO",NA,8174718,8174812,94,"No",NA,NA,NA,NA,"Yes",NA
"179",98,87,"ben",179,"exp_3",8181555,8195196,7,"kek","ben",8182120,8194870,"581",8184844,8184852,8187231,"sacc",8.745,-2387,8184714,8187292,2578,330.7,636.2,7.54585,NA,NA,"YES",2486,8187293,8187378,85,"No",NA,NA,NA,NA,"Yes",NA
"180",98,9,"ben",180,"exp_3",8198749,8204275,4,"saf","bir",8199272,8203947,"495",8200656,8200665,8200652,"fix",9.619,4,8200978,8201000,22,508.7,588.5,1.97106,142.025,84.6780434782609,"NO",NA,8200655,8200977,322,"No",NA,NA,NA,NA,"Yes",NA
"181",98,8,"identical",181,"exp_3",8207095,8212979,6,"k?r",NA,8207656,8211391,"521",8209497,8209504,8209494,NA,7.525,3,8209478,8209502,24,455.9,556.8,2.49223,164.255,97.7132,"NO",NA,8209503,8209755,252,"Yes","RIGHT","right",1257.562,1,NA,NA
"182",98,86,"identical",182,"exp_3",8214897,8221574,7,"pek",NA,8215577,8221247,"700",8218142,8218151,8218138,NA,9.382,4,8218125,8218145,20,654.5,720.4,1.62773,130.909999999999,76.0995238095238,"NO",NA,8218146,8218350,204,"No",NA,NA,NA,NA,NA,NA
"183",98,24,"identical",183,"exp_3",8223434,8229336,6,"tuz",NA,8223924,8229006,"592",8226404,8226410,8226401,NA,6.044,3,8226549,8226568,19,604.3,663.9,1.47212,135.85,71.877,"NO",NA,8226404,8226548,144,"No",NA,NA,NA,NA,NA,NA
"184",98,12,"identical",184,"exp_3",8231618,8237306,6,"hep",NA,8232091,8236977,"460",8234926,8234932,8234923,NA,5.805,3,8235220,8235241,21,452.9,523.8,1.75123,121.029999999999,77.6365909090909,"NO",NA,8235242,8235419,177,"No",NA,NA,NA,NA,NA,NA
"185",98,43,"ben",185,"exp_3",8239187,8248118,6,"nem","bir",8240396,8247790,"521",8242733,8242740,8242730,"sacc",7.533,3,8242722,8242740,18,501.2,550.5,1.21771,104.975,64.0141666666667,"NO",NA,8242741,8243195,454,"No",NA,NA,NA,NA,"Yes",NA
"186",98,50,"identical",186,"exp_3",8250379,8258189,3,"cam",NA,8250966,8255590,"339",8252948,8252955,8252945,NA,7.635,3,8252933,8252952,19,299.9,361.8,1.52893,129.675,74.77925,"NO",NA,8252953,8253135,182,"Yes","LEFT","right",2262.495,0,NA,NA
"187",98,3,"ben",187,"exp_3",8262607,8268727,6,"ge?","bir",8263884,8268404,"497",8266094,8266103,8266092,"sacc",9.204,2,8266078,8266099,21,452.8,523.2,1.73888,112.385,76.6822727272728,"NO",NA,8266100,8266247,147,"No",NA,NA,NA,NA,"Yes",NA
"188",98,28,"identical",188,"exp_3",8270581,8279849,5,"?t?",NA,8271050,8276031,"533",8272692,8272698,8272690,NA,6.027,2,8272671,8272693,22,459.5,542.4,2.04763,165.49,87.1480434782608,"NO",NA,8272694,8272995,301,"Yes","RIGHT","right",3483.089,1,NA,NA
"189",98,42,"identical",189,"exp_3",8291224,8297716,7,"ba?",NA,8292352,8297390,"557",8294992,8295001,8294990,NA,9.4,2,8294969,8294993,24,481.2,566.1,2.09703,161.784999999999,83.0414,"NO",NA,8294994,8295295,301,"No",NA,NA,NA,NA,NA,NA
"190",98,52,"identical",190,"exp_3",8299972,8304785,5,"g?n",NA,8300607,8304454,"424",8302321,8302330,8302317,NA,9.079,4,8302313,8302334,21,415,488,1.8031,118.56,80.2188636363637,"NO",NA,8302335,8302504,169,"No",NA,NA,NA,NA,NA,NA
"191",98,81,"ben",191,"exp_3",8306590,8312113,4,"ucu","ben",8307235,8311783,"389",8308626,8308633,8308623,"fix",6.704,3,8308892,8308910,18,392.7,334.3,1.44248,123.5,73.84,"NO",NA,8308626,8308891,265,"No",NA,NA,NA,NA,"Yes",NA
"192",98,10,"identical",192,"exp_3",8313965,8319774,6,"fal",NA,8314622,8319449,"448",8316076,8316082,8316072,NA,6.432,4,8316058,8316077,19,398.2,465.4,1.65984,118.56,79.96625,"NO",NA,8316078,8316244,166,"No",NA,NA,NA,NA,NA,NA
"193",98,88,"identical",193,"exp_3",8321782,8327136,5,"dar",NA,8322355,8325499,"520",8323871,8323878,8323868,NA,7.437,3,8324014,8324031,17,521.6,570.2,1.20042,107.444999999999,63.6025,"NO",NA,8323862,8324013,151,"Yes","RIGHT","right",1292.369,1,NA,NA
"194",98,58,"identical",194,"exp_3",8329057,8336440,6,"iyi",NA,8329622,8334490,"521",8331239,8331244,8331237,NA,5.689,2,8331209,8331307,98,479,557.7,1.94389,NA,NA,"YES",16,8331308,8331466,158,"Yes","RIGHT","right",1608.933,1,NA,NA
"195",98,41,"ben",195,"exp_3",8338387,8352905,4,"ela","bir",8339245,8343949,"340",8340024,8340033,8340021,"fix",9.406,3,8340623,8340640,17,341.8,391.1,1.21771,93.8599999999996,65.2491666666667,"NO",NA,8340018,8340622,604,"Yes","RIGHT","right",8619.298,1,"Yes",NA
"196",98,37,"ben",196,"exp_3",8354749,8359975,5,"bo?","bir",8355387,8359643,"388",8357782,8357790,8357779,"sacc",8.361,3,8357762,8357784,22,318,403.8,2.11926,144.495,90.799347826087,"NO",NA,8357785,8358086,301,"No",NA,NA,NA,NA,"Yes",NA
"197",98,60,"identical",197,"exp_3",8362120,8369971,7,"kez",NA,8362620,8369646,"642",8365325,8365331,8365321,NA,6.576,4,8365309,8365329,20,605.1,665.9,1.50176,123.5,70.5714285714286,"NO",NA,8365330,8365510,180,"No",NA,NA,NA,NA,NA,NA
"198",98,29,"ben",198,"exp_3",8372007,8380242,6,"s?t","bir",8372819,8379911,"556",8376560,8376569,8376558,"sacc",8.849,2,8376546,8376561,15,530.8,562.9,0.792870000000001,81.5100000000003,46.3896875,"NO",NA,8376562,8376849,287,"No",NA,NA,NA,NA,"Yes",NA
"199",98,47,"ben",199,"exp_3",8384787,8389695,4,"?ay","ben",8385749,8389369,"413",8387109,8387117,8387107,"fix",8.919,2,8387456,8387475,19,427.9,481.8,1.33133,112.385,64.77575,"NO",NA,8387108,8387455,347,"No",NA,NA,NA,NA,"Yes",NA
"200",98,84,"identical",200,"exp_3",8391702,8399083,7,"du?",NA,8392282,8398753,"618",8395281,8395289,8395278,NA,8.383,3,8395631,8395651,20,622,691.3,1.71171,145.730000000001,79.8633333333333,"NO",NA,8395267,8395630,363,"No",NA,NA,NA,NA,NA,NA
"201",98,34,"identical",201,"exp_3",8401652,8406636,7,"tas",NA,8402926,8406306,"496",8405406,8405412,8405403,NA,6.843,3,8405396,8405411,15,477.4,521.9,1.09915,100.035,66.226875,"NO",NA,8405412,8405613,201,"No",NA,NA,NA,NA,NA,NA
"202",98,56,"identical",202,"exp_3",8409190,8414048,5,"ile",NA,8410001,8413721,"438",8411206,8411215,8411203,NA,8.806,3,8411340,8411362,22,451.5,535.6,2.07727,155.61,88.4367391304348,"NO",NA,8411207,8411339,132,"No",NA,NA,NA,NA,NA,NA
"203",98,7,"ben",203,"exp_3",8415912,8422360,8,"s?r","bir",8416487,8422027,"628",8418644,8418652,8418641,"sacc",8.074,3,8418623,8418647,24,568.1,645.7,1.91672,145.729999999999,78.2496000000001,"NO",NA,8418648,8419023,375,"No",NA,NA,NA,NA,"Yes",NA
"204",98,74,"identical",204,"exp_3",8424281,8429846,6,"ile",NA,8424775,8429513,"582",8427163,8427169,8427160,NA,6.515,3,8427147,8427167,20,536.9,611,1.83027,144.495000000001,85.1561904761905,"NO",NA,8427168,8427384,216,"No",NA,NA,NA,NA,NA,NA
"205",98,49,"ben",205,"exp_3",8431817,8438532,6,"iyi","ben",8433101,8438210,"497",8435220,8435228,8435217,"fix",8.508,3,8435711,8435730,19,515.1,568.5,1.31898,108.679999999999,63.78775,"NO",NA,8435218,8435710,492,"No",NA,NA,NA,NA,"Yes",NA
"206",98,67,"ben",206,"exp_3",8441187,8447536,9,"ge?","ben",8441802,8447209,"688",8445487,8445493,8445484,"sacc",6.51,3,8445474,8445492,18,661.9,716.6,1.35109,112.385,68.315,"NO",NA,8445493,8446097,604,"No",NA,NA,NA,NA,"Yes",NA
"207",98,33,"ben",207,"exp_3",8449337,8456799,6,"ta?","bir",8450178,8455422,"604",8452758,8452764,8452754,"sacc",5.975,4,8452746,8452768,22,585.6,654.1,1.69195,135.85,72.5428260869565,"NO",NA,8452769,8453129,360,"Yes","RIGHT","right",1040.997,1,"Yes",NA
"208",98,64,"identical",208,"exp_3",8459126,8463985,6,"zor",NA,8459613,8463655,"533",8460883,8460889,8460880,NA,6.475,3,8460866,8460888,22,478.2,565,2.14396,169.195,91.8732608695653,"NO",NA,8460889,8460965,76,"No",NA,NA,NA,NA,NA,NA
"209",98,20,"identical",209,"exp_3",8465991,8470513,4,"pas",NA,8466495,8470184,"352",8468230,8468239,8468227,NA,9.134,3,8468216,8468237,21,321.3,388.9,1.66972,114.855,74.4929545454545,"NO",NA,8468238,8468422,184,"No",NA,NA,NA,NA,NA,NA
"210",98,55,"ben",210,"exp_3",8472448,8478850,6,"iri","ben",8472915,8478521,"509",8475718,8475726,8475715,"sacc",8.419,3,8475698,8475719,21,434.4,518.8,2.08468,179.075,93.6354545454545,"NO",NA,8475720,8476133,413,"No",NA,NA,NA,NA,"Yes",NA
"211",98,62,"identical",211,"exp_3",8485859,8491779,7,"not",NA,8486834,8491457,"617",8489515,8489520,8489512,NA,5.344,3,8489503,8489529,26,596.5,708.2,2.75899,206.244999999999,101.590185185185,"NO",NA,8489530,8489822,292,"No",NA,NA,NA,NA,NA,NA
"212",98,30,"identical",212,"exp_3",8493723,8499524,8,"ac?",NA,8494763,8499199,"665",8496945,8496953,8496942,NA,8.613,3,8496933,8496954,21,641.5,707.8,1.63761,139.554999999999,72.5281818181818,"NO",NA,8496955,8497190,235,"No",NA,NA,NA,NA,NA,NA
"213",98,59,"ben",213,"exp_3",8501509,8511889,6,"hi?","ben",8502718,8509093,"497",8505434,8505442,8505430,"fix",7.991,4,8505551,8505579,28,504.4,360.6,3.55186,244.53,122.094655172414,"NO",NA,8505428,8505550,122,"Yes","RIGHT","right",2459.024,1,"Yes",NA
"214",98,35,"ben",214,"exp_3",8516712,8522868,6,"has","bir",8517359,8522542,"424",8519540,8519549,8519537,"fix",9.165,3,8519615,8519807,192,439.9,388.9,1.2597,NA,NA,"YES",107,8519539,8519614,75,"No",NA,NA,NA,NA,"Yes",NA
"215",98,80,"identical",215,"exp_3",8537643,8546195,7,"yer",NA,8538511,8543508,"568",8540754,8540759,8540751,NA,5.293,3,8541041,8541064,23,577.2,668.8,2.26252,164.255000000001,92.7793749999999,"NO",NA,8540753,8541040,287,"Yes","LEFT","right",2352.001,0,NA,NA
"216",98,54,"identical",216,"exp_3",8549397,8556666,3,"iyi",NA,8550128,8554156,"268",8550795,8550804,8550792,NA,8.686,3,8551046,8551062,16,281.8,323.3,1.02505,87.6849999999996,58.6261764705882,"NO",NA,8550796,8551045,249,"Yes","RIGHT","right",2172.911,1,NA,NA
"217",98,26,"identical",217,"exp_3",8559157,8565370,8,"ke?",NA,8559934,8565043,"784",8561893,8561899,8561889,NA,6.007,4,8561874,8561901,27,721.9,840.4,2.92695,193.894999999999,103.651785714286,"NO",NA,8561902,8562252,350,"No",NA,NA,NA,NA,NA,NA
"218",98,6,"identical",218,"exp_3",8567183,8573923,6,"bal",NA,8567826,8571828,"605",8569862,8569870,8569859,NA,8.229,3,8569852,8569875,23,590.2,683.3,2.29957,163.020000000001,93.3454166666667,"NO",NA,8569876,8570174,298,"Yes","RIGHT","right",1766.532,1,NA,NA
"219",98,17,"ben",219,"exp_3",8577296,8585378,3,"iri","bir",8577979,8582941,"376",8578808,8578813,8578805,"fix",5.22,3,8579289,8579311,22,364.4,445.4,2.0007,127.205,85.0002173913044,"NO",NA,8579312,8579481,169,"Yes","RIGHT","right",2103.99,1,"Yes",NA
"220",98,18,"identical",220,"exp_3",8588043,8594282,4,"kan",NA,8588640,8593955,"473",8592237,8592244,8592233,NA,7.686,4,8592303,8592324,21,474.2,536.8,1.54622,118.56,68.9354545454545,"NO",NA,8592325,8592500,175,"No",NA,NA,NA,NA,NA,NA
"221",98,53,"ben",221,"exp_3",8596156,8601944,4,"kez","ben",8596662,8601616,"401",8598118,8598126,8598116,"fix",7.828,2,8598287,8598306,19,405.4,343.3,1.53387,119.795,75.335,"NO",NA,8598116,8598286,170,"No",NA,NA,NA,NA,"Yes",NA
"222",98,2,"identical",222,"exp_3",8603857,8608672,7,"?ok",NA,8604341,8608343,"532",8605975,8605984,8605973,NA,9.474,2,8605953,8605978,25,436,546.5,2.72935,193.895,104.12,"NO",NA,8605979,8606189,210,"No",NA,NA,NA,NA,NA,NA
"223",98,5,"ben",223,"exp_3",8610534,8615541,8,"?n?","bir",8611148,8615213,"521",8612715,8612721,8612712,"fix",6.114,3,8612871,8612890,19,532.1,594,1.52893,135.85,75.4585,"NO",NA,8612712,8612870,158,"No",NA,NA,NA,NA,"Yes",NA
"224",98,25,"ben",224,"exp_3",8618264,8621502,5,"d?n","bir",8618831,8621176,"412",8620168,8620174,8620165,"sacc",6.934,3,8620158,8620176,18,396.3,456.6,1.48941,117.325,76.635,"NO",NA,8620177,8620575,398,"No",NA,NA,NA,NA,"Yes",NA
"225",98,77,"ben",225,"exp_3",8623913,8627938,3,"tu?","ben",8624687,8627614,"352",8625783,8625789,8625781,"fix",6.364,2,8626073,8626209,136,354.7,388.1,0.824980000000001,NA,NA,"YES",61,8625746,8626072,326,"No",NA,NA,NA,NA,"Yes",NA
"226",98,69,"ben",226,"exp_3",8630457,8635033,5,"kez","ben",8631232,8634705,"509",8632991,8632997,8632988,"fix",6.137,3,8633251,8633273,22,509,600.9,2.26993,190.19,96.920652173913,"NO",NA,8633274,8633459,185,"No",NA,NA,NA,NA,"Yes",NA
"227",98,73,"ben",227,"exp_3",8637714,8644612,7,"zor","ben",8638632,8644284,"581",8641853,8641860,8641850,"fix",7.929,3,8642130,8642139,9,577.8,559.2,0.459419999999998,67.925,41.0019999999998,"NO",NA,8642485,8642680,195,"No",NA,NA,NA,NA,"Yes",NA
"228",98,66,"identical",228,"exp_3",8646802,8653040,6,"zor",NA,8647588,8651657,"616",8649844,8649853,8649841,NA,8.983,3,8649836,8649863,27,610.8,720.6,2.71206,185.25,97.0357142857143,"NO",NA,8649864,8650136,272,"Yes","LEFT","right",1042.473,0,NA,NA
"229",98,65,"ben",229,"exp_3",8654990,8666238,9,"s?t","ben",8656531,8665915,"762",8659485,8659492,8659483,"sacc",7.655,2,8659467,8659488,21,715.4,778.3,1.55363,116.09,68.5986363636363,"NO",NA,8659489,8659919,430,"No",NA,NA,NA,NA,"Yes",NA
"230",98,46,"identical",230,"exp_3",8667982,8672574,3,"kar",NA,8668435,8672246,"330",8669123,8669132,8669119,NA,9.234,4,8669304,8669324,20,338,403.6,1.62032,125.97,75.9230952380952,"NO",NA,8669117,8669303,186,"No",NA,NA,NA,NA,NA,NA
"231",98,14,"identical",231,"exp_3",8674361,8680360,4,"ipi",NA,8674792,8678790,"376",8676398,8676406,8676396,NA,8.753,2,8676572,8676593,21,388,460.5,1.79075,123.5,79.6013636363636,"NO",NA,8676395,8676571,176,"Yes","LEFT","right",1237.515,0,NA,NA
"232",98,61,"ben",232,"exp_3",8682330,8690548,7,"her","ben",8683810,8689225,"531",8685347,8685354,8685345,"fix",6.932,2,8685374,8685394,20,536.8,601.7,1.60303,119.794999999999,74.5116666666668,"NO",NA,8685395,8685760,365,"Yes","RIGHT","right",986.74,1,"Yes",NA
"233",98,11,"ben",233,"exp_3",8692478,8697584,6,"bo?","bir",8693220,8697258,"593",8695295,8695302,8695292,"fix",7.16,3,8695582,8695602,20,606.6,677.8,1.75864,144.495000000001,81.6864285714286,"NO",NA,8695296,8695581,285,"No",NA,NA,NA,NA,"Yes",NA
"234",98,32,"identical",234,"exp_3",8699380,8704279,7,"top",NA,8700024,8703951,"591",8702788,8702793,8702784,NA,5.707,4,8702766,8702789,23,518.4,604,2.11432,137.085,87.2733333333333,"NO",NA,8702790,8703004,214,"No",NA,NA,NA,NA,NA,NA
"235",98,45,"ben",235,"exp_3",8706158,8713024,5,"g?n","ben",8706635,8712700,"399",8709058,8709067,8709055,"sacc",9.102,3,8709052,8709069,17,395.8,450,1.33874,106.21,72.3161111111111,"NO",NA,8709070,8709389,319,"No",NA,NA,NA,NA,"Yes",NA
"236",98,19,"ben",236,"exp_3",8714848,8722054,6,"pil","bir",8715440,8719531,"497",8717516,8717522,8717513,"sacc",5.987,3,8717504,8717524,20,472.2,527,1.35356,116.09,62.985,"NO",NA,8717525,8717763,238,"Yes","RIGHT","right",2179.841,1,"Yes",NA
"237",98,71,"ben",237,"exp_3",8723837,8730074,8,"zor","ben",8724625,8727819,"725",8726632,8726640,8726629,"sacc",8.333,3,8726618,8726635,17,690.7,739.9,1.21524,124.735,66.1411111111111,"NO",NA,8726636,8726903,267,"Yes","RIGHT","right",1916.995,1,"Yes",NA
"238",98,1,"ben",238,"exp_3",8737362,8756835,7,"?al","bir",8744313,8756503,"663",8747047,8747054,8747043,"sacc",7.059,4,8747025,8747051,26,588.7,692.6,2.56633,161.784999999999,93.9057407407407,"NO",NA,8747052,8747444,392,"No",NA,NA,NA,NA,"Yes",NA
"239",98,38,"identical",239,"exp_3",8758486,8763638,7,"t?y",NA,8759200,8762298,"594",8761288,8761294,8761285,NA,6.592,3,8761280,8761303,23,591,672.5,2.01305,143.26,82.9508333333333,"NO",NA,8761304,8761671,367,"Yes","RIGHT","right",1007.424,1,NA,NA
"240",98,4,"identical",240,"exp_3",8765735,8770090,8,"g?k",NA,8766416,8769766,"532",8767951,8767960,8767948,NA,9.179,3,8767936,8767952,16,500.8,543.3,1.04975,81.5100000000003,59.7885294117647,"NO",NA,8767953,8768155,202,"No",NA,NA,NA,NA,NA,NA
"241",98,22,"identical",241,"exp_3",8772873,8778635,4,"g?k",NA,8773470,8778313,"364",8775295,8775301,8775292,NA,6.548,3,8775284,8775302,18,343.8,397.9,1.33627,95.0949999999999,67.795,"NO",NA,8775303,8775487,184,"No",NA,NA,NA,NA,NA,NA
"242",98,36,"identical",242,"exp_3",8780471,8784105,4,"hep",NA,8781178,8783777,"424",8782121,8782129,8782117,NA,8.678,4,8782104,8782123,19,383.4,443.7,1.48941,117.325,72.0005,"NO",NA,8782124,8782406,282,"No",NA,NA,NA,NA,NA,NA
"243",98,72,"identical",243,"exp_3",8785931,8790082,4,"gri",NA,8786401,8789750,"414",8787631,8787640,8787627,NA,8.791,4,8787625,8787645,20,411.7,481.3,1.71912,137.085,80.3926190476191,"NO",NA,8787646,8787833,187,"No",NA,NA,NA,NA,NA,NA
"244",98,75,"ben",244,"exp_3",8791970,8796015,4,"iyi","ben",8792537,8795695,"341",8793355,8793362,8793351,"sacc",7.738,4,8793338,8793356,18,293,356.7,1.57339,132.145000000001,80.405,"NO",NA,8793357,8793574,217,"No",NA,NA,NA,NA,"Yes",NA
"245",98,68,"identical",245,"exp_3",8798412,8805611,7,"ile",NA,8799185,8805289,"522",8801357,8801363,8801354,NA,6.014,3,8801351,8801373,22,516.8,602.5,2.11679,132.144999999999,89.4569565217391,"NO",NA,8801374,8801615,241,"No",NA,NA,NA,NA,NA,NA
"246",98,79,"ben",246,"exp_3",8807549,8814860,7,"yem","ben",8808153,8812590,"569",8809754,8809759,8809750,"sacc",5.869,4,8809735,8809758,23,508.6,598.3,2.21559,164.254999999999,90.5666666666666,"NO",NA,8809759,8810193,434,"Yes","LEFT","right",1939.704,0,"Yes",NA
"247",98,57,"ben",247,"exp_3",8816940,8828274,6,"kez","ben",8820876,8827949,"520",8824395,8824400,8824392,"fix",5.409,3,8824657,8824673,16,504.5,456.4,1.18807,112.385,68.4335294117647,"NO",NA,8825070,8825297,227,"No",NA,NA,NA,NA,"Yes",NA
"248",98,83,"ben",248,"exp_3",8830353,8837561,6,"zor","ben",8830924,8837242,"555",8833371,8833377,8833368,"sacc",6.035,3,8833361,8833381,20,542.9,611.7,1.69936,148.2,79.6280952380953,"NO",NA,8833382,8833641,259,"No",NA,NA,NA,NA,"Yes",NA
"249",98,31,"ben",249,"exp_3",8839587,8844964,6,"kel","bir",8841135,8844645,"567",8842812,8842820,8842809,"fix",8.563,3,8843193,8843211,18,572.7,621,1.19301,93.8600000000003,61.3599999999999,"NO",NA,8842805,8843192,387,"No",NA,NA,NA,NA,"Yes",NA
"250",98,40,"identical",250,"exp_3",8846884,8852055,7,"cam",NA,8847475,8851735,"569",8849129,8849135,8849126,NA,6.757,3,8849433,8849454,21,570.9,634.2,1.56351,133.379999999999,70.1143181818182,"NO",NA,8849126,8849432,306,"No",NA,NA,NA,NA,NA,NA
"251",98,27,"ben",251,"exp_3",8853885,8858500,4,"?ok","bir",8854274,8858181,"423",8855699,8855705,8855696,"sacc",6.423,3,8855694,8855710,16,420.4,469,1.20042,108.68,68.5061764705883,"NO",NA,8855711,8855935,224,"No",NA,NA,NA,NA,"Yes",NA
"252",98,44,"identical",252,"exp_3",8861090,8869275,5,"muz",NA,8861795,8866737,"437",8863701,8863710,8863698,NA,8.983,3,8864005,8864023,18,445.5,510.2,1.59809,132.145,81.51,"NO",NA,8863695,8864004,309,"Yes","RIGHT","right",2189.814,1,NA,NA
"253",98,70,"identical",253,"exp_3",8871543,8877879,8,"g?n",NA,8872019,8877560,"617",8874649,8874655,8874646,NA,5.784,3,8874634,8874659,25,576.6,671.7,2.34897,159.315000000001,89.2525,"NO",NA,8874660,8874924,264,"No",NA,NA,NA,NA,NA,NA
"254",98,85,"ben",254,"exp_3",8879913,8887321,6,"ipi","ben",8880390,8886999,"676",8882878,8882884,8882875,"sacc",6.78,3,8882869,8882880,11,667.9,691,0.570570000000001,74.1,44.2541666666668,"NO",NA,8882881,8883183,302,"No",NA,NA,NA,NA,"Yes",NA
"255",98,51,"ben",255,"exp_3",8889826,8902828,6,"eve","ben",8890547,8902506,"509",8893177,8893183,8893173,"fix",6.299,4,8893372,8893387,15,513.5,466.7,1.15596,101.27,69.7003125,"NO",NA,8893174,8893371,197,"No",NA,NA,NA,NA,"Yes",NA
"256",98,39,"ben",256,"exp_3",8918255,8924882,5,"ma?","bir",8918811,8924560,"448",8921429,8921434,8921426,"fix",5.702,3,8921621,8921641,20,466.2,535.8,1.71912,143.26,79.8045238095238,"NO",NA,8921430,8921620,190,"No",NA,NA,NA,NA,"Yes",NA
"257",98,63,"ben",257,"exp_3",8926797,8933427,6,"d??","ben",8927500,8931727,"388",8929190,8929197,8929186,"sacc",7.648,4,8929177,8929197,20,362.1,431.9,1.72406,133.38,82.004,"NO",NA,8929198,8929389,191,"Yes","RIGHT","right",1373.062,1,"Yes",NA
"258",98,82,"identical",258,"exp_3",8935361,8940172,6,"?ok",NA,8936380,8939850,"665",8937884,8937890,8937880,NA,6.154,4,8937876,8937900,24,659.7,741.4,2.01799,151.904999999999,79.1388,"NO",NA,8937901,8938196,295,"No",NA,NA,NA,NA,NA,NA
"259",98,78,"identical",259,"exp_3",8942211,8947392,7,"kez",NA,8942841,8947069,"569",8945213,8945219,8945210,NA,6.151,3,8945198,8945217,19,534.3,596.4,1.53387,121.029999999999,74.841,"NO",NA,8945218,8945368,150,"No",NA,NA,NA,NA,NA,NA
"260",98,76,"identical",260,"exp_3",8949372,8957201,7,"top",NA,8950228,8955440,"605",8952856,8952865,8952853,NA,9.058,3,8952841,8952865,24,565.8,662.2,2.38108,151.904999999999,93.55125,"NO",NA,8952866,8953186,320,"Yes","LEFT","right",1431.482,0,NA,NA
"261",98,48,"identical",261,"exp_3",8959182,8966655,5,"iyi",NA,8959789,8965137,"555",8961525,8961532,8961522,NA,7.583,3,8961512,8961533,21,529.9,593,1.55857,107.445000000001,68.5425,"NO",NA,8961534,8961774,240,"Yes","RIGHT","right",1190.978,1,NA,NA
"262",98,23,"ben",262,"exp_3",8968480,8973053,7,"fay","bir",8969333,8972735,"593",8971736,8971743,8971732,"fix",7.851,4,8972063,8972076,13,599.2,576,0.573040000000001,76.5700000000006,39.0789285714285,"NO",NA,8971731,8972062,331,"No",NA,NA,NA,NA,"Yes",NA
"263",98,16,"identical",263,"exp_3",8974827,8978822,3,"sis",NA,8975660,8978496,"245",8976265,8976273,8976262,NA,8.715,3,8976246,8976267,21,187.3,262.4,1.85497,148.2,83.2502272727273,"NO",NA,8976268,8976389,121,"No",NA,NA,NA,NA,NA,NA
"264",98,13,"ben",264,"exp_3",8993273,9012978,4,"eti","bir",9006326,9011374,"400",9006884,9006890,9006882,"sacc",6.219,2,9006829,9007862,1033,247.6,237.1,0.25935,NA,NA,"YES",821,9008970,9009172,202,"Yes","RIGHT","right",1272.727,1,"Yes","yes"
"265",99,15,"identical",1,"practice",17005409,17010212,4,"kez",NA,17006702,17009906,"424",17007901,17007908,17007899,NA,6.64,2,17008128,17008147,19,437.3,504.8,1.66725,153.14,82.43625,"NO",NA,17007902,17008127,225,"No",NA,NA,NA,NA,NA,NA
"266",99,17,"identical",2,"practice",17015957,17025423,7,"?ok",NA,17017318,17022735,"605",17020630,17020638,17020628,NA,8.1,2,17020624,17020641,17,600.5,654.7,1.33874,107.444999999999,71.5613888888889,"NO",NA,17020642,17020813,171,"Yes","RIGHT","right",2400.617,1,NA,NA
"267",99,3,"identical",3,"practice",17027357,17030726,3,"hi?",NA,17028501,17030448,"341",17029091,17029097,17029089,NA,6.332,2,17029077,17029096,19,302,368.9,1.65243,134.615,81.016,"NO",NA,17029097,17029265,168,"No",NA,NA,NA,NA,NA,NA
"268",99,5,"identical",4,"practice",17032756,17036820,5,"i?e",NA,17033264,17036542,"460",17034453,17034461,17034451,NA,8.352,2,17034437,17034454,17,408.8,466.9,1.43507,140.79,78.3538888888889,"NO",NA,17034455,17034696,241,"No",NA,NA,NA,NA,NA,NA
"269",99,4,"ben",5,"practice",17038814,17042714,5,"eve","bir",17039463,17042430,"472",17040494,17040501,17040492,"sacc",7.329,2,17040475,17040497,22,410.9,490,1.95377,149.435,82.3691304347826,"NO",NA,17040498,17040792,294,"No",NA,NA,NA,NA,"Yes",NA
"270",99,2,"ben",6,"practice",17046033,17052960,6,"aya","bir",17046741,17050627,"759",17048487,17048493,17048485,"sacc",5.861,2,17048473,17048496,23,718.8,805.2,2.13408,149.435,87.8393750000001,"NO",NA,17048497,17048847,350,"Yes","LEFT","left",2044.688,1,"Yes",NA
"271",99,1,"identical",7,"practice",17055941,17060388,6,"ak?",NA,17056656,17060106,"582",17057692,17057699,17058416,NA,7.128,-724,17057616,17057750,134,395.1,438.9,1.08186,NA,NA,"YES",53,17058640,17058774,134,"No",NA,NA,NA,NA,NA,NA
"272",99,18,"ben",8,"practice",17063092,17067824,5,"ta?","ben",17063756,17067548,"472",17064943,17064948,17064942,"fix",5.253,1,17065278,17065301,23,476.2,553.4,1.90684,160.55,78.9885416666667,"NO",NA,17064936,17065277,341,"No",NA,NA,NA,NA,"Yes",NA
"273",99,14,"ben",9,"practice",17070537,17076928,8,"g?l","ben",17071326,17074924,"546",17073601,17073608,17073600,"fix",6.936,1,17073855,17073875,20,563.4,631.4,1.6796,151.905000000001,77.9226190476191,"NO",NA,17073602,17073854,252,"Yes","RIGHT","right",1719.103,1,"Yes",NA
"274",99,16,"ben",10,"practice",17079720,17084982,9,"ara","ben",17080165,17084699,"820",17083166,17083173,17083164,"sacc",6.552,2,17083152,17083172,20,779.6,854.8,1.85744,138.320000000001,85.8619047619047,"NO",NA,17083173,17083568,395,"No",NA,NA,NA,NA,"Yes",NA
"275",99,81,"identical",11,"experiment",17089902,17095707,7,"?ok",NA,17090426,17093100,"571",17091777,17091786,17091775,NA,9.121,2,17091766,17091789,23,548.1,639,2.24523,175.369999999999,92.161875,"NO",NA,17091790,17092018,228,"Yes","LEFT","left",2303.996,1,NA,NA
"276",99,121,"identical",12,"experiment",17099058,17106754,5,"?t?",NA,17100412,17103978,"533",17102067,17102076,17102064,NA,9.255,3,17102338,17102360,22,541.1,621,1.97353,156.844999999999,84.1947826086956,"NO",NA,17102062,17102337,275,"Yes","RIGHT","right",2475.289,1,NA,NA
"277",99,7,"identical",13,"experiment",17109335,17113899,6,"bol",NA,17109889,17113602,"567",17112287,17112296,17112284,NA,8.927,3,17112574,17112596,22,575.6,656.1,1.98835,129.675,83.8189130434783,"NO",NA,17112283,17112573,290,"No",NA,NA,NA,NA,NA,NA
"278",99,126,"ben",14,"experiment",17116262,17122027,7,"kez","ben",17116751,17121732,"569",17120296,17120305,17120295,"sacc",8.537,1,17120284,17120304,20,533.1,598,1.60303,134.615,75.7466666666667,"NO",NA,17120305,17120515,210,"No",NA,NA,NA,NA,"Yes",NA
"279",99,57,"identical",15,"experiment",17124516,17131014,6,"f?n",NA,17125193,17128614,"568",17127135,17127141,17127133,NA,6.027,2,17127123,17127143,20,533.5,600.2,1.64749,137.085,76.8052380952381,"NO",NA,17127144,17127274,130,"Yes","RIGHT","right",2100.148,1,NA,NA
"280",99,64,"ben",16,"experiment",17133323,17154892,5,"jet","bir",17133744,17136884,"497",17134864,17134870,17134862,"sacc",6.27,2,17134853,17134878,25,473.1,602.7,3.20112,227.240000000001,121.8375,"NO",NA,17134879,17135298,419,"Yes","LEFT","left",17704.078,1,"Yes",NA
"281",99,118,"ben",17,"experiment",17157018,17171632,5,"d?n","bir",17166133,17171341,"412",17168306,17168315,17168304,"sacc",8.889,2,17168290,17168308,18,378.6,421.4,1.05716,83.9800000000001,52.715,"NO",NA,17168309,17168500,191,"No",NA,NA,NA,NA,"Yes",NA
"282",99,93,"identical",18,"experiment",17174586,17178776,7,"?al",NA,17175093,17178480,"663",17176896,17176903,17176894,NA,7.118,2,17176880,17176900,20,617.7,681.5,1.57586,132.144999999999,72.3945238095238,"NO",NA,17176901,17177141,240,"No",NA,NA,NA,NA,NA,NA
"283",99,32,"ben",19,"experiment",17184249,17191699,4,"iyi","bir",17188975,17191407,"352",17189895,17189901,17189893,"sacc",5.843,2,17189885,17189901,16,330,380.2,1.23994,104.975,71.2440625,"NO",NA,17189902,17190068,166,"No",NA,NA,NA,NA,"Yes",NA
"284",99,77,"identical",20,"experiment",17193750,17199552,3,"tok",NA,17194468,17197026,"316",17195359,17195365,17195357,NA,5.941,2,17195515,17195535,20,327,387.9,1.50423,140.79,70.3361904761905,"NO",NA,17195359,17195514,155,"Yes","RIGHT","left",2227.365,0,NA,NA
"285",99,2,"ben",21,"experiment",17201792,17209908,7,"g?n","ben",17202585,17209607,"508",17206224,17206231,17206223,"sacc",7.047,1,17206207,17206228,21,457.7,526.3,1.69442,122.265,74.9420454545454,"NO",NA,17206229,17206746,517,"No",NA,NA,NA,NA,"Yes",NA
"286",99,85,"identical",22,"experiment",17211987,17215628,7,"mum",NA,17212463,17215335,"593",17213832,17213839,17213830,NA,7.191,2,17213821,17213841,20,570.8,639,1.68454,161.785,78.922380952381,"NO",NA,17213842,17214082,240,"No",NA,NA,NA,NA,NA,NA
"287",99,117,"identical",23,"experiment",17218074,17226315,6,"tuz",NA,17218565,17226005,"592",17220215,17220221,17220213,NA,6.001,2,17220198,17220221,23,536.4,622.7,2.13161,172.9,89.1347826086956,"NO",NA,17220222,17220438,216,"No",NA,NA,NA,NA,NA,NA
"288",99,131,"identical",24,"experiment",17232763,17240855,7,"zor",NA,17233486,17240556,"592",17235841,17235851,17235839,NA,9.63,2,17236109,17236126,17,619.2,674.3,1.36097,130.91,72.865,"NO",NA,17235842,17236108,266,"No",NA,NA,NA,NA,NA,NA
"289",99,38,"ben",25,"experiment",17244201,17249984,4,"s?t","bir",17246445,17249686,"377",17247094,17247100,17247092,"sacc",6.19,2,17247073,17247098,25,281.8,394.3,2.77875,216.125,105.83,"NO",NA,17247099,17247432,333,"No",NA,NA,NA,NA,"Yes",NA
"290",99,30,"ben",26,"experiment",17252077,17256145,7,"eko","bir",17252757,17255845,"653",17255058,17255089,17255056,"sacc",31.11,2,17255042,17255064,22,607.4,684.5,1.90437,149.435,81.4026086956522,"NO",NA,17255065,17255288,223,"No",NA,NA,NA,NA,"Yes",NA
"291",99,40,"ben",27,"experiment",17257936,17261931,9,"onu","ben",17258480,17261639,"736",17260755,17260761,17260754,"sacc",5.919,1,17260735,17260760,25,667.5,752.7,2.10444,153.14,79.4675,"NO",NA,17260761,17261082,321,"No",NA,NA,NA,NA,"Yes",NA
"292",99,64,"ben",28,"experiment",17263736,17267609,6,"tuz","ben",17264244,17267316,"508",17265932,17265937,17265931,"sacc",5.086,1,17265915,17265938,23,444.9,532.6,2.16619,164.255,89.84625,"NO",NA,17265939,17266268,329,"No",NA,NA,NA,NA,"Yes",NA
"293",99,13,"identical",29,"experiment",17269486,17272393,4,"ney",NA,17270121,17272094,"316",17270542,17270551,17270539,NA,8.83,3,17270680,17270707,27,314.5,444.8,3.21841,272.935,114.458035714286,"NO",NA,17270533,17270679,146,"No",NA,NA,NA,NA,NA,NA
"294",99,8,"ben",30,"experiment",17275195,17284074,5,"eve","ben",17277171,17280086,"508",17278259,17278268,17278257,"sacc",8.514,2,17278244,17278266,22,472,544.3,1.78581,142.025000000001,79.8991304347826,"NO",NA,17278267,17278768,501,"Yes","LEFT","left",3683.897,1,"Yes",NA
"295",99,17,"identical",31,"experiment",17286133,17294044,7,"?ok",NA,17286643,17290626,"605",17288471,17288479,17288468,NA,7.532,3,17288453,17288475,22,557.1,629.8,1.79569,132.145000000001,76.6236956521739,"NO",NA,17288476,17288632,156,"Yes","RIGHT","right",3112.886,1,NA,NA
"296",99,125,"identical",32,"experiment",17295883,17301548,5,"top",NA,17297063,17301251,"412",17300297,17300304,17300295,NA,6.816,2,17300485,17300506,21,416.7,489.6,1.80063,140.79,81.4538636363636,"NO",NA,17300295,17300484,189,"No",NA,NA,NA,NA,NA,NA
"297",99,67,"identical",33,"experiment",17303711,17307665,6,"zor",NA,17304350,17307376,"472",17305708,17305714,17305706,NA,5.793,2,17305915,17305939,24,468.3,559.9,2.26252,166.724999999999,89.4634,"NO",NA,17305707,17305914,207,"No",NA,NA,NA,NA,NA,NA
"298",99,83,"identical",34,"experiment",17311302,17316704,3,"a??",NA,17311991,17314834,"294",17312806,17312813,17312805,NA,7.199,1,17312988,17313005,17,294.2,342.9,1.20289,96.3300000000001,63.7397222222222,"NO",NA,17313006,17313317,311,"Yes","LEFT","left",1567.151,1,NA,NA
"299",99,55,"identical",35,"experiment",17319300,17323524,5,"ada",NA,17319817,17323229,"509",17321548,17321556,17321546,NA,8.041,2,17321926,17321946,20,508.6,585.1,1.88955,151.904999999999,87.8026190476191,"NO",NA,17321546,17321925,379,"No",NA,NA,NA,NA,NA,NA
"300",99,125,"identical",36,"experiment",17326034,17329952,3,"tu?",NA,17326754,17329654,"352",17327594,17327600,17327592,NA,6.067,2,17327583,17327604,21,331.4,414,2.04022,160.55,92.1197727272727,"NO",NA,17327605,17328363,758,"No",NA,NA,NA,NA,NA,NA
"301",99,95,"identical",37,"experiment",17333054,17337305,4,"?ay",NA,17333703,17337004,"413",17335506,17335513,17335504,NA,6.894,2,17335490,17335515,25,359.2,455.5,2.37861,167.96,90.5825,"NO",NA,17335516,17335755,239,"No",NA,NA,NA,NA,NA,NA
"302",99,132,"ben",38,"experiment",17340182,17346423,5,"ma?","bir",17340702,17346135,"448",17343241,17343251,17343238,"sacc",9.433,3,17343227,17343244,17,412.3,461.9,1.22512,109.915,66.3469444444444,"NO",NA,17343245,17343405,160,"No",NA,NA,NA,NA,"Yes",NA
"303",99,59,"identical",39,"experiment",17349968,17352936,4,"k??",NA,17350441,17352630,"496",17351919,17351927,17351918,NA,7.588,1,17351910,17351933,23,485,589.6,2.58362,213.654999999999,106.004166666667,"NO",NA,17351934,17352227,293,"No",NA,NA,NA,NA,NA,NA
"304",99,75,"identical",40,"experiment",17355488,17373462,5,"iyi",NA,17356156,17368929,"496",17357226,17357232,17357224,NA,6.227,2,17357202,17357228,26,384.3,505.3,2.9887,247,110.372407407407,"NO",NA,17357229,17357463,234,"Yes","LEFT","left",4231.93,1,NA,NA
"305",99,136,"ben",41,"experiment",17376240,17386167,6,"nem","bir",17376958,17385875,"521",17379464,17379473,17379461,"sacc",9.036,3,17379449,17379473,24,488.4,579.8,2.25758,207.479999999999,90.3608333333333,"NO",NA,17379474,17379744,270,"No",NA,NA,NA,NA,"Yes",NA
"306",99,27,"identical",42,"experiment",17425161,17429928,7,"sos",NA,17425757,17429632,"519",17427578,17427584,17427577,NA,5.724,1,17427558,17427579,21,464.7,527.6,1.55363,107.445000000001,67.7004545454545,"NO",NA,17427580,17427716,136,"No",NA,NA,NA,NA,NA,NA
"307",99,9,"identical",43,"experiment",17434513,17439607,6,"???",NA,17435134,17439315,"461",17437166,17437173,17437164,NA,7.011,2,17437156,17437177,21,440.8,522.2,2.01058,153.14,90.0427272727273,"NO",NA,17437178,17437412,234,"No",NA,NA,NA,NA,NA,NA
"308",99,124,"ben",44,"experiment",17447668,17459007,7,"top","ben",17448285,17456617,"605",17451164,17451172,17451162,"sacc",7.645,2,17451152,17451172,20,578.8,641.9,1.55857,133.379999999999,73.42075,"NO",NA,17451173,17451293,120,"Yes","LEFT","left",2086.995,1,"Yes",NA
"309",99,110,"ben",45,"experiment",17462313,17470562,3,"iri","bir",17463569,17467061,"376",17464547,17464553,17464545,"fix",5.581,2,17464772,17464782,10,387.3,366.2,0.521170000000001,69.1599999999996,43.5618181818182,"NO",NA,17464547,17464771,224,"Yes","RIGHT","right",3196.009,1,"Yes",NA
"310",99,112,"ben",46,"experiment",17473470,17480297,6,"pil","bir",17474126,17477300,"497",17475439,17475448,17475436,"fix",8.885,3,17475856,17475872,16,492.5,542.6,1.23747,139.554999999999,72.1385294117648,"NO",NA,17475873,17476032,159,"Yes","RIGHT","right",2701.332,1,"Yes",NA
"311",99,10,"ben",47,"experiment",17483083,17487719,6,"bo?","bir",17483590,17487419,"604",17485446,17485455,17485444,"sacc",8.64,2,17485426,17485448,22,527.1,611.4,2.08221,184.015000000001,89.9402173913043,"NO",NA,17485449,17485953,504,"No",NA,NA,NA,NA,"Yes",NA
"312",99,11,"identical",48,"experiment",17490315,17501492,4,"ile",NA,17490952,17495441,"413",17494069,17494077,17494067,NA,7.407,2,17494060,17494079,19,396.7,463.1,1.64008,124.735,80.46025,"NO",NA,17494080,17494330,250,"Yes","RIGHT","right",5748.102,1,NA,NA
"313",99,20,"ben",49,"experiment",17505403,17510145,8,"hep","ben",17506156,17509851,"761",17507795,17507804,17507794,"sacc",8.884,1,17507779,17507808,29,704.6,835.5,3.23323,202.54,106.21,"NO",NA,17507809,17508165,356,"No",NA,NA,NA,NA,"Yes",NA
"314",99,126,"ben",50,"experiment",17512702,17519033,6,"ta?","bir",17513210,17516517,"604",17515319,17515329,17515318,"sacc",9.543,1,17515299,17515329,30,498.3,659.6,3.98411,256.880000000001,130.580666666667,"NO",NA,17515330,17515675,345,"Yes","RIGHT","right",2209.971,1,"Yes",NA
"315",99,39,"identical",51,"experiment",17521330,17525069,6,"ama",NA,17521832,17524769,"522",17523782,17523788,17523780,NA,5.95,2,17523763,17523786,23,457.9,541.6,2.06739,185.25,84.5460416666667,"NO",NA,17523787,17523962,175,"No",NA,NA,NA,NA,NA,NA
"316",99,52,"ben",52,"experiment",17528447,17531829,3,"hep","ben",17529123,17531533,"340",17529696,17529703,17529694,"fix",6.756,2,17529902,17529921,19,343.6,407.7,1.58327,148.2,77.6815,"NO",NA,17529692,17529901,209,"No",NA,NA,NA,NA,"Yes",NA
"317",99,129,"identical",53,"experiment",17533513,17538891,3,"ucu",NA,17534449,17538584,"329",17535590,17535597,17535588,NA,6.522,2,17535844,17535861,17,336,398.1,1.53387,138.32,81.8530555555556,"NO",NA,17535590,17535843,253,"No",NA,NA,NA,NA,NA,NA
"318",99,110,"ben",54,"experiment",17541498,17546184,7,"not","ben",17542012,17545892,"617",17543882,17543889,17543880,"fix",6.814,2,17544183,17544202,19,620,565.2,1.35356,108.680000000001,66.3812499999999,"NO",NA,17544511,17544797,286,"No",NA,NA,NA,NA,"Yes",NA
"319",99,35,"identical",55,"experiment",17548036,17552829,6,"kez",NA,17548548,17552531,"568",17550708,17550717,17550707,NA,8.954,1,17550696,17550717,21,532.9,605.4,1.79075,150.669999999999,80.039761904762,"NO",NA,17550718,17550914,196,"No",NA,NA,NA,NA,NA,NA
"320",99,60,"ben",56,"experiment",17554549,17560423,4,"hep","bir",17555185,17560132,"435",17556656,17556665,17556654,"fix",9.232,2,17556864,17556885,21,441.8,511.7,1.72653,143.26,77.9172727272727,"NO",NA,17556655,17556863,208,"No",NA,NA,NA,NA,"Yes",NA
"321",99,94,"ben",57,"experiment",17562110,17565536,3,"kar","ben",17562609,17565234,"330",17563465,17563473,17563463,"sacc",7.638,2,17563455,17563473,18,309.2,364.8,1.37332,122.265,72.4533333333333,"NO",NA,17563474,17564071,597,"No",NA,NA,NA,NA,"Yes",NA
"322",99,23,"identical",58,"experiment",17567814,17572879,5,"fal",NA,17568478,17572585,"472",17570329,17570339,17570328,NA,9.259,1,17570322,17570342,20,460.1,531.5,1.76358,145.73,82.2745238095238,"NO",NA,17570343,17570692,349,"No",NA,NA,NA,NA,NA,NA
"323",99,17,"identical",59,"experiment",17575272,17581924,3,"caz",NA,17576091,17578388,"245",17576721,17576729,17576719,NA,7.643,2,17576709,17576727,18,213.8,277.3,1.56845,171.665,80.86,"NO",NA,17576728,17576945,217,"Yes","LEFT","left",3236.697,1,NA,NA
"324",99,21,"identical",60,"experiment",17587339,17592296,7,"hi?",NA,17587916,17592001,"688",17589921,17589931,17589919,NA,9.339,2,17589902,17589923,21,626.1,698.7,1.79322,154.375,80.6679545454546,"NO",NA,17589924,17590138,214,"No",NA,NA,NA,NA,NA,NA
"325",99,51,"identical",61,"experiment",17595172,17602258,6,"sis",NA,17595733,17599413,"520",17597468,17597476,17597467,NA,8.256,1,17597457,17597487,30,491.8,626.2,3.31968,193.895000000001,106.927096774194,"NO",NA,17597488,17597712,224,"Yes","RIGHT","right",2545.159,1,NA,NA
"326",99,100,"ben",62,"experiment",17604284,17612921,8,"s?r","bir",17604776,17612622,"628",17607593,17607600,17607591,"sacc",6.673,2,17607562,17607626,64,292.2,1003,17.55676,497.705,270.085,"NO",NA,17607627,17607830,203,"No",NA,NA,NA,NA,"Yes",NA
"327",99,54,"ben",63,"experiment",17616719,17628778,3,"sis","bir",17617448,17623699,"257",17618296,17618303,17618294,"sacc",6.869,2,17618281,17618298,17,218.6,268.3,1.22759,101.27,66.4841666666667,"NO",NA,17618299,17618873,574,"Yes","LEFT","left",4776.587,1,"Yes",NA
"328",99,104,"ben",64,"experiment",17632857,17637040,5,"ile","ben",17633570,17636747,"438",17634597,17634604,17634595,"sacc",6.858,2,17634581,17634607,26,386.9,476.5,2.21312,155.61,81.0068518518519,"NO",NA,17634608,17634856,248,"No",NA,NA,NA,NA,"Yes",NA
"329",99,59,"identical",65,"experiment",17640419,17644943,6,"hap",NA,17641074,17644649,"483",17642637,17642646,17642635,NA,8.911,2,17642879,17642896,17,494.2,547.2,1.3091,133.379999999999,70.8752777777778,"NO",NA,17642637,17642878,241,"No",NA,NA,NA,NA,NA,NA
"330",99,5,"identical",66,"experiment",17647284,17652313,5,"i?e",NA,17648148,17652020,"460",17650106,17650112,17650103,NA,6.487,3,17650383,17650406,23,451.1,546.5,2.35638,181.544999999999,97.2047916666667,"NO",NA,17650407,17650716,309,"No",NA,NA,NA,NA,NA,NA
"331",99,71,"identical",67,"experiment",17654572,17666644,9,"f?n",NA,17655397,17660508,"904",17658745,17658755,17658742,NA,10.184,3,17658728,17658747,19,858,916.4,1.44248,117.325,69.71575,"NO",NA,17658748,17658938,190,"Yes","RIGHT","right",5835.868,1,NA,NA
"332",99,78,"ben",68,"experiment",17681561,17687995,8,"du?","ben",17682106,17687705,"616",17684683,17684692,17684681,"sacc",8.579,2,17684670,17684687,17,585.6,632.2,1.15102,98.8,61.2697222222222,"NO",NA,17684688,17684890,202,"No",NA,NA,NA,NA,"Yes",NA
"333",99,62,"ben",69,"experiment",17690490,17696715,7,"g?n","ben",17691144,17696427,"533",17694222,17694231,17694220,"sacc",9.001,2,17694123,17694283,160,500.5,570.6,1.73147,NA,NA,"YES",58,17694284,17694713,429,"No",NA,NA,NA,NA,"Yes",NA
"334",99,123,"identical",70,"experiment",17699876,17703443,4,"iyi",NA,17700534,17703146,"341",17701339,17701347,17701336,NA,8.207,3,17701326,17701345,19,311.3,376.9,1.62032,124.735,79.84275,"NO",NA,17701346,17701545,199,"No",NA,NA,NA,NA,NA,NA
"335",99,58,"ben",71,"experiment",17705358,17717774,5,"k?f","bir",17706223,17717480,"485",17713045,17713052,17713042,"sacc",6.573,3,17713025,17713068,43,355.9,735,9.36377,393.965,213.96375,"NO",NA,17713069,17713316,247,"No",NA,NA,NA,NA,"Yes",NA
"336",99,23,"identical",72,"experiment",17720279,17726286,6,"ile",NA,17721369,17725992,"520",17724557,17724564,17724554,NA,6.745,3,17724539,17724558,19,463,533.2,1.73394,135.85,83.98,"NO",NA,17724559,17724722,163,"No",NA,NA,NA,NA,NA,NA
"337",99,99,"identical",73,"experiment",17728416,17732889,6,"eve",NA,17729173,17732594,"509",17730615,17730625,17730613,NA,9.647,2,17730602,17730627,25,471.4,578.4,2.6429,195.129999999999,100.9375,"NO",NA,17730628,17730919,291,"No",NA,NA,NA,NA,NA,NA
"338",99,73,"identical",74,"experiment",17734833,17742593,8,"s?t",NA,17735522,17740152,"676",17738262,17738271,17738260,NA,8.527,2,17738250,17738269,19,652.7,707.2,1.34615,112.384999999999,65.3315,"NO",NA,17738270,17738458,188,"Yes","RIGHT","right",2139.384,1,NA,NA
"339",99,46,"ben",75,"experiment",17745429,17750180,6,"ile","ben",17745912,17749885,"642",17748167,17748173,17748165,"sacc",5.505,2,17748151,17748173,22,592.7,669.5,1.89696,134.615,82.5765909090909,"NO",NA,17748174,17748547,373,"No",NA,NA,NA,NA,"Yes",NA
"340",99,88,"ben",76,"experiment",17752142,17761234,8,"ge?","ben",17752821,17757625,"832",17755414,17755447,17755412,"fix",32.88,2,17755616,17755633,17,831.9,875.7,1.08186,90.1549999999994,58.9369444444444,"NO",NA,17755634,17756036,402,"Yes","RIGHT","right",3309.21,1,"Yes",NA
"341",99,65,"identical",77,"experiment",17763526,17768871,7,"?t?",NA,17764145,17768577,"748",17766203,17766209,17766202,NA,6.014,1,17766112,17766209,97,676.5,751.6,1.85497,658.254999999999,78.1232989690722,"NO",NA,17766210,17766375,165,"No",NA,NA,NA,NA,NA,NA
"342",99,65,"identical",78,"experiment",17770712,17776982,7,"pis",NA,17771402,17776687,"604",17773946,17773955,17773944,NA,9.034,2,17773929,17773948,19,553.7,614.4,1.49929,148.2,73.7912499999999,"NO",NA,17773949,17774156,207,"No",NA,NA,NA,NA,NA,NA
"343",99,84,"ben",79,"experiment",17778922,17782451,4,"hi?","bir",17779386,17782159,"399",17780403,17780412,17780400,"fix",8.98,3,17780669,17780687,18,405.3,465.4,1.48447,127.205,76.245,"NO",NA,17780398,17780668,270,"No",NA,NA,NA,NA,"Yes",NA
"344",99,2,"ben",80,"experiment",17784354,17791414,6,"aya","bir",17785101,17789116,"759",17787175,17787182,17787173,"sacc",6.994,2,17787161,17787178,17,724,769.9,1.13373,109.915,60.9952777777778,"NO",NA,17787179,17787595,416,"Yes","LEFT","left",1989.589,1,"Yes",NA
"345",99,106,"ben",81,"experiment",17793387,17800343,4,"eti","bir",17793877,17798646,"400",17795156,17795166,17795154,"sacc",9.608,2,17795149,17795166,17,390.1,442.8,1.30169,118.56,72.2111764705882,"NO",NA,17795167,17795512,345,"Yes","RIGHT","right",1400.154,1,"Yes",NA
"346",99,28,"ben",82,"experiment",17802404,17807445,7,"ge?","bir",17802949,17807157,"593",17804827,17804835,17804824,"fix",7.507,3,17805279,17805300,21,599.3,666.4,1.65737,133.380000000001,74.268409090909,"NO",NA,17804822,17805278,456,"No",NA,NA,NA,NA,"Yes",NA
"347",99,71,"identical",83,"experiment",17809261,17813473,4,"kek",NA,17809878,17813178,"448",17811281,17811287,17811279,NA,6.357,2,17811264,17811297,33,384.1,535.7,3.74452,191.425,109.878676470588,"NO",NA,17811298,17811518,220,"No",NA,NA,NA,NA,NA,NA
"348",99,57,"identical",84,"experiment",17815495,17819876,5,"kan",NA,17816018,17819581,"520",17817839,17817844,17817837,NA,5.175,2,17817828,17817850,22,497.5,575.4,1.92413,135.85,82.9060869565217,"NO",NA,17817851,17818279,428,"No",NA,NA,NA,NA,NA,NA
"349",99,8,"ben",85,"experiment",17821840,17827371,5,"nar","bir",17822508,17827072,"400",17823565,17823572,17823562,"sacc",6.285,3,17823547,17823567,20,338.8,420.5,2.01799,149.435,94.0364285714286,"NO",NA,17823568,17824084,516,"No",NA,NA,NA,NA,"Yes",NA
"350",99,15,"identical",86,"experiment",17829289,17839851,5,"bot",NA,17829832,17837374,"483",17832868,17832878,17832865,NA,9.172,3,17832852,17832872,20,438.3,508,1.72159,144.495,79.9809523809523,"NO",NA,17832873,17833208,335,"Yes","LEFT","left",2172.762,1,NA,NA
"351",99,80,"ben",87,"experiment",17842170,17847855,5,"kez","ben",17842813,17847555,"472",17844671,17844678,17844669,"fix",6.534,2,17845030,17845050,20,482.1,437.3,1.10656,74.1,50.0469047619048,"NO",NA,17844672,17845029,357,"No",NA,NA,NA,NA,"Yes",NA
"352",99,9,"identical",88,"experiment",17850235,17859576,8,"s?t",NA,17852244,17857323,"651",17854169,17854176,17854168,NA,6.357,1,17854161,17854177,16,633.5,686.2,1.30169,149.435,73.7367647058824,"NO",NA,17854178,17854335,157,"Yes","RIGHT","right",1957.475,1,NA,NA
"353",99,121,"identical",89,"experiment",17862214,17866430,7,"zor",NA,17862726,17866136,"581",17864524,17864533,17864522,NA,8.495,2,17864507,17864529,22,533.3,609.2,1.87473,145.730000000001,79.8454347826087,"NO",NA,17864530,17864764,234,"No",NA,NA,NA,NA,NA,NA
"354",99,82,"ben",90,"experiment",17868343,17877051,5,"g??","bir",17869033,17871613,"496",17870672,17870681,17870671,"fix",8.772,1,17870917,17870933,16,497.4,445.3,1.28687,122.265,73.5188235294118,"NO",NA,17870671,17870916,245,"Yes","LEFT","left",5133.518,1,"Yes",NA
"355",99,132,"ben",91,"experiment",17880272,17889423,7,"du?","ben",17880817,17889129,"618",17886435,17886444,17886433,"fix",8.795,2,17886743,17886761,18,637.1,697.7,1.49682,137.085,77.35,"NO",NA,17886436,17886742,306,"No",NA,NA,NA,NA,"Yes",NA
"356",99,102,"ben",92,"experiment",17924376,17939606,3,"iyi","ben",17925122,17928743,"268",17925748,17925756,17925745,"fix",7.51,3,17925884,17925899,15,267.7,222.5,1.11644,101.27,68.23375,"NO",NA,17925745,17925883,138,"Yes","RIGHT","left",10558.735,0,"Yes",NA
"357",99,58,"ben",93,"experiment",17942165,17953203,3,"sa?","ben",17944897,17952907,"318",17945723,17945732,17945722,"sacc",8.254,1,17945710,17945734,24,275.4,369.3,2.31933,149.435,91.9334,"NO",NA,17945735,17945904,169,"No",NA,NA,NA,NA,"Yes",NA
"358",99,135,"identical",94,"experiment",17954991,17959931,7,"ba?",NA,17955621,17959635,"557",17958089,17958095,17958087,NA,5.644,2,17958070,17958093,23,477.6,573,2.35638,187.720000000001,98.49125,"NO",NA,17958094,17958352,258,"No",NA,NA,NA,NA,NA,NA
"359",99,108,"ben",95,"experiment",17961848,17965842,5,"??k","bir",17962471,17965551,"473",17963548,17963555,17963545,"sacc",6.739,3,17963533,17963556,23,423.4,532.1,2.68489,223.535,110.378125,"NO",NA,17963557,17963973,416,"No",NA,NA,NA,NA,"Yes",NA
"360",99,26,"ben",96,"experiment",17967891,17973028,3,"dut","bir",17969224,17970489,"305",17970097,17970104,17970096,"sacc",6.552,1,17970081,17970107,26,239,361.7,3.03069,216.125,112.202037037037,"NO",NA,17970108,17970288,180,"Yes","LEFT","right",2235.021,0,"Yes",NA
"361",99,29,"identical",97,"experiment",17975242,17979906,7,"t?m",NA,17976060,17979610,"558",17978271,17978279,17978269,NA,8.288,2,17978251,17978272,21,487.8,568.3,1.98835,172.9,89.0322727272727,"NO",NA,17978273,17978533,260,"No",NA,NA,NA,NA,NA,NA
"362",99,16,"ben",98,"experiment",17984819,17990175,9,"ara","ben",17985504,17989868,"820",17988445,17988453,17988444,"sacc",7.617,1,17988429,17988451,22,765.5,849.2,2.06739,174.135,87.8997826086957,"NO",NA,17988452,17988726,274,"No",NA,NA,NA,NA,"Yes",NA
"363",99,3,"identical",99,"experiment",17991932,17996938,3,"hi?",NA,17993116,17996641,"341",17995101,17995110,17995100,NA,8.982,1,17995254,17995273,19,344,402.4,1.44248,128.44,71.07425,"NO",NA,17995090,17995253,163,"No",NA,NA,NA,NA,NA,NA
"364",99,41,"identical",100,"experiment",17999054,18006101,4,"ton",NA,18000345,18003102,"340",18001133,18001142,18001131,NA,8.419,2,18001109,18001134,25,237.5,348.3,2.73676,195.13,104.31,"NO",NA,18001135,18001346,211,"Yes","LEFT","left",2697.73,1,NA,NA
"365",99,53,"identical",101,"experiment",18008224,18012111,4,"hi?",NA,18008742,18011820,"390",18009875,18009884,18009873,NA,9.247,2,18009866,18009885,19,375.5,437,1.51905,121.029999999999,73.853,"NO",NA,18009886,18010081,195,"No",NA,NA,NA,NA,NA,NA
"366",99,50,"ben",102,"experiment",18045524,18050136,6,"mor","bir",18046512,18049844,"605",18048716,18048722,18048714,"sacc",6.355,2,18048696,18048717,21,524.8,612.2,2.15878,191.425,97.565,"NO",NA,18048718,18049106,388,"No",NA,NA,NA,NA,"Yes",NA
"367",99,14,"ben",103,"experiment",18052986,18059966,8,"g?l","ben",18053961,18058161,"546",18056733,18056739,18056731,"fix",6.187,2,18056953,18056969,16,563.7,519.3,1.09668,95.0950000000006,62.4038235294118,"NO",NA,18056733,18056952,219,"Yes","RIGHT","right",1502.658,1,"Yes",NA
"368",99,103,"identical",104,"experiment",18063232,18069878,6,"iri",NA,18063947,18069583,"509",18067508,18067514,18067505,NA,5.486,3,18067498,18067521,23,493,583.6,2.23782,167.96,91.39,"NO",NA,18067522,18067676,154,"No",NA,NA,NA,NA,NA,NA
"369",99,12,"ben",105,"experiment",18072479,18077223,5,"ta?","ben",18073170,18076931,"496",18074371,18074379,18074369,"sacc",8.25,2,18074347,18074372,25,390,501.2,2.74664,213.654999999999,104.88,"NO",NA,18074373,18074650,277,"No",NA,NA,NA,NA,"Yes",NA
"370",99,131,"identical",106,"experiment",18079475,18085193,7,"t?y",NA,18080186,18082639,"594",18081823,18081829,18081821,NA,5.976,2,18081817,18081837,20,591.4,663.5,1.78087,143.26,83.4507142857143,"NO",NA,18081838,18082220,382,"Yes","RIGHT","right",2254.106,1,NA,NA
"371",99,14,"ben",107,"experiment",18088204,18094939,5,"ku?","bir",18088895,18092303,"436",18090138,18090146,18090136,"sacc",8.316,2,18090128,18090148,20,413.4,477.3,1.57833,114.854999999999,73.7471428571429,"NO",NA,18090149,18090500,351,"Yes","LEFT","left",2334.97,1,"Yes",NA
"372",99,112,"ben",108,"experiment",18097117,18101451,6,"zor","ben",18097792,18101161,"533",18098989,18098998,18098989,"fix",8.496,0,18099413,18099433,20,529.7,593.6,1.57833,145.730000000001,73.8647619047618,"NO",NA,18099434,18099763,329,"No",NA,NA,NA,NA,"Yes",NA
"373",99,62,"ben",109,"experiment",18103182,18107561,5,"zil","bir",18103820,18107272,"497",18105475,18105484,18105473,"sacc",8.742,2,18105465,18105487,22,475.4,559.1,2.06739,169.195,88.92,"NO",NA,18105488,18105779,291,"No",NA,NA,NA,NA,"Yes",NA
"374",99,91,"identical",110,"experiment",18109712,18114822,7,"sel",NA,18110218,18114528,"557",18112693,18112700,18112708,NA,6.982,-15,18112913,18112934,21,556.2,625.4,1.70924,129.675,76.4577272727272,"NO",NA,18112935,18113270,335,"No",NA,NA,NA,NA,NA,NA
"375",99,109,"identical",111,"experiment",18117001,18121392,3,"sis",NA,18117610,18121096,"245",18118716,18118723,18118715,NA,7.16,1,18118976,18118991,15,256,291.9,0.886729999999999,87.6850000000003,53.7996875,"NO",NA,18118716,18118975,259,"No",NA,NA,NA,NA,NA,NA
"376",99,90,"ben",112,"experiment",18123482,18136198,7,"ya?","ben",18124112,18134429,"605",18132389,18132397,18132388,"fix",7.444,1,18132890,18132907,17,610.1,664.9,1.35356,129.675,73.4138888888888,"NO",NA,18132381,18132889,508,"Yes","LEFT","left",1464.763,1,"Yes",NA
"377",99,108,"ben",113,"experiment",18138988,18144468,7,"kez","ben",18139692,18144174,"642",18141660,18141669,18141659,"sacc",8.828,1,18141642,18141663,21,581.4,655.6,1.83274,158.079999999999,81.7906818181818,"NO",NA,18141664,18141924,260,"No",NA,NA,NA,NA,"Yes",NA
"378",99,105,"identical",114,"experiment",18146293,18151146,6,"kez",NA,18146804,18150854,"520",18148415,18148422,18148413,NA,6.816,2,18148599,18148620,21,525.6,604,1.93648,124.735,85.3834090909091,"NO",NA,18148412,18148598,186,"No",NA,NA,NA,NA,NA,NA
"379",99,55,"identical",115,"experiment",18152934,18159567,3,"ucu",NA,18153649,18156842,"328",18155041,18155050,18155039,NA,9.111,2,18155031,18155051,20,310.3,382,1.77099,134.615,82.5097619047619,"NO",NA,18155052,18155353,301,"Yes","LEFT","left",2424.579,1,NA,NA
"380",99,116,"ben",116,"experiment",18161769,18165361,7,"fay","bir",18162283,18165070,"593",18163920,18163927,18163918,"sacc",6.475,2,18163911,18163931,20,580.4,649.2,1.69936,143.26,80.6278571428572,"NO",NA,18163932,18164198,266,"No",NA,NA,NA,NA,"Yes",NA
"381",99,1,"identical",117,"experiment",18167736,18173014,5,"gri",NA,18168244,18170875,"436",18170228,18170238,18170227,NA,9.267,1,18170219,18170238,19,415,476.1,1.50917,123.5,74.555,"NO",NA,18170239,18170412,173,"Yes","RIGHT","right",1830.719,1,NA,NA
"382",99,79,"identical",118,"experiment",18175347,18183027,6,"ilk",NA,18175948,18180384,"545",18177881,18177888,18177880,NA,6.529,1,18178074,18178097,23,539.7,617.9,1.93154,149.435,78.8341666666666,"NO",NA,18178098,18178330,232,"Yes","RIGHT","right",2342.237,1,NA,NA
"383",99,84,"ben",119,"experiment",18185501,18192589,8,"top","ben",18186130,18190805,"797",18188725,18188758,18188723,"sacc",32.481,2,18188713,18188731,18,770.7,820.8,1.23747,107.445000000001,63.1149999999999,"NO",NA,18188732,18189214,482,"Yes","LEFT","left",1479.915,1,"Yes",NA
"384",99,128,"ben",120,"experiment",18194983,18200009,6,"has","bir",18195444,18199714,"424",18197751,18197759,18197749,"sacc",7.982,2,18197746,18197773,27,419.7,519.7,2.47,145.729999999999,86.9351785714286,"NO",NA,18197774,18197915,141,"No",NA,NA,NA,NA,"Yes",NA
"385",99,34,"ben",121,"experiment",18201919,18206503,5,"kot","ben",18202656,18206212,"389",18204203,18204212,18204202,"sacc",8.752,1,18204199,18204216,17,384.3,431.1,1.15596,90.1550000000001,61.4755555555556,"NO",NA,18204217,18204422,205,"No",NA,NA,NA,NA,"Yes",NA
"386",99,18,"ben",122,"experiment",18208880,18214715,7,"kar","bir",18209367,18214416,"532",18212283,18212291,18212282,"sacc",8.237,1,18212261,18212285,24,438.6,540.3,2.51199,184.015,99.8868,"NO",NA,18212286,18212546,260,"No",NA,NA,NA,NA,"Yes",NA
"387",99,97,"identical",123,"experiment",18216681,18221777,8,"?n?",NA,18217205,18221481,"521",18219407,18219416,18219405,NA,8.783,2,18219399,18219419,20,507.3,585.1,1.92166,155.61,89.3904761904762,"NO",NA,18219420,18219819,399,"No",NA,NA,NA,NA,NA,NA
"388",99,107,"identical",124,"experiment",18223642,18230531,4,"ipi",NA,18224292,18227872,"376",18226002,18226011,18226000,NA,8.274,2,18225986,18226010,24,319.6,416.7,2.39837,159.315,94.9962,"NO",NA,18226011,18226440,429,"Yes","LEFT","left",2356.841,1,NA,NA
"389",99,43,"identical",125,"experiment",18232748,18235207,4,"fes",NA,18233202,18234918,"449",18234319,18234328,18234317,NA,8.752,2,18234307,18234329,22,419.5,490.6,1.75617,135.85,75.1739130434783,"NO",NA,18234330,18234581,251,"No",NA,NA,NA,NA,NA,NA
"390",99,89,"identical",126,"experiment",18237084,18242177,4,"evi",NA,18237835,18241882,"435",18239494,18239500,18239492,NA,5.823,2,18239646,18239665,19,441.6,502.6,1.5067,170.429999999999,73.853,"NO",NA,18239487,18239645,158,"No",NA,NA,NA,NA,NA,NA
"391",99,90,"ben",127,"experiment",18244172,18250889,8,"ge?","bir",18244781,18249126,"711",18247365,18247371,18247363,"sacc",5.97,2,18247350,18247369,19,672.4,732.5,1.48447,121.029999999999,72.2475,"NO",NA,18247370,18247671,301,"Yes","RIGHT","right",1460.042,1,"Yes",NA
"392",99,43,"identical",128,"experiment",18253332,18258262,5,"iyi",NA,18253824,18257929,"450",18255911,18255918,18255910,NA,6.673,1,18256031,18256050,19,454.1,518.1,1.5808,139.555,79.04,"NO",NA,18255910,18256030,120,"No",NA,NA,NA,NA,NA,NA
"393",99,93,"identical",129,"experiment",18260295,18264598,5,"g?n",NA,18260794,18264291,"399",18262221,18262229,18262219,NA,7.81,2,18262213,18262233,20,390.9,448.7,1.42766,122.265,66.4547619047619,"NO",NA,18262234,18262436,202,"No",NA,NA,NA,NA,NA,NA
"394",99,104,"ben",130,"experiment",18266569,18271625,6,"bo?","bir",18267172,18271328,"593",18269589,18269595,18269586,"fix",6.149,3,18270072,18270089,17,594.3,646.2,1.28193,112.385,69.5030555555556,"NO",NA,18270090,18270367,277,"No",NA,NA,NA,NA,"Yes",NA
"395",99,49,"identical",131,"experiment",18273761,18280030,9,"kez",NA,18274325,18279731,"833",18277115,18277124,18277113,NA,9.146,2,18277697,18277717,20,838.4,894.1,1.37579,119.795000000001,64.0435714285714,"NO",NA,18277106,18277696,590,"No",NA,NA,NA,NA,NA,NA
"396",99,53,"identical",132,"experiment",18282011,18288380,3,"dut",NA,18282726,18286534,"377",18283749,18283757,18283747,NA,7.503,2,18283730,18283753,23,308.8,398.8,2.223,161.785,91.4414583333333,"NO",NA,18283754,18284053,299,"Yes","RIGHT","right",1542.362,1,NA,NA
"397",99,78,"ben",133,"experiment",18290948,18296137,6,"sek","bir",18291540,18295843,"448",18293650,18293659,18293688,"fix",8.659,-38,18293688,18293703,15,448.6,487.7,0.965769999999999,98.8,58.2765625,"NO",NA,18293704,18294003,299,"No",NA,NA,NA,NA,"Yes",NA
"398",99,5,"identical",134,"experiment",18298471,18305587,6,"ile",NA,18299344,18305298,"618",18301867,18301876,18301865,NA,9.135,2,18301851,18301869,18,569.5,629.4,1.47953,148.2,75.79,"NO",NA,18301870,18302081,211,"No",NA,NA,NA,NA,NA,NA
"399",99,100,"ben",135,"experiment",18309064,18313769,5,"g?n","ben",18309605,18313467,"424",18311154,18311161,18311151,"sacc",6.917,3,18311147,18311164,17,415.2,467.8,1.29922,119.795,70.3263888888889,"NO",NA,18311165,18311457,292,"No",NA,NA,NA,NA,"Yes",NA
"400",99,60,"ben",136,"experiment",18316961,18333536,6,"sos","ben",18317734,18321901,"450",18320092,18320100,18320090,"sacc",7.84,2,18320086,18320105,19,441.2,511.2,1.729,149.435,85.52375,"NO",NA,18320106,18320265,159,"Yes","LEFT","left",11325.776,1,"Yes",NA
"401",99,48,"ben",137,"experiment",18336811,18342665,4,"ter","bir",18338766,18342371,"376",18339773,18339780,18339770,"sacc",6.635,3,18339762,18339780,18,354.3,417.7,1.56598,123.5,80.1377777777778,"NO",NA,18339781,18340094,313,"No",NA,NA,NA,NA,"Yes",NA
"402",99,63,"identical",138,"experiment",18344766,18362645,8,"eve",NA,18345273,18352256,"735",18347514,18347522,18347512,NA,7.325,2,18347500,18347518,18,704.5,752.6,1.18807,93.8600000000003,60.125,"NO",NA,18347519,18347752,233,"Yes","LEFT","left",10088.69,1,NA,NA
"403",99,48,"ben",139,"experiment",18392662,18400726,7,"ruj","ben",18393287,18397716,"654",18395334,18395343,18395332,"sacc",8.806,2,18395320,18395335,15,618.4,663,1.10162,102.505000000001,65.1462500000001,"NO",NA,18395336,18395845,509,"Yes","RIGHT","left",2709.337,0,"Yes",NA
"404",99,26,"ben",140,"experiment",18405024,18411055,7,"kez","ben",18405558,18410757,"738",18407526,18407535,18407524,"sacc",9.257,2,18407512,18407532,20,702.4,770.3,1.67713,134.615,77.9814285714285,"NO",NA,18407533,18407791,258,"No",NA,NA,NA,NA,"Yes",NA
"405",99,122,"ben",141,"experiment",18413364,18418742,6,"s?t","bir",18414051,18418448,"556",18416496,18416503,18416494,"sacc",7.367,2,18416479,18416500,21,500.6,574.9,1.83521,140.790000000001,82.1275,"NO",NA,18416501,18417042,541,"No",NA,NA,NA,NA,"Yes",NA
"406",99,76,"ben",142,"experiment",18421549,18426859,10,"ile","ben",18422235,18426571,"870",18424442,18424449,18424439,"sacc",7.389,3,18424422,18424447,25,801.2,900.1,2.44283,159.315,92.72,"NO",NA,18424448,18424710,262,"No",NA,NA,NA,NA,"Yes",NA
