"","sub","item","cond","seq","trial_type","trial_start","trial_end","target_word_n","target_word","target_changed","Dis_on_t","Dis_off_t","boundary","DC_start_t","DC_end_t","boundary_t","boundarycond","Display_time","Display_lat","sacc_start_t","sacc_end_t","sacc_dur","sacc_start_x","sacc_end_x","sacc_ampl","peak_vel","avg_vel","blink","blink_dur","fix_start_t","fix_end_t","fix_dur","question","corrAns","key_resp","RT_q","accuracy","corr_sacc","jhook"
"1",1,5,"identical",1,"practice",672070,674498,5,"i?e","identical",673060,674178,"460",674000,674007,673998,"identical",6.816,2,673974,674085,111,162.4,1758.9,39.43355,575.51,352.074241071429,"NO",NA,674086,674256,170,"No",NA,NA,NA,NA,NA,NA
"2",1,7,"identical",2,"practice",680812,684183,4,"kez","identical",681332,683887,"424",682158,682166,682156,"identical",7.802,2,682143,682167,24,371.4,478.2,2.63796,216.125,104.2834,"NO",NA,682168,682419,251,"No",NA,NA,NA,NA,NA,NA
"3",1,2,"ben",3,"practice",686421,695166,6,"aya","bir",687401,691799,"759",688841,688848,688839,"sacc",7.103,2,688817,688855,38,642.1,805.8,4.04339,224.769999999999,105.228333333333,"NO",NA,688856,689062,206,"Yes","LEFT","left",3055.876,1,"Yes",NA
"4",1,4,"ben",4,"practice",697115,701311,5,"eve","bir",698021,701005,"472",699293,699301,699292,"sacc",8.177,1,699280,699309,29,431.5,542.7,2.74664,195.13,91.1841666666667,"NO",NA,699310,699587,277,"No",NA,NA,NA,NA,"Yes",NA
"5",1,10,"ben",5,"practice",703396,707421,5,"ta?","ben",704261,707117,"472",705202,705207,705199,"fix",5.279,3,705469,705486,17,493.3,543.5,1.23994,137.085,68.3366666666666,"NO",NA,705202,705468,266,"No",NA,NA,NA,NA,"Yes",NA
"6",1,3,"identical",6,"practice",709270,714106,3,"hi?","identical",710105,713809,"341",710824,710830,710823,"identical",6.175,1,710814,710834,20,321.7,387.1,1.61538,146.965,75.2761904761905,"NO",NA,710835,711043,208,"No",NA,NA,NA,NA,NA,NA
"7",1,8,"ben",7,"practice",716074,721252,9,"ara","ben",716862,720947,"820",719051,719060,719049,"sacc",8.947,2,719038,719063,25,781.5,894.5,2.7911,190.190000000001,105.545,"NO",NA,719064,719314,250,"No",NA,NA,NA,NA,"Yes",NA
"8",1,6,"ben",8,"practice",723183,729204,7,"g?l","ben",723857,727265,"546",725441,725450,725439,"sacc",9.248,2,725423,725453,30,473,590.4,2.89978,205.01,92.7046774193548,"NO",NA,725454,725791,337,"Yes","RIGHT","right",1633.78,1,"Yes",NA
"9",1,1,"identical",9,"practice",731049,733958,6,"ak?","identical",731590,733658,"582",732415,732425,732413,"identical",9.48,2,732386,732419,33,396.8,589.9,4.76957,329.745,141.988676470588,"NO",NA,732688,732954,266,"No",NA,NA,NA,NA,NA,NA
"10",1,9,"identical",10,"practice",735864,742518,7,"?ok","identical",737009,739815,"605",738376,738385,738374,"identical",9.026,2,738382,738401,19,604.3,675,1.74629,156.844999999999,85.89425,"NO",NA,738402,738600,198,"Yes","RIGHT","right",2396.792,1,NA,NA
"11",1,151,"identical",11,"exp_2",751046,756605,7,"?ok","identical",751925,754216,"571",753094,753101,753092,"identical",6.895,2,753062,753111,49,549.6,670.6,2.9887,223.535,75.1621,"NO",NA,753112,753312,200,"Yes","LEFT","left",2064.092,1,NA,NA
"12",1,105,"identical",12,"exp_2",758573,764233,5,"hi?","identical",759533,761737,"508",760429,760438,760427,"identical",9.274,2,760412,760442,30,420.5,587.5,4.1249,301.34,137.881774193548,"NO",NA,760443,760774,331,"Yes","RIGHT","right",2168.65,1,NA,NA
"13",1,127,"identical",13,"exp_2",766007,770934,5,"ucu","identical",766749,768934,"533",767751,767759,767749,"identical",7.573,2,767736,767758,22,480.9,577.3,2.38108,192.66,102.451304347826,"NO",NA,767759,767999,240,"Yes","LEFT","left",1682.283,1,NA,NA
"14",1,82,"ben",14,"exp_2",772892,778915,6,"s?t","bir",773899,776605,"496",774886,774896,774885,"sacc",9.526,1,774875,774901,26,469.2,598.4,3.19124,240.825,120.206666666667,"NO",NA,774902,775170,268,"Yes","LEFT","left",1980.729,1,"Yes",NA
"15",1,91,"identical",15,"exp_2",789929,793344,5,"k?f","identical",790759,793033,"485",791555,791564,791553,"identical",8.535,2,791537,791562,25,413.8,518.8,2.5935,200.07,100.0825,"NO",NA,791563,791869,306,"No",NA,NA,NA,NA,NA,NA
"16",1,119,"identical",16,"exp_2",795642,800597,8,"ge?","identical",796490,798922,"711",797711,797721,797709,"identical",9.414,2,797700,797736,36,691,830.8,3.45306,193.894999999999,92.9587837837838,"NO",NA,797737,797795,58,"Yes","RIGHT","left",1356.318,0,NA,NA
"17",1,125,"identical",17,"exp_2",802525,806109,7,"hi?","identical",803035,805793,"581",803942,803948,803940,"identical",5.998,2,803928,803971,43,521.7,707.3,4.58432,364.325,146.65625,"NO",NA,803972,804145,173,"No",NA,NA,NA,NA,NA,NA
"18",1,143,"identical",18,"exp_2",808022,811120,4,"cam","identical",808507,810803,"423",809089,809095,809087,"identical",6.271,2,809072,809103,31,338.5,512.9,4.30768,297.635,135.88859375,"NO",NA,809104,809325,221,"No",NA,NA,NA,NA,NA,NA
"19",1,88,"ben",19,"exp_2",813113,816372,5,"ada","bir",813604,816057,"509",814738,814747,814737,"sacc",9.168,1,814715,814742,27,358.4,514.7,3.86061,302.575,138.143571428571,"NO",NA,815007,815235,228,"No",NA,NA,NA,NA,"Yes",NA
"20",1,115,"identical",20,"exp_2",818388,825551,6,"t?y","identical",818977,823660,"533",820337,820345,820335,"identical",7.75,2,820322,820358,36,479.8,589,2.69724,227.24,76.5032432432432,"NO",NA,820359,820534,175,"Yes","LEFT","left",1564.994,1,NA,NA
"21",1,126,"ben",21,"exp_2",827405,831877,5,"buz","ben",828637,831567,"557",829684,829693,829682,"sacc",8.396,2,829670,829698,28,511,628.1,2.89237,188.954999999999,103.271551724138,"NO",NA,829699,829952,253,"No",NA,NA,NA,NA,"Yes",NA
"22",1,86,"ben",22,"exp_2",833736,839883,3,"dut","bir",834273,836999,"377",834812,834819,834810,"sacc",6.811,2,834799,834835,36,335.4,495.3,3.94953,244.53,107.177972972973,"NO",NA,834836,835057,221,"Yes","RIGHT","left",2560.061,0,"Yes",NA
"23",1,110,"ben",23,"exp_2",842199,846426,8,"?ok","bir",843303,846113,"677",844597,844605,844595,"sacc",7.558,2,844583,844622,39,619,772.4,3.78898,318.629999999999,128.5635,"NO",NA,844623,844954,331,"No",NA,NA,NA,NA,"Yes",NA
"24",1,155,"identical",24,"exp_2",848364,852679,5,"tur","identical",849184,852363,"376",850094,850102,850092,"identical",8.038,2,850076,850117,41,265,417.6,3.76922,358.15,140.642976190476,"NO",NA,850118,850343,225,"No",NA,NA,NA,NA,NA,NA
"25",1,89,"identical",25,"exp_2",854429,856865,3,"dil","identical",854912,856548,"376",855835,855842,855833,"identical",6.613,2,855816,855859,43,263.8,430.4,4.11502,317.395,124.594659090909,"NO",NA,855860,856109,249,"No",NA,NA,NA,NA,NA,NA
"26",1,158,"ben",26,"exp_2",858724,862565,4,"evi","ben",860084,862245,"435",860687,860693,860686,"sacc",5.544,1,860665,860698,33,276.1,480.8,5.05609,372.97,152.231911764706,"NO",NA,860699,860892,193,"No",NA,NA,NA,NA,"Yes",NA
"27",1,92,"ben",27,"exp_2",864359,869803,4,"k??","bir",867475,869496,"496",868472,868480,868470,"sacc",8.381,2,868456,868491,35,439.2,572.5,3.29251,234.65,91.4929166666667,"NO",NA,868492,868962,470,"No",NA,NA,NA,NA,"Yes",NA
"28",1,102,"ben",28,"exp_2",871670,874955,5,"eve","bir",872276,874647,"484",873210,873219,873208,"sacc",8.828,2,873192,873222,30,400.1,561.4,3.98411,311.22,133.180806451613,"NO",NA,873223,873526,303,"No",NA,NA,NA,NA,"Yes",NA
"29",1,111,"identical",29,"exp_2",876713,881283,5,"g??","identical",877590,879540,"496",878592,878600,878589,"identical",7.533,3,878580,878599,19,468.8,531.9,1.55857,165.49,78.7312500000001,"NO",NA,878600,878835,235,"Yes","LEFT","left",1424.619,1,NA,NA
"30",1,128,"ben",30,"exp_2",883152,888266,6,"?ok","ben",883910,886266,"617",885070,885078,885068,"sacc",7.532,2,885057,885076,19,585.2,647.6,1.54128,154.375,76.13775,"NO",NA,885077,885245,168,"Yes","RIGHT","right",1681.565,1,"Yes",NA
"31",1,145,"identical",31,"exp_2",890150,895131,5,"iyi","identical",890613,893183,"496",891523,891530,891521,"identical",7.36,2,891506,891532,26,411.1,543.8,3.27769,306.28,129.629259259259,"NO",NA,891533,891748,215,"Yes","LEFT","left",1630.833,1,NA,NA
"32",1,122,"ben",32,"exp_2",897047,901238,8,"?ok","ben",897554,900927,"665",899413,899422,899411,"sacc",9.196,2,899390,899432,42,499.2,672,4.26816,371.734999999999,145.098139534884,"NO",NA,899433,899659,226,"No",NA,NA,NA,NA,"Yes",NA
"33",1,123,"identical",33,"exp_2",904883,908458,6,"eve","identical",905371,908150,"534",906644,906651,906642,"identical",6.778,2,906621,906648,27,398.7,551.2,3.76675,305.045,134.173928571429,"NO",NA,906649,906863,214,"No",NA,NA,NA,NA,NA,NA
"34",1,146,"ben",34,"exp_2",910558,914831,10,"ile","ben",911081,914520,"858",912648,912658,912645,"sacc",9.359,3,912626,912661,35,752.8,916.2,4.03598,237.119999999999,116.433055555556,"NO",NA,912662,912915,253,"No",NA,NA,NA,NA,"Yes",NA
"35",1,153,"identical",35,"exp_2",918099,924385,8,"top","identical",918580,921978,"797",920520,920529,920518,"identical",8.376,2,920498,920542,44,676,791.9,2.86273,295.165000000001,104.975,"NO",NA,920543,920724,181,"Yes","LEFT","left",2089.892,1,NA,NA
"36",1,157,"identical",36,"exp_2",926296,933814,8,"ge?","identical",927232,931520,"832",929346,929355,929344,"identical",8.726,2,929330,929363,33,775.9,915.2,3.44071,230.945000000001,101.27,"NO",NA,929364,929621,257,"Yes","RIGHT","right",1979.513,1,NA,NA
"37",1,147,"identical",37,"exp_2",935737,938849,7,"dar","identical",936254,938540,"653",937285,937293,937283,"identical",7.299,2,937265,937293,28,548.4,684.9,3.37155,275.405000000001,121.162321428571,"NO",NA,937294,937569,275,"No",NA,NA,NA,NA,NA,NA
"38",1,84,"ben",38,"exp_2",940793,946307,6,"sis","bir",941280,943800,"520",942469,942477,942467,"fix",8.214,2,942676,942710,34,517.9,609.5,2.26252,165.49,63.8318571428571,"NO",NA,942711,942951,240,"Yes","LEFT","left",2189.597,1,"Yes",NA
"39",1,93,"identical",39,"exp_2",948296,951551,4,"hep","identical",948734,951241,"435",949596,949602,949595,"identical",5.278,1,949587,949607,20,422.5,505,2.03775,221.065,98.4471428571428,"NO",NA,949608,949885,277,"No",NA,NA,NA,NA,NA,NA
"40",1,99,"identical",40,"exp_2",953350,956841,6,"zor","identical",954340,956531,"472",955210,955216,955208,"identical",6.171,2,955199,955221,22,450.5,546.5,2.3712,222.3,102.880869565217,"NO",NA,955222,955412,190,"No",NA,NA,NA,NA,NA,NA
"41",1,149,"identical",41,"exp_2",958715,965690,6,"ilk","identical",960384,963986,"545",962575,962583,962573,"identical",7.302,2,962556,962597,41,433.3,576.8,3.54445,282.815,117.472023809524,"NO",NA,962598,962843,245,"Yes","RIGHT","right",1384.423,1,NA,NA
"42",1,112,"ben",42,"exp_2",967563,970451,7,"top","bir",968038,970144,"568",969065,969073,969064,"sacc",7.648,1,969050,969078,28,510.2,631.6,2.99858,230.945000000001,103.825172413793,"NO",NA,969079,969282,203,"No",NA,NA,NA,NA,"Yes",NA
"43",1,139,"identical",43,"exp_2",972274,975303,6,"?ok","identical",972752,974992,"533",973687,973694,973685,"identical",7.416,2,973672,973699,27,476.4,605.4,3.1863,229.71,113.31125,"NO",NA,973700,973953,253,"No",NA,NA,NA,NA,NA,NA
"44",1,159,"identical",44,"exp_2",977157,985061,7,"ya?","identical",979055,982813,"605",981579,981586,981577,"identical",7.335,2,981565,981588,23,564.8,666,2.49964,203.775,103.945833333333,"NO",NA,981589,981843,254,"Yes","LEFT","left",1926.678,1,NA,NA
"45",1,97,"identical",45,"exp_2",987078,993111,5,"jet","identical",987689,990443,"497",988348,988356,988346,"identical",8.242,2,988332,988366,34,427.2,550.4,3.04304,228.475,88.0378571428572,"NO",NA,988367,988681,314,"Yes","LEFT","left",2346.938,1,NA,NA
"46",1,148,"ben",46,"exp_2",995124,1000798,8,"du?","ben",997241,1000489,"616",998630,998638,998628,"sacc",8.222,2,998598,998653,55,372.9,621.8,6.14783,455.715,145.288928571429,"NO",NA,998912,999046,134,"No",NA,NA,NA,NA,"Yes",NA
"47",1,107,"identical",47,"exp_2",1002559,1007341,5,"tok","identical",1003210,1005344,"448",1003869,1003877,1003867,"identical",8.185,2,1004177,1004202,25,449.4,563.8,2.82568,221.065,107.9675,"NO",NA,1003857,1004176,319,"Yes","RIGHT","left",1681.738,0,NA,NA
"48",1,95,"identical",48,"exp_2",1009232,1012135,5,"zil","identical",1009680,1011823,"497",1010774,1010781,1010771,"identical",6.253,3,1010760,1010780,20,458.5,527.6,1.70677,169.195,80.6866666666667,"NO",NA,1010781,1010999,218,"No",NA,NA,NA,NA,NA,NA
"49",1,114,"ben",49,"exp_2",1014146,1019018,9,"kin","bir",1015281,1018704,"724",1016454,1016462,1016452,"sacc",7.5,2,1016437,1016463,26,653.5,778.2,3.08009,250.704999999999,113.162592592593,"NO",NA,1016464,1016664,200,"No",NA,NA,NA,NA,"Yes",NA
"50",1,137,"identical",50,"exp_2",1020782,1024569,7,"ku?","identical",1021279,1024260,"580",1022456,1022464,1022453,"identical",8.111,3,1022437,1022467,30,504.9,628.5,3.05292,222.3,98.0829032258065,"NO",NA,1022468,1022708,240,"No",NA,NA,NA,NA,NA,NA
"51",1,121,"identical",51,"exp_2",1026917,1034065,9,"toz","identical",1028533,1030928,"723",1030059,1030068,1030057,"identical",8.97,2,1030048,1030073,25,699.7,803.8,2.57127,190.19,98.3725,"NO",NA,1030074,1030236,162,"Yes","LEFT","right",2819.771,0,NA,NA
"52",1,124,"ben",52,"exp_2",1035876,1040093,5,"hep","ben",1036371,1039785,"532",1037679,1037685,1037677,"sacc",5.791,2,1037661,1037704,43,449.3,578.5,3.19124,333.45,112.07625,"NO",NA,1037705,1038002,297,"No",NA,NA,NA,NA,"Yes",NA
"53",1,96,"ben",53,"exp_2",1041926,1045608,9,"?ok","bir",1042945,1045297,"713",1044328,1044333,1044326,"sacc",5.361,2,1044314,1044343,29,668.7,803.7,3.3345,250.704999999999,110.367833333333,"NO",NA,1044344,1044582,238,"No",NA,NA,NA,NA,"Yes",NA
"54",1,160,"ben",54,"exp_2",1047593,1051235,5,"kez","ben",1048555,1050924,"389",1048990,1048997,1048989,"sacc",6.769,1,1048957,1048997,40,254.6,407.5,3.77663,197.6,94.878875,"NO",NA,1049348,1049566,218,"No",NA,NA,NA,NA,"Yes",NA
"55",1,132,"ben",55,"exp_2",1052987,1058589,6,"sos","ben",1053965,1056218,"450",1054670,1054678,1054668,"sacc",8.06,2,1054648,1054681,33,337.1,487.3,3.70994,250.705,112.711911764706,"NO",NA,1054682,1054918,236,"Yes","LEFT","left",2053.827,1,"Yes",NA
"56",1,135,"identical",56,"exp_2",1060473,1063461,6,"tuz","identical",1060960,1063151,"508",1062069,1062078,1062067,"identical",8.652,2,1062056,1062078,22,471.8,568.7,2.39343,207.479999999999,106.883636363636,"NO",NA,1062079,1062293,214,"No",NA,NA,NA,NA,NA,NA
"57",1,83,"identical",57,"exp_2",1067006,1070119,6,"mor","identical",1067671,1069810,"605",1068926,1068935,1068925,"identical",9.261,1,1068913,1068935,22,567.3,657.3,2.223,206.245000000001,98.8561363636364,"NO",NA,1068936,1069180,244,"No",NA,NA,NA,NA,NA,NA
"58",1,109,"identical",58,"exp_2",1074493,1080285,7,"?ok","identical",1075388,1078384,"653",1076433,1076444,1076431,"identical",10.409,2,1076408,1076434,26,584.4,662.8,1.93648,158.080000000001,70.3492592592592,"NO",NA,1076435,1076625,190,"Yes","LEFT","left",1579.577,1,NA,NA
"59",1,94,"ben",59,"exp_2",1082320,1086688,4,"t?p","bir",1082950,1086380,"424",1083574,1083580,1083572,"sacc",6.433,2,1083556,1083585,29,321.1,493.7,4.26322,351.975,142.230833333333,"NO",NA,1083586,1083847,261,"No",NA,NA,NA,NA,"Yes",NA
"60",1,117,"identical",60,"exp_2",1088413,1092803,7,"?ok","identical",1089795,1092485,"724",1091192,1091201,1091190,"identical",8.984,2,1091169,1091199,30,581.6,751.4,4.19406,296.4,134.973548387097,"NO",NA,1091200,1091371,171,"No",NA,NA,NA,NA,NA,NA
"61",1,150,"ben",61,"exp_2",1094670,1098326,5,"kez","ben",1095664,1098020,"472",1096328,1096336,1096326,"sacc",7.726,2,1096303,1096332,29,319.1,481.1,4.0014,300.105,133.832833333333,"NO",NA,1096597,1096860,263,"No",NA,NA,NA,NA,"Yes",NA
"62",1,141,"identical",62,"exp_2",1100368,1106601,9,"f?n","identical",1100887,1104352,"904",1102532,1102543,1102530,"identical",10.593,2,1102518,1102547,29,858.3,998.8,3.47035,259.35,126.669833333333,"NO",NA,1102548,1102933,385,"Yes","RIGHT","right",1933.927,1,NA,NA
"63",1,113,"identical",63,"exp_2",1108356,1111057,4,"hi?","identical",1108829,1110748,"399",1109460,1109467,1109458,"identical",6.613,2,1109445,1109470,25,339.3,463.8,3.07515,301.34,127.015,"NO",NA,1109471,1109676,205,"No",NA,NA,NA,NA,NA,NA
"64",1,154,"ben",64,"exp_2",1112936,1116900,7,"mum","ben",1114481,1116592,"593",1115400,1115407,1115398,"sacc",6.259,2,1115371,1115405,34,489.4,611,3.00352,175.37,86.2382857142857,"NO",NA,1115406,1115633,227,"No",NA,NA,NA,NA,"Yes",NA
"65",1,152,"ben",65,"exp_2",1118728,1123041,3,"a??","ben",1119261,1121560,"294",1119728,1119736,1119727,"sacc",8.139,1,1119715,1119735,20,247.9,332.8,2.09703,161.785,97.8590476190476,"NO",NA,1119736,1120184,448,"Yes","LEFT","left",1162.454,1,"Yes",NA
"66",1,101,"identical",66,"exp_2",1124764,1131403,5,"tat","identical",1126260,1128734,"364",1126818,1126827,1126816,"identical",9.194,2,1126801,1126826,25,296.8,410.4,2.80592,240.825,107.4925,"NO",NA,1126827,1127115,288,"Yes","RIGHT","right",2349.236,1,NA,NA
"67",1,108,"ben",67,"exp_2",1133230,1136417,6,"ara","bir",1133739,1136109,"651",1134961,1134969,1134959,"sacc",8.334,2,1134950,1134986,36,629.9,738.1,2.67254,176.605000000001,72.4310810810811,"NO",NA,1134987,1135237,250,"No",NA,NA,NA,NA,"Yes",NA
"68",1,118,"ben",68,"exp_2",1138327,1142670,6,"iyi","bir",1139749,1142356,"567",1140649,1140655,1140647,"sacc",5.387,2,1140637,1140662,25,545.1,678.6,3.29745,275.405000000001,129.01,"NO",NA,1140663,1140814,151,"No",NA,NA,NA,NA,"Yes",NA
"69",1,130,"ben",69,"exp_2",1144432,1148681,4,"sa?","ben",1145468,1148373,"376",1145853,1145860,1145851,"sacc",7.209,2,1145828,1145858,30,213.7,391,4.37931,309.985,145.172258064516,"NO",NA,1146353,1146537,184,"No",NA,NA,NA,NA,"Yes",NA
"70",1,144,"ben",70,"exp_2",1150624,1156084,11,"?ut","ben",1151779,1155778,"906",1153356,1153364,1153355,"fix",8.323,1,1153698,1153719,21,910.6,991.9,2.00811,161.785,91.8952272727273,"NO",NA,1153356,1153697,341,"No",NA,NA,NA,NA,"Yes",NA
"71",1,87,"identical",71,"exp_2",1158286,1163233,5,"sis","identical",1158779,1160777,"424",1159488,1159496,1159486,"identical",7.761,2,1159470,1159491,21,340.5,437.2,2.38849,228.475,107.388863636364,"NO",NA,1159492,1159728,236,"Yes","LEFT","left",2135.273,1,NA,NA
"72",1,136,"ben",72,"exp_2",1165101,1169928,7,"pis","ben",1167100,1169617,"604",1168298,1168306,1168297,"sacc",7.587,1,1168280,1168301,21,522.7,612.2,2.21065,227.24,100.764772727273,"NO",NA,1168302,1168477,175,"No",NA,NA,NA,NA,"Yes",NA
"73",1,156,"ben",73,"exp_2",1171751,1175989,5,"yem","ben",1172339,1175677,"568",1173240,1173249,1173238,"sacc",8.276,2,1173227,1173249,22,535.7,627.8,2.27487,203.775,99.7543181818182,"NO",NA,1173250,1173477,227,"No",NA,NA,NA,NA,"Yes",NA
"74",1,131,"identical",74,"exp_2",1180524,1183929,6,"hap","identical",1180936,1183620,"483",1181803,1181812,1181801,"identical",8.676,2,1181786,1181823,37,422.8,542.5,2.95659,180.31,79.82,"NO",NA,1181824,1182159,335,"No",NA,NA,NA,NA,NA,NA
"75",1,100,"ben",75,"exp_2",1185772,1189211,5,"buz","bir",1186471,1188902,"508",1187533,1187539,1187531,"sacc",5.597,2,1187515,1187541,26,417.2,546.3,3.18877,280.345,119.886481481481,"NO",NA,1187542,1187761,219,"No",NA,NA,NA,NA,"Yes",NA
"76",1,116,"ben",76,"exp_2",1190994,1197156,3,"zil","bir",1191881,1194518,"377",1192383,1192390,1192381,"sacc",7.015,2,1192362,1192390,28,268.8,408.3,3.44565,232.18,121.95625,"NO",NA,1192391,1192634,243,"Yes","LEFT","left",2319.941,1,"Yes",NA
"77",1,134,"ben",77,"exp_2",1198972,1206235,7,"eve","ben",1199919,1202939,"663",1201087,1201095,1201085,"sacc",8.125,2,1201072,1201098,26,612.3,737.7,3.09738,244.530000000001,114.626296296296,"NO",NA,1201099,1201280,181,"Yes","LEFT","left",2979.734,1,"Yes",NA
"78",1,98,"ben",78,"exp_2",1207994,1212581,7,"?t?","bir",1208457,1212265,"748",1210208,1210218,1210205,"sacc",9.412,3,1210195,1210227,32,718,833.8,2.86026,200.070000000001,86.8242424242424,"NO",NA,1210228,1210438,210,"No",NA,NA,NA,NA,"Yes",NA
"79",1,106,"ben",79,"exp_2",1214472,1217710,5,"?ok","bir",1214956,1217390,"605",1215770,1215778,1215768,"sacc",7.853,2,1215746,1215775,29,426,619.9,4.78933,360.62,160.879333333333,"NO",NA,1215776,1216026,250,"No",NA,NA,NA,NA,"Yes",NA
"80",1,129,"identical",80,"exp_2",1219497,1224970,5,"kan","identical",1221284,1224660,"520",1222530,1222540,1222529,"identical",9.111,1,1222503,1222535,32,326.6,522.4,4.83626,365.56,148.237424242424,"NO",NA,1222874,1223093,219,"No",NA,NA,NA,NA,NA,NA
"81",1,138,"ben",81,"exp_2",1226751,1230830,4,"pul","ben",1227674,1230518,"413",1228169,1228174,1228167,"sacc",5.22,2,1228144,1228172,28,256.3,417.3,3.9767,309.985,137.468275862069,"NO",NA,1228638,1228897,259,"No",NA,NA,NA,NA,"Yes",NA
"82",1,104,"ben",82,"exp_2",1232661,1237491,5,"?ok","bir",1233268,1235900,"447",1234513,1234519,1234511,"sacc",6.012,2,1234496,1234539,43,354.8,519.3,4.06315,382.85,126.419090909091,"NO",NA,1234540,1234729,189,"Yes","RIGHT","right",1272.063,1,"Yes",NA
"83",1,103,"identical",83,"exp_2",1239179,1241662,4,"kek","identical",1239616,1241340,"448",1240237,1240246,1240235,"identical",8.85,2,1240218,1240248,30,340.7,497.4,3.87049,319.865,125.81064516129,"NO",NA,1240249,1240423,174,"No",NA,NA,NA,NA,NA,NA
"84",1,140,"ben",84,"exp_2",1243450,1246503,8,"pes","ben",1243946,1246190,"773",1245167,1245176,1245165,"sacc",9.29,2,1245147,1245191,44,674.6,842.8,4.15454,259.35,117.791555555556,"NO",NA,1245192,1245453,261,"No",NA,NA,NA,NA,"Yes",NA
"85",1,133,"identical",85,"exp_2",1248351,1255310,6,"toz","identical",1249343,1252751,"604",1250448,1250457,1250447,"identical",8.886,1,1250422,1250452,30,453.6,601.7,3.65807,295.165,121.508064516129,"NO",NA,1250683,1250860,177,"Yes","LEFT","left",2231.257,1,NA,NA
"86",1,120,"ben",86,"exp_2",1257215,1260476,7,"sel","bir",1257878,1260162,"557",1258860,1258866,1258857,"fix",6.164,3,1259098,1259120,22,566,660.3,2.32921,205.01,100.410869565217,"NO",NA,1258854,1259097,243,"No",NA,NA,NA,NA,"Yes",NA
"87",1,142,"ben",87,"exp_2",1262344,1265878,5,"muz","ben",1263021,1265565,"425",1263487,1263496,1263486,"sacc",9.258,1,1263463,1263492,29,261.6,420.7,3.92977,326.04,151.205166666667,"NO",NA,1263806,1263998,192,"No",NA,NA,NA,NA,"Yes","yes"
"88",1,90,"ben",88,"exp_2",1270971,1277008,6,"f?n","bir",1272569,1274662,"568",1273578,1273586,1273576,"sacc",8.207,2,1273561,1273599,38,520.6,624.2,2.55892,150.669999999999,65.265,"NO",NA,1273600,1273763,163,"Yes","RIGHT","left",2027.47,0,"Yes",NA
"89",1,85,"identical",89,"exp_2",1279183,1282227,6,"iyi","identical",1279693,1281914,"531",1280843,1280853,1280841,"identical",9.451,2,1280820,1280851,31,437,561.5,3.07515,202.54,95.90546875,"NO",NA,1280852,1281008,156,"No",NA,NA,NA,NA,NA,NA
"90",1,206,"ben",90,"exp_3",1383353,1387296,5,"g?n","ben",1384185,1386963,"399",1385131,1385141,1385128,"sacc",9.28,3,1385117,1385139,22,363,457,2.3218,197.6,99.6591304347826,"NO",NA,1385140,1385541,401,"No",NA,NA,NA,NA,"Yes",NA
"91",1,166,"ben",91,"exp_3",1389155,1392103,8,"?n?","bir",1389629,1391778,"521",1390677,1390684,1390675,"sacc",6.851,2,1390667,1390693,26,504.9,619.3,2.82568,186.485,103.09962962963,"NO",NA,1390694,1390980,286,"No",NA,NA,NA,NA,"Yes",NA
"92",1,187,"identical",92,"exp_3",1396152,1399984,8,"ke?","identical",1396632,1399654,"784",1397900,1397909,1397898,"identical",8.645,2,1397884,1397921,37,727.8,881.7,3.80133,212.419999999999,99.8725,"NO",NA,1397922,1398166,244,"No",NA,NA,NA,NA,NA,NA
"93",1,240,"ben",93,"exp_3",1402060,1409160,7,"yer","ben",1402910,1405921,"568",1404002,1404011,1404001,"sacc",9.036,1,1403996,1404032,36,558.8,678.5,2.95659,158.080000000001,79.3404054054054,"NO",NA,1404033,1404274,241,"Yes","LEFT","left",2909.533,1,"Yes",NA
"94",1,223,"identical",94,"exp_3",1411029,1416188,6,"d??","identical",1411832,1413842,"388",1412499,1412508,1412497,"identical",8.709,2,1412488,1412512,24,366.3,461.6,2.35391,164.255,93.86,"NO",NA,1412513,1412741,228,"Yes","RIGHT","right",2013.61,1,NA,NA
"95",1,199,"identical",95,"exp_3",1417920,1424450,7,"t?y","identical",1420671,1422818,"594",1421624,1421630,1421622,"identical",6.068,2,1421895,1421912,17,605.9,658.3,1.29428,150.670000000001,71.1497222222222,"NO",NA,1421623,1421894,271,"Yes","RIGHT","right",1302.503,1,NA,NA
"96",1,220,"ben",96,"exp_3",1426627,1430353,7,"kez","ben",1427107,1430029,"642",1428215,1428225,1428214,"sacc",9.756,1,1428198,1428224,26,569.8,686,2.87014,230.945000000001,105.798333333333,"NO",NA,1428225,1428467,242,"No",NA,NA,NA,NA,"Yes",NA
"97",1,219,"identical",97,"exp_3",1432197,1436948,6,"hi?","identical",1432701,1434787,"497",1433493,1433502,1433491,"identical",8.45,2,1433476,1433505,29,415.9,573.7,3.89766,238.355000000001,130.374833333333,"NO",NA,1433506,1433701,195,"Yes","RIGHT","right",1833.354,1,NA,NA
"98",1,172,"ben",98,"exp_3",1438760,1443217,6,"bo?","bir",1440171,1442897,"593",1441769,1441777,1441767,"sacc",8.057,2,1441754,1441784,30,545.7,668.5,3.03316,216.125,97.565,"NO",NA,1441785,1442147,362,"No",NA,NA,NA,NA,"Yes",NA
"99",1,194,"ben",99,"exp_3",1445002,1449795,6,"ta?","bir",1445715,1447775,"604",1446686,1446695,1446684,"sacc",8.892,2,1446666,1446697,31,511.1,653.5,3.51728,244.529999999999,109.79921875,"NO",NA,1446698,1446886,188,"Yes","RIGHT","right",1686.333,1,"Yes",NA
"100",1,248,"ben",100,"exp_3",1451615,1457009,5,"dar","ben",1452693,1454972,"520",1453887,1453895,1453885,"sacc",7.24,2,1453869,1453897,28,438.3,569.5,3.24064,228.475,111.703620689655,"NO",NA,1453898,1454115,217,"Yes","RIGHT","right",1700.157,1,"Yes",NA
"101",1,196,"ben",101,"exp_3",1458832,1462361,6,"has","bir",1459363,1462028,"424",1460482,1460489,1460480,"sacc",7.049,2,1460463,1460490,27,337,472,3.3345,249.47,118.604107142857,"NO",NA,1460491,1460728,237,"No",NA,NA,NA,NA,"Yes",NA
"102",1,205,"identical",102,"exp_3",1464856,1469514,5,"muz","identical",1465336,1467750,"437",1466078,1466087,1466076,"identical",8.771,2,1466061,1466097,36,368.3,538.4,4.20147,214.89,117.758918918919,"NO",NA,1466098,1466269,171,"Yes","RIGHT","right",1425.646,1,NA,NA
"103",1,174,"ben",103,"exp_3",1471527,1477791,4,"eti","bir",1472944,1475079,"400",1473555,1473562,1473553,"sacc",6.577,2,1473535,1473566,31,253.9,483.7,5.67606,384.085,179.1521875,"NO",NA,1473567,1473776,209,"Yes","RIGHT","right",2378.152,1,"Yes",NA
"104",1,228,"ben",104,"exp_3",1480013,1482820,7,"ile","ben",1480319,1482491,"522",1481132,1481141,1481129,"fix",8.591,3,1481357,1481382,25,522.1,637,2.83803,218.595000000001,108.3,"NO",NA,1481383,1481580,197,"No",NA,NA,NA,NA,"Yes",NA
"105",1,168,"ben",105,"exp_3",1484766,1489673,8,"s?r","bir",1485637,1489344,"628",1487125,1487135,1487123,"sacc",9.496,2,1487112,1487141,29,597.9,725,3.13937,205.01,104.3575,"NO",NA,1487142,1487340,198,"No",NA,NA,NA,NA,"Yes",NA
"106",1,218,"ben",106,"exp_3",1491926,1498366,6,"iyi","ben",1492420,1495973,"521",1493530,1493538,1493528,"sacc",7.189,2,1493510,1493538,28,386.7,567.3,4.46082,345.8,160.814642857143,"NO",NA,1493539,1493761,222,"Yes","RIGHT","right",2055.974,1,"Yes",NA
"107",1,237,"identical",107,"exp_3",1500277,1503709,3,"tu?","identical",1501717,1503389,"352",1502227,1502234,1502225,"identical",7.104,2,1502214,1502236,22,311.9,412,2.47247,230.945,107.015434782609,"NO",NA,1502237,1502441,204,"No",NA,NA,NA,NA,NA,NA
"108",1,178,"ben",108,"exp_3",1505426,1509979,3,"iri","bir",1506343,1508287,"376",1506973,1506981,1506971,"sacc",8.048,2,1506956,1506983,27,296.6,437,3.46788,302.575,125.484821428571,"NO",NA,1506984,1507225,241,"Yes","RIGHT","right",1360.501,1,"Yes",NA
"109",1,241,"identical",109,"exp_3",1511826,1514425,4,"ucu","identical",1512266,1514096,"389",1512820,1512829,1512818,"identical",9.077,2,1512802,1512826,24,316.8,424.2,2.65278,209.95,104.728,"NO",NA,1512827,1513140,313,"No",NA,NA,NA,NA,NA,NA
"110",1,188,"ben",110,"exp_3",1516197,1519166,4,"?ok","bir",1517055,1518842,"423",1517727,1517734,1517725,"sacc",7.423,2,1517716,1517748,32,403,526.5,3.05045,202.54,92.9618181818182,"NO",NA,1517749,1517976,227,"No",NA,NA,NA,NA,"Yes",NA
"111",1,197,"identical",111,"exp_3",1520934,1523470,4,"hep","identical",1521439,1523141,"424",1522267,1522273,1522265,"identical",5.524,2,1522256,1522295,39,406,509,2.5441,176.604999999999,65.732875,"NO",NA,1522296,1522504,208,"No",NA,NA,NA,NA,NA,NA
"112",1,204,"ben",112,"exp_3",1527253,1530429,6,"nem","bir",1527754,1530107,"521",1528590,1528596,1528588,"sacc",5.929,2,1528567,1528595,28,378.2,536.8,3.91742,300.104999999999,136.318448275862,"NO",NA,1528596,1528787,191,"No",NA,NA,NA,NA,"Yes",NA
"113",1,238,"ben",113,"exp_3",1532554,1537307,7,"kez","ben",1534269,1536982,"569",1535130,1535137,1535128,"sacc",6.63,2,1535115,1535149,34,507.4,661.2,3.79886,250.704999999999,108.821142857143,"NO",NA,1535150,1535310,160,"No",NA,NA,NA,NA,"Yes",NA
"114",1,234,"ben",114,"exp_3",1539059,1542643,6,"ile","ben",1540309,1542321,"582",1541056,1541064,1541054,"sacc",7.759,2,1541031,1541069,38,422.5,631.3,5.15736,290.225,137.053333333333,"NO",NA,1541070,1541278,208,"No",NA,NA,NA,NA,"Yes",NA
"115",1,180,"ben",115,"exp_3",1544507,1550555,6,"pil","bir",1546078,1548915,"497",1547145,1547154,1547143,"sacc",8.761,2,1547134,1547167,33,476.2,609.2,3.2851,219.829999999999,96.3663235294118,"NO",NA,1547168,1547432,264,"Yes","RIGHT","right",1307.583,1,"Yes",NA
"116",1,165,"identical",116,"exp_3",1552368,1555317,8,"g?k","identical",1552906,1554983,"532",1553846,1553853,1553844,"identical",6.601,2,1553834,1553855,21,501.1,594.1,2.2971,209.95,103.1225,"NO",NA,1553856,1554179,323,"No",NA,NA,NA,NA,NA,NA
"117",1,192,"ben",117,"exp_3",1557175,1560120,6,"kel","bir",1557695,1559791,"567",1558641,1558650,1558639,"sacc",8.494,2,1558615,1558649,34,476.9,598.5,3.00352,190.19,85.5325714285714,"NO",NA,1558650,1558847,197,"No",NA,NA,NA,NA,"Yes",NA
"118",1,195,"identical",118,"exp_3",1562125,1565255,7,"tas","identical",1562771,1564925,"496",1564278,1564285,1564277,"identical",6.79,1,1564266,1564288,22,464.9,550,2.10197,164.254999999999,90.6382608695652,"NO",NA,1564289,1564550,261,"No",NA,NA,NA,NA,NA,NA
"119",1,233,"identical",119,"exp_3",1567112,1570013,7,"zor","identical",1567597,1569687,"581",1568561,1568569,1568560,"identical",7.672,1,1568541,1568566,25,481.7,605,3.04551,263.055000000001,116.66,"NO",NA,1568567,1568777,210,"No",NA,NA,NA,NA,NA,NA
"120",1,181,"identical",120,"exp_3",1571885,1575448,4,"pas","identical",1572315,1575118,"352",1573008,1573015,1573006,"identical",7.173,2,1572994,1573015,21,305.3,402.2,2.39343,205.01,111.444047619048,"NO",NA,1573016,1573233,217,"No",NA,NA,NA,NA,NA,NA
"121",1,207,"identical",121,"exp_3",1577092,1579345,3,"kar","identical",1577608,1579013,"330",1578080,1578088,1578078,"identical",7.239,2,1578064,1578093,29,265.7,402.7,3.3839,235.885,116.048833333333,"NO",NA,1578094,1578368,274,"No",NA,NA,NA,NA,NA,NA
"122",1,245,"identical",122,"exp_3",1581546,1585455,6,"ipi","identical",1582471,1585126,"676",1583680,1583690,1583678,"identical",9.26,2,1583652,1583708,56,447.5,681.5,5.7798,408.784999999999,130.975,"NO",NA,1583885,1584180,295,"No",NA,NA,NA,NA,NA,NA
"123",1,244,"ben",123,"exp_3",1587351,1592308,7,"du?","ben",1588432,1591979,"618",1589220,1589229,1589218,"sacc",8.432,2,1589191,1589233,42,446.5,618.7,4.25334,272.935,122.322441860465,"NO",NA,1589234,1589477,243,"No",NA,NA,NA,NA,"Yes",NA
"124",1,208,"ben",124,"exp_3",1594139,1598542,4,"?ay","ben",1595736,1598219,"413",1596621,1596628,1596619,"sacc",7.401,2,1596610,1596635,25,387.9,494.8,2.64043,227.24,101.27,"NO",NA,1596636,1596836,200,"No",NA,NA,NA,NA,"Yes",NA
"125",1,167,"identical",125,"exp_3",1600317,1605787,6,"bal","identical",1601626,1604064,"605",1602727,1602735,1602725,"identical",7.934,2,1602703,1602743,40,429.5,604.6,4.32497,337.155,142.296097560976,"NO",NA,1602744,1602979,235,"Yes","RIGHT","right",1388.904,1,NA,NA
"126",1,213,"identical",126,"exp_3",1607646,1613775,4,"kez","identical",1610439,1613442,"401",1611192,1611198,1611191,"identical",6.184,1,1611179,1611203,24,357.6,469,2.75158,281.58,109.5692,"NO",NA,1611204,1611453,249,"No",NA,NA,NA,NA,NA,NA
"127",1,184,"ben",127,"exp_3",1615553,1618277,7,"fay","bir",1616004,1617948,"593",1617340,1617347,1617338,"sacc",6.556,2,1617328,1617354,26,566.2,679.9,2.80839,263.054999999999,106.21,"NO",NA,1617355,1617570,215,"No",NA,NA,NA,NA,"Yes",NA
"128",1,229,"identical",128,"exp_3",1624722,1628816,5,"kez","identical",1625960,1628486,"509",1626883,1626890,1626881,"identical",7.226,2,1626862,1626887,25,392.4,516,3.05292,293.93,117.1825,"NO",NA,1626888,1627071,183,"No",NA,NA,NA,NA,NA,NA
"129",1,215,"identical",129,"exp_3",1630650,1633943,6,"iri","identical",1631162,1633610,"509",1631922,1631929,1631920,"identical",7.201,2,1631906,1631932,26,442.1,580.9,3.42836,279.11,132.73962962963,"NO",NA,1631933,1632240,307,"No",NA,NA,NA,NA,NA,NA
"130",1,202,"ben",130,"exp_3",1637873,1644797,4,"ela","bir",1640605,1644459,"340",1641256,1641264,1641254,"sacc",8.316,2,1641235,1641263,28,223.4,360,3.37402,263.055,123.883275862069,"NO",NA,1641264,1641475,211,"No",NA,NA,NA,NA,"Yes",NA
"131",1,163,"identical",131,"exp_3",1646570,1652450,7,"?ok","identical",1648626,1652125,"532",1650136,1650145,1650134,"identical",8.582,2,1650124,1650151,27,506.6,633.2,3.12702,274.170000000001,111.105892857143,"NO",NA,1650152,1650487,335,"No",NA,NA,NA,NA,NA,NA
"132",1,191,"identical",132,"exp_3",1654601,1658701,8,"ac?","identical",1655396,1658380,"665",1657353,1657361,1657350,"identical",7.825,3,1657339,1657362,23,629.7,709.9,1.98094,179.075,82.6420833333334,"NO",NA,1657363,1657549,186,"No",NA,NA,NA,NA,NA,NA
"133",1,210,"ben",133,"exp_3",1660836,1664905,6,"iyi","ben",1661461,1664578,"497",1662306,1662312,1662304,"sacc",6.014,2,1662287,1662310,23,408.4,518.3,2.71453,243.295,112.590833333333,"NO",NA,1662311,1662537,226,"No",NA,NA,NA,NA,"Yes",NA
"134",1,189,"identical",134,"exp_3",1666722,1671925,7,"?t?","identical",1667364,1669442,"557",1668251,1668260,1668250,"identical",9.082,1,1668223,1668252,29,415.7,554.1,3.41848,244.53,117.572,"NO",NA,1668458,1668690,232,"Yes","RIGHT","right",2144.354,1,NA,NA
"135",1,193,"identical",135,"exp_3",1674118,1678437,7,"top","identical",1675080,1678100,"591",1677211,1677220,1677209,"identical",8.789,2,1677197,1677224,27,551.6,682.2,3.22582,264.29,117.721964285714,"NO",NA,1677225,1677411,186,"No",NA,NA,NA,NA,NA,NA
"136",1,224,"ben",136,"exp_3",1680335,1683904,6,"zor","ben",1681283,1683575,"533",1682064,1682071,1682062,"sacc",6.884,2,1682045,1682088,43,427,595.3,4.15701,316.16,131.948522727273,"NO",NA,1682089,1682446,357,"No",NA,NA,NA,NA,"Yes",NA
"137",1,230,"ben",137,"exp_3",1685836,1691826,8,"g?n","ben",1688236,1691499,"617",1689302,1689308,1689300,"fix",5.722,2,1689495,1689525,30,614.8,715,2.47494,182.780000000001,79.04,"NO",NA,1689526,1689681,155,"No",NA,NA,NA,NA,"Yes",NA
"138",1,203,"identical",138,"exp_3",1693647,1697620,7,"ba?","identical",1695144,1697290,"557",1696395,1696403,1696393,"identical",8.27,2,1696384,1696408,24,537.9,644.3,2.62808,228.475,107.0992,"NO",NA,1696409,1696665,256,"No",NA,NA,NA,NA,NA,NA
"139",1,164,"ben",139,"exp_3",1699404,1702446,6,"ge?","bir",1700041,1702124,"497",1700730,1700737,1700728,"sacc",7.13,2,1700710,1700749,39,385.2,512.9,3.15419,305.045,114.9785,"NO",NA,1700750,1700993,243,"No",NA,NA,NA,NA,"Yes",NA
"140",1,246,"ben",140,"exp_3",1704242,1707891,7,"pek","ben",1704733,1707562,"700",1706230,1706239,1706228,"sacc",8.883,2,1706215,1706238,23,650.5,749.5,2.4453,218.594999999999,105.180833333333,"NO",NA,1706239,1706411,172,"No",NA,NA,NA,NA,"Yes",NA
"141",1,200,"ben",141,"exp_3",1709673,1713183,5,"ma?","bir",1710164,1712858,"448",1710714,1710723,1710713,"sacc",8.763,1,1710686,1710728,42,308.4,430.5,3.01587,240.825,93.3143023255814,"NO",NA,1711292,1711517,225,"No",NA,NA,NA,NA,"Yes","yes"
"142",1,222,"ben",142,"exp_3",1715216,1718479,7,"not","ben",1715866,1718155,"617",1716974,1716980,1716972,"sacc",5.719,2,1716954,1716982,28,512.1,647.1,3.3345,286.519999999999,116.388103448276,"NO",NA,1716983,1717308,325,"No",NA,NA,NA,NA,"Yes",NA
"143",1,179,"identical",143,"exp_3",1720147,1724290,4,"kan","identical",1721576,1723964,"473",1722387,1722394,1722385,"identical",6.777,2,1722372,1722398,26,414.3,538.8,3.07515,244.53,114.351851851852,"NO",NA,1722399,1722701,302,"No",NA,NA,NA,NA,NA,NA
"144",1,239,"identical",144,"exp_3",1726112,1732210,7,"yem","identical",1727754,1730055,"569",1728808,1728818,1728806,"identical",9.411,2,1728794,1728817,23,523,622,2.4453,195.130000000001,100.806875,"NO",NA,1728818,1728984,166,"Yes","LEFT","left",1814.385,1,NA,NA
"145",1,176,"ben",145,"exp_3",1734018,1737819,5,"??k","bir",1735279,1737497,"473",1736148,1736155,1736146,"sacc",6.511,2,1736131,1736158,27,402.1,530.9,3.18136,260.585,117.104464285714,"NO",NA,1736159,1736526,367,"No",NA,NA,NA,NA,"Yes",NA
"146",1,232,"ben",146,"exp_3",1739397,1741647,4,"gri","ben",1740051,1741321,"414",1740792,1740797,1740790,"sacc",4.96,2,1740776,1740825,49,347.6,493.9,3.61361,256.88,113.5706,"NO",NA,1740826,1741132,306,"No",NA,NA,NA,NA,"Yes",NA
"147",1,235,"identical",147,"exp_3",1743908,1746574,4,"iyi","identical",1744209,1746245,"341",1744728,1744735,1744726,"identical",6.864,2,1744708,1744744,36,229.7,352,3.02081,300.105,123.366486486486,"NO",NA,1744745,1744992,247,"No",NA,NA,NA,NA,NA,NA
"148",1,185,"identical",148,"exp_3",1749054,1756477,6,"tuz","identical",1752185,1756153,"592",1753729,1753736,1753727,"identical",7.276,2,1753714,1753738,24,546.3,664.4,2.91707,237.119999999999,115.6948,"NO",NA,1753739,1753962,223,"No",NA,NA,NA,NA,NA,NA
"149",1,242,"ben",149,"exp_3",1758604,1761630,6,"?ok","ben",1759105,1761303,"665",1760054,1760060,1760052,"sacc",5.62,2,1760038,1760079,41,593,718.2,3.09244,292.695000000001,93.8305952380952,"NO",NA,1760080,1760315,235,"No",NA,NA,NA,NA,"Yes",NA
"150",1,175,"identical",150,"exp_3",1764811,1823501,4,"ipi","identical",1817503,1820678,"376",1818894,1818901,1818892,"identical",6.645,2,1818874,1818906,32,277.7,348.7,1.7537,258.115,108.455454545455,"NO",NA,1819231,1819411,180,"Yes","LEFT","left",2485.732,1,NA,NA
"151",1,225,"identical",151,"exp_3",1825425,1830913,9,"s?t","identical",1827426,1830577,"762",1829288,1829295,1829285,"identical",6.96,3,1829278,1829300,22,751.8,840.6,2.19336,195.130000000001,94.1821739130435,"NO",NA,1829301,1829507,206,"No",NA,NA,NA,NA,NA,NA
"152",1,171,"identical",152,"exp_3",1832941,1836263,6,"fal","identical",1833796,1835941,"448",1834548,1834555,1834546,"identical",6.937,2,1834532,1834566,34,382.9,481.2,2.42801,260.585,104.798571428571,"NO",NA,1834567,1834744,177,"No",NA,NA,NA,NA,NA,NA
"153",1,226,"ben",153,"exp_3",1838137,1844685,6,"zor","ben",1839344,1842388,"616",1840742,1840749,1840740,"sacc",7.232,2,1840728,1840757,29,572.7,704.3,3.25052,214.89,107.856666666667,"NO",NA,1840758,1841011,253,"Yes","LEFT","left",1954.124,1,"Yes",NA
"154",1,170,"ben",154,"exp_3",1846572,1851445,4,"saf","bir",1847544,1851122,"495",1848367,1848374,1848365,"sacc",7.236,2,1848351,1848386,35,432.5,597.2,4.06809,248.235,113.757222222222,"NO",NA,1848387,1848612,225,"No",NA,NA,NA,NA,"Yes",NA
"155",1,212,"ben",155,"exp_3",1853687,1870463,5,"g?n","ben",1863849,1870132,"424",1865064,1865072,1865062,"sacc",7.515,2,1865045,1865079,34,348.7,470.1,2.99858,182.78,87.4732857142857,"NO",NA,1865080,1865367,287,"No",NA,NA,NA,NA,"Yes",NA
"156",1,183,"identical",156,"exp_3",1872190,1875456,4,"g?k","identical",1872851,1875130,"364",1873569,1873577,1873567,"identical",7.422,2,1873552,1873590,38,268.2,417.5,3.68771,377.91,133.411666666667,"NO",NA,1873591,1873892,301,"No",NA,NA,NA,NA,NA,NA
"157",1,169,"identical",157,"exp_3",1877363,1882718,6,"k?r","identical",1877986,1880539,"521",1879162,1879170,1879160,"identical",7.957,2,1879150,1879173,23,499.8,584.7,2.09703,207.479999999999,89.1772916666667,"NO",NA,1879174,1879366,192,"Yes","RIGHT","right",1842.471,1,NA,NA
"158",1,221,"identical",158,"exp_3",1884462,1888654,7,"her","identical",1885269,1887282,"531",1886416,1886424,1886414,"identical",7.803,2,1886406,1886434,28,517.9,647.2,3.19371,226.004999999999,109.446551724138,"NO",NA,1886435,1886756,321,"Yes","RIGHT","right",1034.602,1,NA,NA
"159",1,247,"identical",159,"exp_3",1890449,1893179,7,"kek","identical",1890933,1892851,"605",1891885,1891892,1891883,"identical",7.175,2,1891867,1891894,27,534.3,659.2,3.08503,244.529999999999,110.311964285714,"NO",NA,1891895,1892134,239,"No",NA,NA,NA,NA,NA,NA
"160",1,217,"identical",160,"exp_3",1895634,1898824,6,"kez","identical",1896247,1898496,"520",1897304,1897310,1897302,"identical",6.531,2,1897294,1897318,24,505.9,624.5,2.92942,265.525,119.9432,"NO",NA,1897319,1897602,283,"No",NA,NA,NA,NA,NA,NA
"161",1,182,"ben",161,"exp_3",1900517,1906895,3,"?i?","bir",1902091,1904388,"353",1902710,1902717,1902709,"sacc",6.387,1,1902695,1902722,27,281.8,416.3,3.32215,292.695,121.823928571429,"NO",NA,1902723,1903015,292,"Yes","RIGHT","right",2171.425,1,"Yes",NA
"162",1,190,"ben",162,"exp_3",1908708,1913940,6,"s?t","bir",1910483,1913614,"556",1911907,1911914,1911905,"sacc",6.739,2,1911893,1911921,28,515.2,636.2,2.9887,227.24,103.910344827586,"NO",NA,1911922,1912144,222,"No",NA,NA,NA,NA,"Yes",NA
"163",1,201,"identical",163,"exp_3",1915799,1919150,7,"cam","identical",1916260,1918823,"569",1917120,1917128,1917118,"identical",7.873,2,1917091,1917137,46,275.8,557.3,6.95305,512.525,188.692234042553,"NO",NA,1917590,1917850,260,"No",NA,NA,NA,NA,NA,NA
"164",1,243,"identical",164,"exp_3",1920975,1924402,6,"zor","identical",1921474,1924076,"555",1922546,1922555,1922544,"identical",8.516,2,1922531,1922555,24,493,617.9,3.08503,269.229999999999,126.484583333333,"NO",NA,1922556,1922874,318,"No",NA,NA,NA,NA,NA,NA
"165",1,173,"identical",165,"exp_3",1926263,1930038,6,"hep","identical",1927218,1929709,"460",1928077,1928086,1928075,"identical",8.702,2,1928059,1928096,37,367.5,492.3,3.08256,300.104999999999,115.9925,"NO",NA,1928097,1928290,193,"No",NA,NA,NA,NA,NA,NA
"166",1,177,"identical",166,"exp_3",1931873,1933972,3,"sis","identical",1932357,1933647,"245",1932701,1932707,1932699,"identical",6.32,2,1932681,1932706,25,161,268.7,2.66019,192.66,101.65,"NO",NA,1932707,1932874,167,"No",NA,NA,NA,NA,NA,NA
"167",1,198,"ben",167,"exp_3",1935711,1939867,5,"bo?","bir",1937429,1939536,"388",1938312,1938318,1938310,"sacc",5.343,2,1938294,1938322,28,288.5,440.3,3.74946,327.275,132.996724137931,"NO",NA,1938323,1938524,201,"No",NA,NA,NA,NA,"Yes",NA
"168",1,231,"identical",168,"exp_3",1941644,1946420,8,"zor","identical",1942126,1943790,"725",1943461,1943469,1943459,"identical",7.66,2,1943444,1943484,40,657.1,786.3,3.19124,248.235,107.47512195122,"NO",NA,1943485,1943616,131,"Yes","RIGHT","right",2296.683,1,NA,NA
"169",1,209,"identical",169,"exp_3",1948209,1954307,5,"iyi","identical",1949772,1952217,"555",1950590,1950598,1950588,"identical",7.634,2,1950578,1950602,24,529.9,643.8,2.81333,242.06,113.0766,"NO",NA,1950603,1950854,251,"Yes","RIGHT","left",1752.153,0,NA,NA
"170",1,214,"ben",170,"exp_3",1956253,1961533,3,"iyi","ben",1957626,1959867,"268",1958277,1958285,1958275,"sacc",7.923,2,1958263,1958290,27,219.9,345.8,3.10973,253.175,112.69375,"NO",NA,1958291,1958557,266,"Yes","RIGHT","right",1311.426,1,"Yes",NA
"171",1,186,"ben",171,"exp_3",1963177,1966844,5,"d?n","bir",1964162,1966520,"412",1965290,1965297,1965288,"sacc",6.899,2,1965262,1965310,48,118.6,392,6.75298,485.355,211.613469387755,"NO",NA,1965964,1966126,162,"No",NA,NA,NA,NA,"Yes","yes"
"172",1,236,"ben",172,"exp_3",1968753,1974157,7,"top","ben",1969401,1971654,"605",1970579,1970586,1970576,"sacc",6.896,3,1970557,1970581,24,498.4,616.5,2.91707,259.35,116.7322,"NO",NA,1970582,1970825,243,"Yes","LEFT","left",2165.578,1,"Yes",NA
"173",1,211,"identical",173,"exp_3",1975952,1983595,3,"cam","identical",1977627,1980035,"339",1978212,1978219,1978210,"identical",7.188,2,1978199,1978228,29,305.1,436.1,3.2357,230.945,107.5685,"NO",NA,1978229,1978433,204,"Yes","LEFT","left",3219.214,1,NA,NA
"174",1,227,"identical",174,"exp_3",1985473,1988470,9,"ge?","identical",1985986,1988148,"688",1987170,1987179,1987168,"identical",8.867,2,1987151,1987176,25,601.7,712.3,2.73182,237.120000000001,105.735,"NO",NA,1987177,1987355,178,"No",NA,NA,NA,NA,NA,NA
"175",1,216,"ben",175,"exp_3",1990236,1993515,5,"ile","ben",1990987,1993187,"438",1991627,1991634,1991625,"sacc",6.645,2,1991608,1991634,26,337.2,476.5,3.44071,302.575,133.57,"NO",NA,1991635,1991810,175,"No",NA,NA,NA,NA,"Yes",NA
"176",1,6,"ben",176,"exp_1",2169187,2172563,6,"toz","bir",2169898,2172205,"460",2171064,2171070,2171063,"sacc",5.954,1,2171047,2171077,30,380.8,542.7,3.99893,276.64,128.121290322581,"NO",NA,2171078,2171310,232,"No",NA,NA,NA,NA,"Yes",NA
"177",1,72,"ben",177,"exp_1",2174478,2178299,10,"kez","ben",2174954,2177957,"893",2176580,2176589,2176578,"sacc",8.579,2,2176566,2176596,30,851.8,982.1,3.21841,184.015,104.496935483871,"NO",NA,2176597,2176872,275,"No",NA,NA,NA,NA,"Yes",NA
"178",1,18,"ben",178,"exp_1",2180083,2183918,5,"fal","bir",2181031,2183575,"472",2181742,2181748,2181740,"sacc",6.037,2,2181725,2181758,33,395.7,539.6,3.55433,251.94,104.829705882353,"NO",NA,2181759,2182020,261,"No",NA,NA,NA,NA,"Yes",NA
"179",1,55,"identical",179,"exp_1",2185688,2189345,3,"ipi","identical",2187108,2189004,"318",2187831,2187838,2187829,"identical",6.986,2,2187823,2187858,35,308,448.4,3.46788,195.13,97.0847222222222,"NO",NA,2187859,2188054,195,"No",NA,NA,NA,NA,NA,NA
"180",1,41,"identical",180,"exp_1",2191642,2194572,4,"ter","identical",2192489,2194231,"376",2193000,2193006,2192999,"identical",6.13,1,2192980,2193004,24,274.8,387.2,2.77628,243.295000000001,111.15,"NO",NA,2193005,2193263,258,"No",NA,NA,NA,NA,NA,NA
"181",1,25,"identical",181,"exp_1",2196322,2202391,5,"zor","identical",2198450,2200591,"448",2199329,2199338,2199328,"identical",9.143,1,2199309,2199339,30,363.6,493.3,3.20359,190.19,102.823709677419,"NO",NA,2199340,2199581,241,"Yes","RIGHT","right",1458.255,1,NA,NA
"182",1,44,"ben",182,"exp_1",2204163,2210519,5,"eve","ben",2205954,2208237,"508",2206908,2206917,2206906,"sacc",9.174,2,2206886,2206918,32,371.6,559.8,4.64854,296.4,144.944090909091,"NO",NA,2206919,2207146,227,"Yes","LEFT","left",1941.771,1,"Yes",NA
"183",1,16,"ben",183,"exp_1",2212343,2214798,5,"zar","bir",2212840,2214458,"484",2213587,2213595,2213586,"fix",8.476,1,2213793,2213815,22,478.6,565.2,2.13902,163.019999999999,91.2826086956522,"NO",NA,2213816,2214153,337,"No",NA,NA,NA,NA,"Yes",NA
"184",1,58,"ben",184,"exp_1",2216658,2220800,7,"t?m","ben",2218455,2220457,"558",2219262,2219268,2219261,"fix",6.124,1,2219467,2219492,25,565.7,671.5,2.61326,171.665000000001,99.8925,"NO",NA,2219257,2219466,209,"No",NA,NA,NA,NA,"Yes",NA
"185",1,43,"identical",185,"exp_1",2222591,2226377,7,"zor","identical",2223944,2226036,"497",2224740,2224749,2224738,"identical",8.962,2,2224720,2224747,27,388,527.8,3.45306,259.35,125.087857142857,"NO",NA,2224748,2225010,262,"No",NA,NA,NA,NA,NA,NA
"186",1,69,"identical",186,"exp_1",2228222,2232647,4,"ton","identical",2228879,2230754,"340",2229448,2229454,2229446,"identical",6.224,2,2229435,2229458,23,296.6,399.8,2.54904,212.42,106.004166666667,"NO",NA,2229459,2229700,241,"Yes","LEFT","left",1549.284,1,NA,NA
"187",1,57,"identical",187,"exp_1",2261702,2264764,7,"sos","identical",2262235,2264427,"519",2263038,2263044,2263036,"identical",6.187,2,2263017,2263042,25,422,542.9,2.98623,221.065,113.0975,"NO",NA,2263043,2263352,309,"No",NA,NA,NA,NA,NA,NA
"188",1,56,"ben",188,"exp_1",2266651,2281512,7,"kez","ben",2277468,2281172,"738",2279104,2279111,2279103,"sacc",7.356,1,2279091,2279112,21,701.9,784.1,2.03034,191.425,92.2320454545455,"NO",NA,2279113,2279337,224,"No",NA,NA,NA,NA,"Yes",NA
"189",1,32,"ben",189,"exp_1",2283300,2286090,4,"s?t","bir",2283754,2285750,"377",2284446,2284455,2284444,"sacc",8.924,2,2284433,2284466,33,349.8,457,2.64784,169.195,78.0229411764706,"NO",NA,2284467,2284684,217,"No",NA,NA,NA,NA,"Yes",NA
"190",1,79,"identical",190,"exp_1",2287845,2291000,7,"kol","identical",2288547,2290659,"676",2289955,2289961,2289953,"identical",5.692,2,2289944,2289973,29,654.6,784.9,3.21841,190.190000000001,105.921833333333,"NO",NA,2289974,2290150,176,"No",NA,NA,NA,NA,NA,NA
"191",1,74,"ben",191,"exp_1",2292847,2295844,5,"ile","ben",2293352,2295505,"630",2294342,2294349,2294340,"sacc",6.838,2,2294324,2294354,30,541.7,700.2,3.91495,254.409999999999,129.157096774193,"NO",NA,2294355,2294635,280,"No",NA,NA,NA,NA,"Yes",NA
"192",1,39,"identical",192,"exp_1",2297740,2303347,4,"kar","identical",2298758,2300582,"388",2299567,2299576,2299566,"identical",8.323,1,2299551,2299572,21,326.3,416.2,2.22053,203.775,99.5297727272727,"NO",NA,2299573,2299776,203,"Yes","LEFT","left",2414.769,1,NA,NA
"193",1,33,"identical",193,"exp_1",2305074,2308716,7,"eve","identical",2305782,2307297,"617",2306550,2306558,2306549,"identical",8.027,1,2306521,2306558,37,406,640.7,5.79709,319.865,161.084054054054,"NO",NA,2306559,2306770,211,"Yes","RIGHT","right",1067.998,1,NA,NA
"194",1,51,"identical",194,"exp_1",2310519,2313401,7,"hi?","identical",2311009,2313057,"688",2312058,2312064,2312056,"identical",5.624,2,2312038,2312072,34,576.6,771.8,4.82144,284.05,139.166857142857,"NO",NA,2312073,2312341,268,"No",NA,NA,NA,NA,NA,NA
"195",1,42,"ben",195,"exp_1",2315146,2317963,5,"ay?","ben",2316064,2317607,"413",2316762,2316769,2316760,"sacc",7.141,2,2316742,2316765,23,327.6,426.3,2.43789,213.654999999999,100.498125,"NO",NA,2316766,2317041,275,"No",NA,NA,NA,NA,"Yes",NA
"196",1,61,"identical",196,"exp_1",2319674,2322239,3,"k?f","identical",2320165,2321898,"377",2320572,2320577,2320570,"identical",5.46,2,2320855,2320870,15,380.2,333.8,1.14608,130.91,70.3178125,"NO",NA,2321067,2321322,255,"No",NA,NA,NA,NA,NA,NA
"197",1,8,"ben",197,"exp_1",2324014,2327725,4,"ney","bir",2324657,2327383,"316",2325124,2325132,2325122,"sacc",8.364,2,2325108,2325137,29,250.4,401.5,3.73217,259.35,126.217,"NO",NA,2325138,2325515,377,"No",NA,NA,NA,NA,"Yes",NA
"198",1,81,"identical",198,"exp_1",2329488,2332785,6,"ile","identical",2330146,2332441,"618",2331269,2331276,2331267,"identical",7.388,2,2331254,2331284,30,572.1,722.5,3.71488,276.64,123.699193548387,"NO",NA,2331285,2331487,202,"No",NA,NA,NA,NA,NA,NA
"199",1,22,"ben",199,"exp_1",2335310,2339446,7,"ge?","bir",2336737,2339090,"593",2337859,2337867,2337856,"sacc",7.914,3,2337844,2337872,28,546.8,664.1,2.89731,211.185,99.6091379310345,"NO",NA,2337873,2338112,239,"No",NA,NA,NA,NA,"Yes",NA
"200",1,5,"identical",200,"exp_1",2341201,2344074,6,"bo?","identical",2341692,2343735,"604",2342631,2342639,2342629,"identical",7.757,2,2342619,2342660,41,576.8,718.6,3.50246,167.96,83.5095238095238,"NO",NA,2342661,2342897,236,"No",NA,NA,NA,NA,NA,NA
"201",1,78,"ben",201,"exp_1",2345760,2348049,5,"g?n","ben",2346260,2347708,"473",2347001,2347010,2346999,"sacc",9.24,2,2346983,2347016,33,370.2,555.6,4.57938,323.57,134.832941176471,"NO",NA,2347017,2347228,211,"No",NA,NA,NA,NA,"Yes",NA
"202",1,26,"ben",202,"exp_1",2349756,2352160,4,"iyi","bir",2350306,2351817,"352",2350797,2350806,2350796,"sacc",8.943,1,2350779,2350818,39,247.4,425.2,4.39166,326.04,147.5825,"NO",NA,2350819,2351085,266,"No",NA,NA,NA,NA,"Yes",NA
"203",1,47,"identical",203,"exp_1",2353894,2358163,7,"yan","identical",2354335,2356443,"557",2355321,2355328,2355319,"identical",6.569,2,2355300,2355329,29,449.1,588.1,3.4333,259.35,119.795,"NO",NA,2355330,2355593,263,"Yes","RIGHT","right",1370.962,1,NA,NA
"204",1,38,"ben",204,"exp_1",2359992,2364390,7,"i?e","bir",2360437,2362354,"641",2361323,2361330,2361321,"sacc",6.834,2,2361305,2361335,30,558.3,709.7,3.73958,249.470000000001,121.627580645161,"NO",NA,2361336,2361598,262,"Yes","LEFT","left",1685.587,1,"Yes",NA
"205",1,66,"ben",205,"exp_1",2366175,2370010,6,"hi?","ben",2366998,2369670,"617",2367984,2367991,2367981,"sacc",7.329,3,2367962,2367996,34,515.1,658.9,3.55186,228.475,102.540285714286,"NO",NA,2367997,2368270,273,"No",NA,NA,NA,NA,"Yes",NA
"206",1,20,"ben",206,"exp_1",2371755,2374453,4,"tuz","bir",2372263,2374115,"364",2372911,2372918,2372909,"sacc",6.441,2,2372890,2372914,24,280.7,372.7,2.2724,190.19,92.2792,"NO",NA,2372915,2373064,149,"No",NA,NA,NA,NA,"Yes",NA
"207",1,7,"identical",207,"exp_1",2376212,2380039,6,"a?k","identical",2377644,2379703,"449",2378480,2378486,2378478,"identical",6.122,2,2378464,2378486,22,383.9,485.1,2.49964,212.420000000001,110.139545454545,"NO",NA,2378487,2378843,356,"No",NA,NA,NA,NA,NA,NA
"208",1,14,"ben",208,"exp_1",2382222,2385642,5,"?am","bir",2382716,2385302,"545",2383502,2383508,2383500,"sacc",6.234,2,2383487,2383518,31,491.8,652,3.95694,319.865000000001,128.285625,"NO",NA,2383519,2383783,264,"No",NA,NA,NA,NA,"Yes",NA
"209",1,9,"identical",209,"exp_1",2387349,2393528,5,"ku?","identical",2388505,2390175,"436",2389219,2389227,2389217,"identical",7.737,2,2389201,2389240,39,345.1,472.1,3.1369,333.45,110.162,"NO",NA,2389241,2389567,326,"Yes","LEFT","right",3004.142,0,NA,NA
"210",1,1,"identical",210,"exp_1",2395249,2400330,6,"ile","identical",2395713,2397816,"484",2396643,2396652,2396641,"identical",8.449,2,2396626,2396654,28,406.7,548.5,3.50246,245.765,120.178275862069,"NO",NA,2396655,2396840,185,"Yes","LEFT","left",2171.596,1,NA,NA
"211",1,15,"identical",211,"exp_1",2402106,2407659,4,"mal","identical",2402596,2405396,"387",2403680,2403688,2403678,"identical",8.237,2,2403665,2403690,25,324.9,442.6,2.90719,265.525,113.0975,"NO",NA,2403691,2403933,242,"Yes","LEFT","left",1913.722,1,NA,NA
"212",1,2,"ben",212,"exp_1",2411395,2414537,6,"bol","bir",2412027,2414195,"567",2413098,2413107,2413096,"sacc",8.841,2,2413085,2413113,28,530.5,682.6,3.75687,282.815,130.441551724138,"NO",NA,2413114,2413372,258,"No",NA,NA,NA,NA,"Yes",NA
"213",1,49,"identical",213,"exp_1",2416152,2419865,5,"top","identical",2416456,2418078,"495",2417219,2417228,2417217,"identical",9.1,2,2417200,2417234,34,367.3,581.5,5.29074,379.145,154.939571428571,"NO",NA,2417235,2417493,258,"Yes","RIGHT","right",1439.114,1,NA,NA
"214",1,77,"identical",214,"exp_1",2421510,2425150,5,"gri","identical",2421992,2423701,"436",2422906,2422913,2422905,"identical",7.354,1,2422901,2422923,22,433,529.7,2.38849,203.775,102.558695652174,"NO",NA,2422924,2423099,175,"Yes","RIGHT","right",1097.211,1,NA,NA
"215",1,28,"ben",215,"exp_1",2426921,2432486,8,"iri","bir",2428002,2430407,"581",2429143,2429158,2429141,"sacc",14.739,2,2429131,2429166,35,554.3,666.5,2.77134,170.429999999999,77.0845833333333,"NO",NA,2429167,2429383,216,"Yes","RIGHT","left",1731.221,0,"Yes",NA
"216",1,29,"identical",216,"exp_1",2434245,2437680,6,"kez","identical",2435139,2437345,"568",2436408,2436416,2436406,"identical",7.469,2,2436399,2436434,35,551.7,647.5,2.36626,149.435,65.5236111111111,"NO",NA,2436435,2436686,251,"No",NA,NA,NA,NA,NA,NA
"217",1,67,"identical",217,"exp_1",2439529,2446185,6,"ama","identical",2443060,2445839,"522",2444802,2444808,2444800,"identical",5.897,2,2444780,2444809,29,368.8,550,4.47564,321.1,155.445333333333,"NO",NA,2444810,2445059,249,"No",NA,NA,NA,NA,NA,NA
"218",1,3,"identical",218,"exp_1",2448108,2451170,5,"nar","identical",2448971,2450831,"400",2449698,2449705,2449696,"identical",6.894,2,2449684,2449708,24,353.3,464.8,2.75405,235.885,111.5452,"NO",NA,2449709,2450087,378,"No",NA,NA,NA,NA,NA,NA
"219",1,54,"ben",219,"exp_1",2453048,2456822,7,"?t?","ben",2453584,2456484,"654",2454677,2454685,2454675,"sacc",8.206,2,2454658,2454681,23,580.5,683.4,2.54163,182.779999999999,105.232291666667,"NO",NA,2454682,2454959,277,"No",NA,NA,NA,NA,"Yes",NA
"220",1,37,"identical",220,"exp_1",2458606,2461124,4,"fes","identical",2459449,2460781,"449",2460238,2460246,2460236,"identical",7.57,2,2460219,2460248,29,362.9,494.3,3.24558,207.48,111.685166666667,"NO",NA,2460249,2460449,200,"No",NA,NA,NA,NA,NA,NA
"221",1,35,"identical",221,"exp_1",2462964,2465650,6,"eve","identical",2463570,2465307,"544",2464334,2464342,2464333,"identical",7.582,1,2464543,2464571,28,547.6,670.1,3.02575,219.830000000001,103.952931034483,"NO",NA,2464328,2464542,214,"No",NA,NA,NA,NA,NA,NA
"222",1,70,"ben",222,"exp_1",2467316,2470860,6,"iyi","ben",2468200,2470524,"545",2469150,2469159,2469148,"sacc",9.275,2,2469135,2469174,39,495.2,621.1,3.10973,250.704999999999,83.825625,"NO",NA,2469175,2469387,212,"No",NA,NA,NA,NA,"Yes",NA
"223",1,59,"identical",223,"exp_1",2475642,2481075,5,"?ok","identical",2476672,2478976,"448",2477263,2477272,2477261,"identical",9.239,2,2477229,2477267,38,279,449.9,4.22123,232.18,112.955,"NO",NA,2477544,2477748,204,"Yes","RIGHT","right",1753.706,1,NA,NA
"224",1,21,"identical",224,"exp_1",2482705,2486468,3,"dut","identical",2483709,2484849,"305",2484323,2484330,2484320,"identical",7.437,3,2484305,2484329,24,226.5,330.8,2.57621,228.475,102.752,"NO",NA,2484330,2484500,170,"Yes","LEFT","left",1273.456,1,NA,NA
"225",1,12,"ben",225,"exp_1",2488560,2493546,3,"caz","bir",2489969,2492318,"245",2490402,2490407,2490399,"sacc",5.328,3,2490389,2490414,25,218.5,331.1,2.78122,261.82,107.255,"NO",NA,2490415,2490668,253,"Yes","LEFT","left",876.07,1,"Yes",NA
"226",1,80,"ben",226,"exp_1",2495337,2500357,5,"hep","ben",2496723,2498716,"389",2497337,2497344,2497335,"sacc",7.17,2,2497306,2497343,37,285.6,402.7,2.89237,239.59,80.6975,"NO",NA,2497344,2497572,228,"Yes","LEFT","left",1286.531,1,"Yes",NA
"227",1,76,"ben",227,"exp_1",2502655,2506235,7,"ruj","ben",2503254,2505891,"654",2504278,2504285,2504276,"fix",6.687,2,2504612,2504637,25,672.8,770.6,2.41566,175.370000000001,95.9974999999999,"NO",NA,2504276,2504611,335,"No",NA,NA,NA,NA,"Yes",NA
"228",1,64,"ben",228,"exp_1",2508081,2512321,7,"iyi","ben",2509090,2511983,"665",2510112,2510120,2510110,"sacc",8.41,2,2510092,2510121,29,556.3,708.3,3.7544,311.219999999999,129.716166666667,"NO",NA,2510122,2510384,262,"No",NA,NA,NA,NA,"Yes",NA
"229",1,75,"identical",229,"exp_1",2514079,2517423,6,"?ok","identical",2514967,2517079,"508",2515701,2515710,2515700,"identical",8.81,1,2515690,2515711,21,476.6,559,2.03528,206.245000000001,93.2986363636364,"NO",NA,2515712,2515902,190,"No",NA,NA,NA,NA,NA,NA
"230",1,63,"identical",230,"exp_1",2519238,2522509,9,"k?z","identical",2520069,2522170,"664",2521318,2521324,2521316,"identical",6.156,2,2521299,2521324,25,576,692.9,2.88743,238.355000000001,116.9792,"NO",NA,2521325,2521490,165,"No",NA,NA,NA,NA,NA,NA
"231",1,50,"ben",231,"exp_1",2524401,2527277,8,"hep","ben",2524707,2526940,"761",2525824,2525834,2525822,"sacc",9.21,2,2525795,2525836,41,647.9,803.9,3.8532,217.36,91.8016666666667,"NO",NA,2525837,2526054,217,"No",NA,NA,NA,NA,"Yes",NA
"232",1,19,"identical",232,"exp_1",2529054,2532621,4,"i?i","identical",2529517,2532285,"544",2530291,2530301,2530289,"identical",9.576,2,2530274,2530300,26,456.1,606,3.70253,326.04,145.821481481481,"NO",NA,2530301,2530530,229,"No",NA,NA,NA,NA,NA,NA
"233",1,71,"identical",233,"exp_1",2536504,2539808,5,"iyi","identical",2537258,2539460,"450",2538016,2538021,2538014,"identical",5.367,2,2538001,2538026,25,392.1,509.8,2.90719,251.94,111.15,"NO",NA,2538027,2538395,368,"No",NA,NA,NA,NA,NA,NA
"234",1,4,"ben",234,"exp_1",2541640,2544757,6,"???","bir",2541947,2544421,"461",2542566,2542572,2542564,"sacc",6.292,2,2542547,2542575,28,368.7,500.7,3.2604,256.88,117.750862068966,"NO",NA,2542576,2543133,557,"No",NA,NA,NA,NA,"Yes",NA
"235",1,13,"identical",235,"exp_1",2548446,2551360,7,"kar","identical",2548950,2551025,"532",2549856,2549864,2549854,"identical",7.541,2,2549840,2549864,24,478.2,586.5,2.67501,218.594999999999,111.870416666667,"NO",NA,2549865,2550164,299,"No",NA,NA,NA,NA,NA,NA
"236",1,60,"ben",236,"exp_1",2553110,2557581,4,"ac?","ben",2553472,2555671,"448",2554182,2554189,2554180,"sacc",7.168,2,2554168,2554191,23,404.4,506.4,2.5194,245.765,107.599375,"NO",NA,2554192,2554480,288,"Yes","LEFT","left",1558.197,1,"Yes",NA
"237",1,45,"identical",237,"exp_1",2559436,2564242,8,"s?t","identical",2559950,2562646,"651",2561029,2561038,2561027,"identical",9.2,2,2561010,2561036,26,564.7,682.8,2.91707,232.179999999999,108.314074074074,"NO",NA,2561037,2561205,168,"Yes","RIGHT","right",1249.164,1,NA,NA
"238",1,30,"ben",238,"exp_1",2566421,2570918,6,"yol","bir",2566728,2568787,"592",2567674,2567683,2567672,"sacc",8.798,2,2567661,2567694,33,558.6,714.2,3.84332,254.409999999999,112.929852941176,"NO",NA,2567695,2567916,221,"Yes","LEFT","left",1785.837,1,"Yes",NA
"239",1,17,"identical",239,"exp_1",2572677,2575629,3,"kar","identical",2573143,2575294,"303",2573782,2573790,2573780,"identical",7.424,2,2573760,2573803,43,120.2,334.2,5.2858,474.24,179.38375,"NO",NA,2573804,2574048,244,"No",NA,NA,NA,NA,NA,NA
"240",1,11,"identical",240,"exp_1",2577414,2584682,8,"?il","identical",2578899,2581135,"676",2579985,2579992,2579983,"identical",6.842,2,2579964,2580009,45,564.1,718.4,3.81121,245.765,107.122826086957,"NO",NA,2580010,2580257,247,"Yes","LEFT","left",3201.376,1,NA,NA
"241",1,65,"identical",241,"exp_1",2586470,2589801,6,"eve","identical",2587042,2589468,"604",2588121,2588130,2588119,"identical",9.007,2,2588103,2588134,31,506.2,671.5,4.08291,290.225,127.205,"NO",NA,2588135,2588369,234,"No",NA,NA,NA,NA,NA,NA
"242",1,27,"identical",242,"exp_1",2591527,2594822,6,"ile","identical",2591876,2594477,"496",2592846,2592852,2592845,"identical",5.809,1,2592832,2592857,25,458.1,551.1,2.2971,182.78,88.1125,"NO",NA,2592858,2592988,130,"No",NA,NA,NA,NA,NA,NA
"243",1,48,"ben",243,"exp_1",2596879,2601249,5,"ta?","ben",2598800,2600906,"521",2599739,2599747,2599737,"sacc",7.947,2,2599719,2599746,27,419.7,551.8,3.26287,251.94,118.030714285714,"NO",NA,2599747,2599951,204,"No",NA,NA,NA,NA,"Yes",NA
"244",1,68,"ben",244,"exp_1",2603106,2606035,8,"onu","ben",2603614,2605695,"712",2604881,2604890,2604879,"sacc",8.822,2,2604862,2604903,41,606.2,753.7,3.64325,281.580000000001,111.679285714286,"NO",NA,2604904,2605092,188,"No",NA,NA,NA,NA,"Yes",NA
"245",1,31,"identical",245,"exp_1",2607795,2610954,4,"kar","identical",2608961,2610615,"377",2609464,2609470,2609462,"identical",5.758,2,2609444,2609473,29,247.4,421.8,4.30768,377.91,145.441833333333,"NO",NA,2609474,2609674,200,"No",NA,NA,NA,NA,NA,NA
"246",1,53,"identical",246,"exp_1",2613192,2616115,6,"ile","identical",2613712,2615774,"508",2614414,2614421,2614411,"identical",7.071,3,2614388,2614434,46,384,531,3.6309,249.47,105.631914893617,"NO",NA,2614435,2614714,279,"No",NA,NA,NA,NA,NA,NA
"247",1,36,"ben",247,"exp_1",2617912,2621133,7,"?ok","bir",2618847,2620791,"591",2619715,2619723,2619713,"sacc",7.58,2,2619699,2619726,27,518.5,661.4,3.52963,274.170000000001,125.925892857143,"NO",NA,2619727,2619979,252,"No",NA,NA,NA,NA,"Yes",NA
"248",1,40,"ben",248,"exp_1",2623221,2626352,6,"t?m","bir",2623690,2626011,"604",2625068,2625074,2625066,"sacc",6.385,2,2625053,2625084,31,554.2,693.2,3.4333,255.644999999999,115.318125,"NO",NA,2625085,2625328,243,"No",NA,NA,NA,NA,"Yes",NA
"249",1,62,"ben",249,"exp_1",2628030,2632696,4,"kot","ben",2629492,2632355,"413",2630146,2630155,2630144,"sacc",8.729,2,2630127,2630154,27,308.4,459.5,3.73217,291.46,131.792142857143,"NO",NA,2630155,2630429,274,"No",NA,NA,NA,NA,"Yes",NA
"250",1,34,"ben",250,"exp_1",2634578,2637722,8,"g?l","bir",2635048,2637385,"617",2636081,2636090,2636079,"sacc",9.369,2,2636064,2636105,41,544.1,703.9,3.94706,287.755000000001,125.734761904762,"NO",NA,2636106,2636418,312,"No",NA,NA,NA,NA,"Yes",NA
"251",1,73,"identical",251,"exp_1",2639585,2645900,9,"hak","identical",2639895,2642577,"844",2641476,2641484,2641474,"identical",7.675,2,2641466,2641503,37,830.6,957.7,3.13937,184.015,84.0125,"NO",NA,2641504,2641699,195,"Yes","LEFT","left",2977.526,1,NA,NA
"252",1,46,"ben",252,"exp_1",2647678,2650129,4,"?ok","ben",2648029,2649784,"268",2648494,2648500,2648492,"sacc",5.624,2,2648478,2648502,24,200.5,322.2,3.00599,260.585,120.042,"NO",NA,2648503,2648736,233,"No",NA,NA,NA,NA,"Yes",NA
"253",1,52,"ben",253,"exp_1",2652596,2661140,7,"mum","ben",2654873,2658322,"594",2656133,2656141,2656131,"sacc",8.386,2,2656113,2656142,29,486.6,625.5,3.43083,286.519999999999,117.283833333333,"NO",NA,2656143,2656297,154,"Yes","LEFT","left",2473.698,1,"Yes",NA
"254",1,10,"ben",254,"exp_1",2663029,2669004,5,"bot","bir",2663971,2666285,"483",2664550,2664559,2664548,"sacc",8.861,2,2664520,2664563,43,284.3,459.3,4.3225,391.495,130.460909090909,"NO",NA,2664833,2665044,211,"Yes","LEFT","left",2368.161,1,"Yes","yes"
"255",1,23,"identical",255,"exp_1",2671286,2675923,6,"kez","identical",2673106,2675576,"642",2674278,2674286,2674276,"identical",8.025,2,2674262,2674286,24,590,694.1,2.57127,180.31,102.81375,"NO",NA,2674287,2674591,304,"No",NA,NA,NA,NA,NA,NA
"256",1,24,"ben",256,"exp_1",2677981,2681426,7,"eko","bir",2678699,2681086,"653",2680275,2680284,2680273,"sacc",9.335,2,2680252,2680279,27,512.6,653,3.46788,284.05,134.703214285714,"NO",NA,2680544,2680673,129,"No",NA,NA,NA,NA,"Yes",NA
"257",2,10,"identical",1,"practice",743090,748669,5,"ta?","identical",745453,748350,"472",747357,747364,747355,"identical",6.577,2,747345,747365,20,445.3,524.2,1.94883,190.19,91.9780952380953,"NO",NA,747366,747734,368,"No",NA,NA,NA,NA,NA,NA
"258",2,2,"identical",2,"practice",755441,769621,6,"aya","identical",758630,763859,"759",760613,760620,760611,"identical",6.36,2,760590,760624,34,669,809,3.458,207.480000000001,99.9291428571429,"NO",NA,760625,760963,338,"Yes","LEFT","left",5457.444,1,NA,NA
"259",2,1,"ben",3,"practice",771394,779045,6,"ak?","bir",773087,778744,"582",774970,774977,774967,"sacc",6.936,3,774952,774978,26,522.2,620.5,2.42801,197.6,89.6061111111111,"NO",NA,774979,775162,183,"No",NA,NA,NA,NA,"Yes",NA
"260",2,3,"ben",4,"practice",780759,787145,3,"hi?","bir",781647,786846,"341",782351,782360,782348,"sacc",8.943,3,782332,782354,22,273.6,354.4,1.99576,166.725,85.805652173913,"NO",NA,782355,782612,257,"No",NA,NA,NA,NA,"Yes",NA
"261",2,9,"ben",5,"practice",789116,801468,7,"?ok","ben",790878,797614,"605",793001,793009,792999,"sacc",8.044,2,792983,793014,31,537.7,646.9,2.69724,209.95,83.78703125,"NO",NA,793015,793269,254,"Yes","RIGHT","right",3545.165,1,"Yes",NA
"262",2,4,"identical",6,"practice",806066,812917,5,"eve","identical",807642,812611,"472",808930,808939,808928,"identical",8.74,2,809206,809228,22,470.8,552.1,2.00811,175.369999999999,86.3426086956522,"NO",NA,808928,809205,277,"No",NA,NA,NA,NA,NA,NA
"263",2,6,"identical",7,"practice",814685,823160,7,"g?l","identical",817899,821338,"546",819940,819947,819938,"identical",6.609,2,819931,819954,23,533.1,623.4,2.23041,179.075,90.9783333333333,"NO",NA,819955,820135,180,"Yes","RIGHT","right",1515.136,1,NA,NA
"264",2,8,"identical",8,"practice",825183,832631,9,"ara","identical",827125,832326,"820",829377,829386,829375,"identical",8.979,2,829360,829386,26,759.7,873,2.79851,191.425,103.645,"NO",NA,829387,829719,332,"No",NA,NA,NA,NA,NA,NA
"265",2,7,"ben",9,"practice",834467,841859,4,"kez","ben",837774,841561,"424",838760,838767,838759,"sacc",6.932,1,838739,838769,30,340.7,455.6,2.83803,192.66,90.8720967741936,"NO",NA,838770,839172,402,"No",NA,NA,NA,NA,"Yes",NA
"266",2,5,"ben",10,"practice",843983,855081,5,"i?e","bir",848915,854780,"460",850535,850542,850533,"sacc",7.167,2,850514,850536,22,379.2,470.3,2.25017,172.9,96.6521739130435,"NO",NA,850537,851046,509,"No",NA,NA,NA,NA,"Yes",NA
"267",2,163,"ben",11,"exp_3",863085,870719,7,"?ok","bir",865400,870393,"532",867402,867411,867400,"sacc",8.543,2,867382,867414,32,447.6,581.2,3.29992,238.355,100.072424242424,"NO",NA,867415,867642,227,"No",NA,NA,NA,NA,"Yes",NA
"268",2,201,"ben",12,"exp_3",872626,880796,7,"cam","bir",873880,880484,"569",875522,875527,875520,"sacc",5.408,2,875512,875530,18,552.8,610.2,1.41778,153.14,73.4500000000001,"NO",NA,875531,875756,225,"No",NA,NA,NA,NA,"Yes",NA
"269",2,193,"ben",13,"exp_3",882512,892052,7,"top","bir",884062,891743,"591",885995,886002,885993,"sacc",6.57,2,885977,886005,28,512.8,635.6,3.03316,237.119999999999,104.506551724138,"NO",NA,886006,886185,179,"No",NA,NA,NA,NA,"Yes",NA
"270",2,212,"identical",14,"exp_3",893959,901930,5,"g?n","identical",896609,901623,"424",898285,898294,898283,"identical",8.839,2,898269,898301,32,364.8,496.9,3.26287,180.31,98.6877272727272,"NO",NA,898302,898639,337,"No",NA,NA,NA,NA,NA,NA
"271",2,237,"ben",15,"exp_3",903606,908881,3,"tu?","ben",905760,908571,"352",906427,906436,906426,"sacc",9.146,1,906410,906440,30,277.9,392.7,2.83556,201.305,91.39,"NO",NA,906441,906674,233,"No",NA,NA,NA,NA,"Yes",NA
"272",2,244,"identical",16,"exp_3",910861,918678,7,"du?","identical",913974,918350,"618",915523,915529,915521,"identical",5.915,2,915513,915533,20,595.5,670.8,1.85991,182.780000000001,87.4497619047619,"NO",NA,915534,915687,153,"No",NA,NA,NA,NA,NA,NA
"273",2,177,"ben",17,"exp_3",920221,925448,3,"sis","bir",922166,925141,"245",922730,922737,922729,"sacc",7.076,1,922713,922734,21,177,262,2.0995,180.31,94.7581818181818,"NO",NA,922735,922936,201,"No",NA,NA,NA,NA,"Yes",NA
"274",2,242,"identical",18,"exp_3",927155,932401,6,"?ok","identical",928531,932090,"665",930184,930191,930182,"identical",6.909,2,930169,930192,23,609.4,725.5,2.86767,265.525,118.971666666667,"NO",NA,930193,930505,312,"No",NA,NA,NA,NA,NA,NA
"275",2,241,"ben",19,"exp_3",934122,938546,4,"ucu","ben",935439,938230,"389",936195,936202,936193,"fix",6.658,2,936455,936474,19,397.2,469.9,1.79569,175.370000000001,89.10525,"NO",NA,936195,936454,259,"No",NA,NA,NA,NA,"Yes",NA
"276",2,198,"identical",20,"exp_3",940215,946640,5,"bo?","identical",943764,946331,"388",945113,945147,945111,"identical",33.257,2,945096,945116,20,332.4,399.7,1.66231,169.195,78.2754761904762,"NO",NA,945117,945297,180,"No",NA,NA,NA,NA,NA,NA
"277",2,225,"ben",21,"exp_3",948523,956716,9,"s?t","ben",949295,956405,"762",952020,952027,952018,"fix",7.329,2,952176,952192,16,759.4,804.1,1.10409,107.445000000001,63.2755882352941,"NO",NA,952193,952362,169,"No",NA,NA,NA,NA,"Yes",NA
"278",2,219,"ben",22,"exp_3",958581,967254,6,"hi?","ben",959894,963696,"497",961491,961500,961488,"sacc",8.87,3,961472,961502,30,413.8,549,3.33944,245.765,107.086451612903,"NO",NA,961503,961670,167,"Yes","RIGHT","right",3211.531,1,"Yes",NA
"279",2,218,"identical",23,"exp_3",969111,981430,6,"iyi","identical",971790,975875,"521",973445,973455,973443,"identical",9.513,2,973432,973454,22,488.3,577,2.19089,230.944999999999,94.8802173913043,"NO",NA,973455,973618,163,"Yes","RIGHT","right",5233.897,1,NA,NA
"280",2,206,"identical",24,"exp_3",983240,988425,5,"g?n","identical",984433,988116,"399",985970,985977,985969,"identical",6.511,1,985960,985978,18,375.2,432.4,1.41284,132.145,73.515,"NO",NA,985979,986154,175,"No",NA,NA,NA,NA,NA,NA
"281",2,199,"ben",25,"exp_3",990137,1004444,7,"t?y","bir",995625,1000665,"594",997696,997702,997695,"sacc",5.516,1,997680,997703,23,525.1,622.7,2.41072,219.829999999999,99.1602083333334,"NO",NA,997704,997954,250,"Yes","RIGHT","right",3464.206,1,"Yes",NA
"282",2,174,"identical",26,"exp_3",1006347,1013794,4,"eti","identical",1007523,1010650,"400",1008458,1008468,1008457,"identical",9.575,1,1008624,1008643,19,402.7,340.8,1.52893,135.85,75.335,"NO",NA,1008457,1008623,166,"Yes","RIGHT","right",2823.912,1,NA,NA
"283",2,185,"ben",27,"exp_3",1015772,1022086,6,"tuz","bir",1017219,1021774,"592",1018775,1018783,1018773,"sacc",7.989,2,1018752,1018776,24,481.9,604.8,3.03563,266.76,119.6962,"NO",NA,1018777,1019144,367,"No",NA,NA,NA,NA,"Yes",NA
"284",2,236,"identical",28,"exp_3",1023895,1031017,7,"top","identical",1025082,1028598,"605",1026946,1026954,1026945,"identical",8.239,1,1026923,1026950,27,475,618.6,3.54692,255.644999999999,126.102321428571,"NO",NA,1026951,1027244,293,"Yes","LEFT","left",2102.059,1,NA,NA
"285",2,246,"identical",29,"exp_3",1033078,1037391,7,"pek","identical",1033587,1037080,"700",1035164,1035172,1035161,"identical",7.604,3,1035146,1035175,29,645.7,762,2.87261,175.370000000001,98.0178333333334,"NO",NA,1035176,1035360,184,"No",NA,NA,NA,NA,NA,NA
"286",2,164,"identical",30,"exp_3",1039137,1044273,6,"ge?","identical",1041512,1043965,"497",1042735,1042742,1042733,"identical",7.261,2,1042715,1042751,36,396.8,583.4,4.60902,295.165,124.668243243243,"NO",NA,1042752,1042968,216,"No",NA,NA,NA,NA,NA,NA
"287",2,170,"identical",31,"exp_3",1046194,1051985,4,"saf","identical",1047489,1051680,"495",1048349,1048357,1048347,"identical",7.64,2,1048322,1048351,29,409.4,498.5,2.20077,177.84,73.0708333333334,"NO",NA,1048536,1048689,153,"No",NA,NA,NA,NA,NA,NA
"288",2,227,"ben",32,"exp_3",1053791,1060413,9,"ge?","ben",1054926,1060092,"688",1057412,1057421,1057411,"fix",8.673,1,1057637,1057659,22,682.4,745.8,1.56598,140.79,66.3678260869565,"NO",NA,1057660,1057836,176,"No",NA,NA,NA,NA,"Yes",NA
"289",2,232,"identical",33,"exp_3",1062056,1068713,4,"gri","identical",1063798,1068404,"414",1064997,1065004,1064994,"identical",6.842,3,1064982,1065003,21,367.3,450.9,2.06492,172.9,93.2986363636364,"NO",NA,1065004,1065332,328,"No",NA,NA,NA,NA,NA,NA
"290",2,233,"ben",34,"exp_3",1070526,1076712,7,"zor","ben",1072182,1076400,"581",1073855,1073886,1073853,"sacc",30.926,2,1073835,1073859,24,486.9,595.5,2.68242,251.94,107.5438,"NO",NA,1073860,1074207,347,"No",NA,NA,NA,NA,"Yes",NA
"291",2,215,"ben",35,"exp_3",1078962,1084182,6,"iri","ben",1080471,1083874,"509",1081613,1081622,1081611,"sacc",8.918,2,1081598,1081622,24,454.1,567.1,2.7911,228.475,111.047083333333,"NO",NA,1081623,1081801,178,"No",NA,NA,NA,NA,"Yes",NA
"292",2,220,"identical",36,"exp_3",1086047,1098951,7,"kez","identical",1093101,1098637,"642",1094996,1095003,1094994,"identical",6.973,2,1094981,1095004,23,593.2,682.5,2.20571,218.595000000001,91.1327083333333,"NO",NA,1095005,1095235,230,"No",NA,NA,NA,NA,NA,NA
"293",2,217,"ben",37,"exp_3",1100864,1108292,6,"kez","ben",1102420,1107980,"520",1104441,1104451,1104439,"sacc",9.669,2,1104423,1104445,22,448.5,541.9,2.30698,205.01,100.088695652174,"NO",NA,1104446,1104656,210,"No",NA,NA,NA,NA,"Yes",NA
"294",2,187,"ben",38,"exp_3",1110175,1122731,8,"ke?","bir",1117428,1122421,"784",1119395,1119405,1119393,"sacc",9.484,2,1119377,1119409,32,702.2,853.6,3.73958,261.819999999999,113.395454545455,"NO",NA,1119410,1119848,438,"No",NA,NA,NA,NA,"Yes",NA
"295",2,203,"ben",39,"exp_3",1124531,1132577,7,"ba?","bir",1126412,1132265,"557",1127769,1127776,1127767,"sacc",7.088,2,1127747,1127780,33,445.5,598.9,3.78898,254.41,111.367941176471,"NO",NA,1127781,1127979,198,"No",NA,NA,NA,NA,"Yes",NA
"296",2,183,"ben",40,"exp_3",1134335,1138522,4,"g?k","bir",1135758,1138215,"364",1136578,1136586,1136576,"sacc",7.617,2,1136558,1136582,24,271.4,385.1,2.80839,232.18,110.9524,"NO",NA,1136583,1136785,202,"No",NA,NA,NA,NA,"Yes",NA
"297",2,214,"identical",41,"exp_3",1140386,1147831,3,"iyi","identical",1142305,1145802,"268",1143007,1143014,1143004,"identical",6.215,3,1142991,1143011,20,218.3,288.1,1.72406,165.49,80.5102380952381,"NO",NA,1143012,1143226,214,"Yes","RIGHT","right",1686.638,1,NA,NA
"298",2,194,"identical",42,"exp_3",1149606,1159322,6,"ta?","identical",1150722,1156151,"604",1152190,1152199,1152187,"identical",8.437,3,1152165,1152199,34,494.6,644,3.69018,259.35,111.803823529412,"NO",NA,1152200,1152509,309,"Yes","RIGHT","right",2851.805,1,NA,NA
"299",2,186,"identical",43,"exp_3",1160991,1164688,5,"d?n","identical",1162218,1164375,"412",1163459,1163465,1163457,"identical",5.872,2,1163442,1163465,23,339.2,437.1,2.41813,214.89,101.162608695652,"NO",NA,1163466,1163622,156,"No",NA,NA,NA,NA,NA,NA
"300",2,216,"identical",44,"exp_3",1166498,1173795,5,"ile","identical",1168608,1173485,"438",1170685,1170694,1170684,"identical",8.384,1,1170873,1170897,24,444.7,562.7,2.9146,267.995,115.6948,"NO",NA,1170685,1170872,187,"No",NA,NA,NA,NA,NA,NA
"301",2,167,"ben",45,"exp_3",1176936,1185058,6,"bal","bir",1178777,1182126,"605",1180568,1180575,1180566,"sacc",7.045,2,1180547,1180574,27,499.7,638.1,3.41848,258.115000000001,121.559285714286,"NO",NA,1180575,1180939,364,"Yes","RIGHT","right",2613.702,1,"Yes",NA
"302",2,228,"identical",46,"exp_3",1186935,1191382,7,"ile","identical",1187533,1191070,"522",1188719,1188726,1188716,"identical",6.374,3,1188694,1188725,31,420.4,547.2,3.13196,233.415,97.410625,"NO",NA,1188726,1189037,311,"No",NA,NA,NA,NA,NA,NA
"303",2,182,"identical",47,"exp_3",1193102,1200114,3,"?i?","identical",1195808,1197731,"353",1196456,1196463,1196454,"identical",7.053,2,1196428,1196460,32,232.4,366.3,3.30733,217.36,100.109848484848,"NO",NA,1196461,1196701,240,"Yes","RIGHT","right",2043.654,1,NA,NA
"304",2,226,"identical",48,"exp_3",1202106,1209317,6,"zor","identical",1202636,1206873,"616",1204160,1204167,1204158,"identical",7.234,2,1204345,1204367,22,609.1,693.4,2.08221,172.9,90.155,"NO",NA,1204368,1204808,440,"Yes","LEFT","left",2117.872,1,NA,NA
"305",2,195,"ben",49,"exp_3",1211525,1220064,7,"tas","bir",1213156,1219745,"496",1215776,1215784,1215774,"sacc",8.077,2,1215762,1215784,22,459,537.5,1.93895,202.54,88.8638636363636,"NO",NA,1215785,1216074,289,"No",NA,NA,NA,NA,"Yes",NA
"306",2,234,"identical",50,"exp_3",1223889,1228976,6,"ile","identical",1225153,1228658,"582",1226507,1226517,1226505,"identical",9.541,2,1226482,1226514,32,450.4,606,3.84332,291.459999999999,116.277121212121,"NO",NA,1226515,1226848,333,"No",NA,NA,NA,NA,NA,NA
"307",2,165,"ben",51,"exp_3",1230852,1235603,8,"g?k","bir",1231714,1235288,"532",1233388,1233395,1233386,"sacc",6.824,2,1233374,1233396,22,490.2,577.7,2.16125,195.129999999999,92.034347826087,"NO",NA,1233397,1233687,290,"No",NA,NA,NA,NA,"Yes",NA
"308",2,180,"identical",52,"exp_3",1237423,1243924,6,"pil","identical",1237929,1241470,"497",1239663,1239673,1239661,"identical",9.446,2,1239652,1239675,23,478,570.5,2.28475,238.355000000001,95.249375,"NO",NA,1239676,1239979,303,"Yes","RIGHT","right",2127.546,1,NA,NA
"309",2,166,"identical",53,"exp_3",1245872,1250708,8,"?n?","identical",1246730,1250397,"521",1248096,1248102,1248094,"identical",6.353,2,1248079,1248108,29,444.5,568.6,3.06527,250.704999999999,101.969833333333,"NO",NA,1248109,1248291,182,"No",NA,NA,NA,NA,NA,NA
"310",2,223,"ben",54,"exp_3",1252510,1259263,6,"d??","ben",1253016,1257134,"388",1254036,1254042,1254034,"sacc",6.123,2,1254024,1254041,17,360.1,412.7,1.29922,128.44,70.7380555555555,"NO",NA,1254042,1254228,186,"Yes","RIGHT","right",1803.228,1,"Yes",NA
"311",2,243,"ben",55,"exp_3",1261099,1269618,6,"zor","ben",1261609,1269276,"555",1263659,1263665,1263656,"sacc",5.879,3,1263643,1263665,22,494,592.5,2.43295,244.530000000001,110.307954545455,"NO",NA,1263666,1264163,497,"No",NA,NA,NA,NA,"Yes",NA
"312",2,248,"identical",56,"exp_3",1271436,1276379,5,"dar","identical",1272033,1274364,"520",1272880,1272888,1272878,"identical",7.533,2,1272856,1272882,26,409.4,529.9,2.97635,230.945,109.869259259259,"NO",NA,1272883,1273220,337,"Yes","RIGHT","right",1686.681,1,NA,NA
"313",2,213,"ben",57,"exp_3",1278187,1283874,4,"kez","ben",1278702,1283555,"401",1279697,1279703,1279695,"fix",6.143,2,1279980,1279989,9,399.5,416.9,0.429779999999999,67.925,38.779,"NO",NA,1279990,1280116,126,"No",NA,NA,NA,NA,"Yes",NA
"314",2,245,"ben",58,"exp_3",1285710,1291044,6,"ipi","ben",1286703,1290724,"676",1288167,1288175,1288166,"sacc",8.004,1,1288152,1288182,30,617.6,749.1,3.24805,227.24,104.098548387097,"NO",NA,1288183,1288461,278,"No",NA,NA,NA,NA,"Yes",NA
"315",2,202,"identical",59,"exp_3",1292812,1296719,4,"ela","identical",1293306,1296406,"340",1294063,1294069,1294062,"identical",5.845,1,1294048,1294067,19,293.4,351.9,1.44495,156.845,72.865,"NO",NA,1294068,1294258,190,"No",NA,NA,NA,NA,NA,NA
"316",2,171,"ben",60,"exp_3",1298573,1303091,6,"fal","bir",1299279,1302772,"448",1300211,1300217,1300209,"sacc",5.98,2,1300182,1300217,35,289.2,470.7,4.48305,302.575,128.651714285714,"NO",NA,1300218,1300368,150,"No",NA,NA,NA,NA,"Yes",NA
"317",2,196,"identical",61,"exp_3",1304872,1308984,6,"has","identical",1305398,1308666,"424",1306998,1307004,1306995,"identical",5.549,3,1307282,1307302,20,437.1,500.3,1.56104,140.79,74.5704761904762,"NO",NA,1306999,1307281,282,"No",NA,NA,NA,NA,NA,NA
"318",2,192,"identical",62,"exp_3",1311416,1320156,6,"kel","identical",1316831,1319841,"567",1318559,1318566,1318557,"identical",7.266,2,1318543,1318567,24,520.5,613.9,2.30698,193.895000000001,93.6624000000001,"NO",NA,1318568,1318827,259,"No",NA,NA,NA,NA,NA,NA
"319",2,209,"ben",63,"exp_3",1322023,1333245,5,"iyi","ben",1325445,1330817,"555",1326733,1326742,1326731,"sacc",8.779,2,1326717,1326742,25,488.6,607.4,2.93436,229.709999999999,115.8924,"NO",NA,1326743,1327040,297,"Yes","RIGHT","right",2098.943,1,"Yes",NA
"320",2,190,"identical",64,"exp_3",1335073,1351820,6,"s?t","identical",1344253,1351508,"556",1346523,1346530,1346521,"identical",6.928,2,1346506,1346529,23,490.4,584.5,2.32427,227.24,96.4329166666667,"NO",NA,1346530,1346683,153,"No",NA,NA,NA,NA,NA,NA
"321",2,222,"identical",65,"exp_3",1353635,1359073,7,"not","identical",1354422,1358739,"617",1356147,1356153,1356145,"identical",5.797,2,1356131,1356151,20,566.8,636.1,1.71171,159.315000000001,80.5102380952382,"NO",NA,1356152,1356382,230,"No",NA,NA,NA,NA,NA,NA
"322",2,247,"ben",66,"exp_3",1360825,1364825,7,"kek","ben",1361455,1364494,"605",1363196,1363202,1363194,"sacc",6.127,2,1363182,1363202,20,558.5,628.8,1.73641,181.544999999999,86.944,"NO",NA,1363203,1363476,273,"No",NA,NA,NA,NA,"Yes",NA
"323",2,175,"ben",67,"exp_3",1366608,1374786,4,"ipi","bir",1367152,1370996,"376",1368767,1368775,1368765,"sacc",7.816,2,1368750,1368772,22,315.5,400.4,2.09703,179.075,89.8865217391304,"NO",NA,1368773,1368956,183,"Yes","LEFT","left",3472.726,1,"Yes",NA
"324",2,197,"ben",68,"exp_3",1376513,1379557,4,"hep","bir",1377026,1379238,"424",1377906,1377914,1377904,"fix",8.053,2,1378081,1378101,20,423.7,500.4,1.89449,169.195000000001,89.037619047619,"NO",NA,1377903,1378080,177,"No",NA,NA,NA,NA,"Yes",NA
"325",2,231,"ben",69,"exp_3",1381318,1388185,8,"zor","ben",1382123,1384285,"725",1383824,1383833,1383822,"sacc",8.858,2,1383806,1383841,35,644.8,823.2,4.40648,258.115,124.357638888889,"NO",NA,1383842,1384031,189,"Yes","RIGHT","right",3577.331,1,"Yes",NA
"326",2,200,"identical",70,"exp_3",1389969,1397814,5,"ma?","identical",1393268,1397493,"448",1394541,1394549,1394539,"identical",7.615,2,1394526,1394557,31,397.9,515.6,2.90719,176.605,90.65671875,"NO",NA,1394558,1394800,242,"No",NA,NA,NA,NA,NA,NA
"327",2,189,"ben",71,"exp_3",1399600,1408119,7,"?t?","bir",1400059,1404979,"557",1403034,1403041,1403032,"sacc",7.128,2,1403023,1403050,27,536.7,659.6,3.03563,202.54,107.709642857143,"NO",NA,1403051,1403291,240,"Yes","RIGHT","right",2815.405,1,"Yes",NA
"328",2,179,"ben",72,"exp_3",1409922,1415061,4,"kan","bir",1410379,1414752,"473",1412023,1412030,1412021,"sacc",7.094,2,1412001,1412036,35,381.3,524.6,3.53951,188.955,98.1481944444445,"NO",NA,1412037,1412230,193,"No",NA,NA,NA,NA,"Yes",NA
"329",2,207,"ben",73,"exp_3",1416803,1419930,3,"kar","ben",1417232,1419618,"330",1417765,1417774,1417762,"fix",8.803,3,1418022,1418051,29,339.4,443.2,2.56386,191.425,84.7621666666667,"NO",NA,1417765,1418021,256,"No",NA,NA,NA,NA,"Yes",NA
"330",2,230,"identical",74,"exp_3",1421964,1427666,8,"g?n","identical",1422834,1427355,"617",1424474,1424481,1424472,"identical",6.912,2,1424461,1424484,23,587.6,686.8,2.45024,251.940000000001,101.784583333333,"NO",NA,1424485,1424647,162,"No",NA,NA,NA,NA,NA,NA
"331",2,178,"identical",75,"exp_3",1429338,1433661,3,"iri","identical",1429795,1431678,"376",1430321,1430329,1430319,"identical",8.015,2,1430306,1430341,35,319.5,463.2,3.54939,267.995,98.9029166666667,"NO",NA,1430342,1430511,169,"Yes","RIGHT","right",1663.578,1,NA,NA
"332",2,173,"ben",76,"exp_3",1435529,1440789,6,"hep","bir",1437132,1440477,"460",1437952,1437958,1437951,"sacc",6.396,1,1437920,1437954,34,297.1,464.6,4.13725,244.53,118.348285714286,"NO",NA,1438352,1438553,201,"No",NA,NA,NA,NA,"Yes",NA
"333",2,239,"ben",77,"exp_3",1442663,1449536,7,"yem","ben",1443256,1446914,"569",1444713,1444720,1444711,"sacc",6.583,2,1444696,1444728,32,488.7,658,4.18171,282.815,126.606212121212,"NO",NA,1444729,1444954,225,"Yes","LEFT","left",2276.767,1,"Yes",NA
"334",2,188,"identical",78,"exp_3",1451272,1454906,4,"?ok","identical",1451769,1454592,"423",1453118,1453125,1453116,"identical",6.666,2,1453089,1453122,33,305.3,441.5,3.36414,201.304999999999,99.1269117647059,"NO",NA,1453123,1453407,284,"No",NA,NA,NA,NA,NA,NA
"335",2,184,"identical",79,"exp_3",1456592,1459891,7,"fay","identical",1457187,1459578,"593",1458794,1458802,1458792,"identical",7.553,2,1458776,1458799,23,528.1,625.4,2.40331,230.945000000001,100.601041666667,"NO",NA,1458800,1458939,139,"No",NA,NA,NA,NA,NA,NA
"336",2,181,"ben",80,"exp_3",1461620,1465282,4,"pas","bir",1462084,1464974,"352",1462887,1462894,1462886,"sacc",6.506,1,1462879,1462900,21,341.3,419.7,1.93648,167.96,87.4043181818182,"NO",NA,1462901,1463232,331,"No",NA,NA,NA,NA,"Yes",NA
"337",2,210,"identical",81,"exp_3",1467138,1472844,6,"iyi","identical",1467649,1472536,"497",1468744,1468750,1468742,"identical",5.591,2,1468718,1468750,32,383.5,522.3,3.42836,205.01,104.78203125,"NO",NA,1468751,1468982,231,"No",NA,NA,NA,NA,NA,NA
"338",2,229,"ben",82,"exp_3",1474621,1478899,5,"kez","ben",1475257,1478583,"509",1476816,1476825,1476814,"sacc",9.335,2,1476781,1476819,38,320.8,515.8,4.8165,229.71,124.418333333333,"NO",NA,1477133,1477320,187,"No",NA,NA,NA,NA,"Yes",NA
"339",2,208,"identical",83,"exp_3",1480677,1485210,4,"?ay","identical",1482544,1484895,"413",1483492,1483499,1483490,"identical",7.306,2,1483655,1483676,21,431.2,510.8,1.96612,206.245,89.2006818181818,"NO",NA,1483493,1483654,161,"No",NA,NA,NA,NA,NA,NA
"340",2,176,"identical",84,"exp_3",1486985,1491285,5,"??k","identical",1487775,1490977,"473",1488988,1488997,1488986,"identical",8.792,2,1488973,1488997,24,427,516.3,2.20571,146.965,90.155,"NO",NA,1488998,1489155,157,"No",NA,NA,NA,NA,NA,NA
"341",2,168,"identical",85,"exp_3",1493231,1498883,8,"s?r","identical",1493698,1498561,"628",1495714,1495721,1495713,"identical",6.788,1,1495691,1495724,33,490.5,666.6,4.34967,296.4,127.858823529412,"NO",NA,1495725,1496083,358,"No",NA,NA,NA,NA,NA,NA
"342",2,204,"identical",86,"exp_3",1501094,1505516,6,"nem","identical",1502674,1505202,"521",1503594,1503600,1503592,"identical",6.132,2,1503566,1503599,33,390.6,544.1,3.79145,297.635,112.276029411765,"NO",NA,1503600,1503840,240,"No",NA,NA,NA,NA,NA,NA
"343",2,169,"ben",87,"exp_3",1507386,1516657,6,"k?r","bir",1509757,1514467,"521",1512218,1512226,1512216,"sacc",8.1,2,1512208,1512228,20,506.2,583.4,1.90684,188.954999999999,88.9788095238095,"NO",NA,1512229,1512480,251,"Yes","RIGHT","right",1863.069,1,"Yes",NA
"344",2,238,"identical",88,"exp_3",1518562,1524394,7,"kez","identical",1519155,1524079,"569",1520651,1520661,1520649,"identical",9.432,2,1520625,1520659,34,438.5,606.3,4.14466,243.295000000001,118.912857142857,"NO",NA,1520660,1520847,187,"No",NA,NA,NA,NA,NA,NA
"345",2,172,"identical",89,"exp_3",1526177,1529796,6,"bo?","identical",1526721,1529474,"593",1528066,1528073,1528063,"identical",6.658,3,1528049,1528079,30,536.6,674.6,3.4086,207.479999999999,110.592258064516,"NO",NA,1528080,1528306,226,"No",NA,NA,NA,NA,NA,NA
"346",2,205,"ben",90,"exp_3",1531655,1538316,5,"muz","ben",1532211,1536029,"437",1533144,1533153,1533142,"sacc",8.955,2,1533131,1533152,21,394.9,484.8,2.22053,180.31,99.3052272727273,"NO",NA,1533153,1533632,479,"Yes","RIGHT","right",1961.754,1,"Yes",NA
"347",2,211,"ben",91,"exp_3",1540194,1550188,3,"cam","ben",1540978,1546803,"339",1541386,1541395,1541384,"fix",9.399,2,1541576,1541595,19,339.6,408.1,1.69195,137.085,83.6095,"NO",NA,1541380,1541575,195,"Yes","LEFT","left",3061.442,1,"Yes",NA
"348",2,240,"identical",92,"exp_3",1552060,1560176,7,"yer","identical",1553129,1556006,"568",1554632,1554639,1554630,"identical",6.835,2,1554614,1554637,23,484,595.5,2.75405,249.470000000001,114.134583333333,"NO",NA,1554638,1554904,266,"Yes","LEFT","left",3841.127,1,NA,NA
"349",2,191,"ben",93,"exp_3",1562272,1566645,8,"ac?","bir",1562844,1566327,"665",1564164,1564170,1564162,"sacc",5.928,2,1564147,1564169,22,597.6,691.7,2.32427,224.769999999999,99.9276086956522,"NO",NA,1564170,1564494,324,"No",NA,NA,NA,NA,"Yes",NA
"350",2,224,"identical",94,"exp_3",1568633,1576791,6,"zor","identical",1572396,1576467,"533",1573774,1573781,1573772,"identical",6.481,2,1573750,1573779,29,437.7,553.9,2.87014,206.245000000001,95.2185,"NO",NA,1573780,1574079,299,"No",NA,NA,NA,NA,NA,NA
"351",2,221,"ben",95,"exp_3",1578577,1584803,7,"her","ben",1579074,1582155,"531",1580541,1580551,1580539,"sacc",9.397,2,1580528,1580550,22,498.8,593.8,2.3465,214.89,101.699565217391,"NO",NA,1580551,1580839,288,"Yes","RIGHT","left",2323.955,0,"Yes",NA
"352",2,235,"ben",96,"exp_3",1586589,1595099,4,"iyi","ben",1588288,1594782,"341",1589040,1589047,1589038,"sacc",7.047,2,1589020,1589044,24,248.4,362.5,2.81827,218.595,111.0512,"NO",NA,1589045,1589236,191,"No",NA,NA,NA,NA,"Yes",NA
"353",2,20,"identical",97,"exp_1",1688470,1693662,4,"tuz","identical",1689358,1693336,"364",1690236,1690242,1690234,"identical",5.626,2,1690223,1690244,21,335.5,403,1.66725,145.73,74.1561363636363,"NO",NA,1690245,1690479,234,"No",NA,NA,NA,NA,NA,NA
"354",2,51,"ben",98,"exp_1",1695607,1699792,7,"hi?","ben",1696127,1699460,"688",1697833,1697842,1697831,"sacc",8.573,2,1697819,1697844,25,651.9,737.1,2.10444,169.194999999999,80.6075,"NO",NA,1697845,1698165,320,"No",NA,NA,NA,NA,"Yes",NA
"355",2,78,"identical",99,"exp_1",1701469,1708705,5,"g?n","identical",1701954,1708377,"473",1703100,1703105,1703098,"identical",5.161,2,1703079,1703107,28,377.9,511.5,3.29992,214.89,112.938620689655,"NO",NA,1703108,1703303,195,"No",NA,NA,NA,NA,NA,NA
"356",2,80,"identical",100,"exp_1",1710508,1719009,5,"hep","identical",1711686,1714587,"389",1712642,1712649,1712640,"identical",7.424,2,1712625,1712648,23,333,416.9,2.07233,149.435,85.0091666666667,"NO",NA,1712649,1712967,318,"Yes","LEFT","left",4082.316,1,NA,NA
"357",2,27,"ben",101,"exp_1",1720909,1726245,6,"ile","bir",1722235,1725917,"496",1723879,1723887,1723877,"sacc",7.394,2,1723854,1723886,32,391.9,524.1,3.26534,185.25,98.949696969697,"NO",NA,1723887,1724344,457,"No",NA,NA,NA,NA,"Yes",NA
"358",2,75,"ben",102,"exp_1",1728054,1733132,6,"?ok","ben",1728521,1732796,"508",1729974,1729981,1729972,"sacc",6.617,2,1729954,1729986,32,431.6,555.2,3.05292,170.43,91.9513636363636,"NO",NA,1729987,1730172,185,"No",NA,NA,NA,NA,"Yes",NA
"359",2,70,"identical",103,"exp_1",1734886,1739343,6,"iyi","identical",1735457,1739013,"545",1736658,1736667,1736656,"identical",8.924,2,1736637,1736670,33,442.8,617.5,4.31509,277.875,127.8225,"NO",NA,1736671,1736857,186,"No",NA,NA,NA,NA,NA,NA
"360",2,72,"identical",104,"exp_1",1741175,1749339,10,"kez","identical",1742636,1749008,"893",1747196,1747203,1747194,"identical",7.074,2,1747185,1747206,21,867,944.1,1.90437,139.554999999999,84.4290909090909,"NO",NA,1747207,1747553,346,"No",NA,NA,NA,NA,NA,NA
"361",2,73,"ben",105,"exp_1",1751200,1762286,9,"hak","ben",1752555,1758556,"844",1755168,1755175,1755165,"sacc",6.762,3,1755156,1755185,29,823.1,930.7,2.65772,177.84,88.426,"NO",NA,1755186,1755413,227,"Yes","LEFT","left",3388.599,1,"Yes",NA
"362",2,53,"ben",106,"exp_1",1764046,1771781,6,"ile","ben",1764864,1771433,"508",1766367,1766374,1766365,"sacc",7.238,2,1766345,1766371,26,411.4,530.6,2.94424,237.120000000001,109.000185185185,"NO",NA,1766372,1766586,214,"No",NA,NA,NA,NA,"Yes",NA
"363",2,59,"ben",107,"exp_1",1773677,1781019,5,"?ok","ben",1774391,1778280,"448",1775524,1775530,1775523,"sacc",5.883,1,1775510,1775533,23,398.8,497.3,2.43295,166.725,99.8291666666667,"NO",NA,1775534,1775843,309,"Yes","RIGHT","right",2398.152,1,"Yes",NA
"364",2,67,"ben",108,"exp_1",1782801,1787269,6,"ama","ben",1783401,1786943,"522",1785370,1785401,1785368,"sacc",30.346,2,1785354,1785373,19,474.2,529.3,1.36097,149.435,66.99875,"NO",NA,1785374,1785562,188,"No",NA,NA,NA,NA,"Yes",NA
"365",2,26,"identical",109,"exp_1",1788960,1792262,4,"iyi","identical",1789749,1791939,"352",1790629,1790638,1790627,"identical",8.959,2,1790614,1790637,23,300.9,400.2,2.45271,196.365,101.167083333333,"NO",NA,1790638,1790922,284,"No",NA,NA,NA,NA,NA,NA
"366",2,19,"ben",110,"exp_1",1794039,1797901,4,"i?i","bir",1794513,1797571,"544",1795534,1795543,1795531,"sacc",9.224,3,1795507,1795542,35,399.6,584.3,4.56209,265.525,127.650972222222,"NO",NA,1795543,1795896,353,"No",NA,NA,NA,NA,"Yes",NA
"367",2,5,"ben",111,"exp_1",1799644,1803632,6,"bo?","bir",1800124,1803297,"604",1801535,1801542,1801534,"sacc",6.488,1,1801515,1801556,41,495,733.6,5.89342,258.115000000001,141.877976190476,"NO",NA,1801557,1801736,179,"No",NA,NA,NA,NA,"Yes",NA
"368",2,55,"ben",112,"exp_1",1805342,1809615,3,"ipi","ben",1806743,1809284,"318",1807366,1807373,1807364,"sacc",6.809,2,1807350,1807372,22,268.9,350.9,2.0254,144.495000000001,86.3963043478261,"NO",NA,1807373,1807643,270,"No",NA,NA,NA,NA,"Yes",NA
"369",2,65,"ben",113,"exp_1",1811444,1824379,6,"eve","ben",1813492,1824045,"604",1815632,1815640,1815631,"sacc",8.25,1,1815615,1815643,28,523.3,662,3.42589,265.525,117.921206896552,"NO",NA,1815644,1815837,193,"No",NA,NA,NA,NA,"Yes",NA
"370",2,2,"identical",114,"exp_1",1826222,1831799,6,"bol","identical",1826948,1831473,"567",1829129,1829138,1829127,"identical",9.128,2,1829114,1829140,26,517.1,626.7,2.70712,218.595000000001,99.348888888889,"NO",NA,1829141,1829350,209,"No",NA,NA,NA,NA,NA,NA
"371",2,17,"ben",115,"exp_1",1833474,1837276,3,"kar","bir",1833968,1836946,"303",1834722,1834727,1834720,"sacc",5.125,2,1834707,1834730,23,255.2,344.8,2.21312,166.725,90.46375,"NO",NA,1834731,1834936,205,"No",NA,NA,NA,NA,"Yes",NA
"372",2,76,"identical",116,"exp_1",1839115,1845146,7,"ruj","identical",1840334,1844817,"654",1842043,1842052,1842042,"identical",9.071,1,1842191,1842211,20,652.7,710.7,1.4326,153.14,68.1014285714286,"NO",NA,1842041,1842190,149,"No",NA,NA,NA,NA,NA,NA
"373",2,60,"identical",117,"exp_1",1846854,1854650,4,"ac?","identical",1848196,1851218,"448",1849260,1849268,1849258,"identical",8.32,2,1849247,1849268,21,414.5,495.4,1.99823,175.37,92.507380952381,"NO",NA,1849269,1849514,245,"Yes","LEFT","left",3096.449,1,NA,NA
"374",2,74,"identical",118,"exp_1",1856465,1865279,5,"ile","identical",1858241,1864950,"630",1859903,1859909,1859902,"identical",5.628,1,1859880,1859916,36,491,671.1,4.44847,302.575,120.162162162162,"NO",NA,1859917,1860236,319,"No",NA,NA,NA,NA,NA,NA
"375",2,77,"ben",119,"exp_1",1866982,1874422,5,"gri","ben",1867472,1872394,"436",1868856,1868865,1868854,"sacc",8.559,2,1868840,1868866,26,380.6,497.8,2.89484,232.179999999999,106.255740740741,"NO",NA,1868867,1869299,432,"Yes","RIGHT","right",1698.44,1,"Yes",NA
"376",2,58,"identical",120,"exp_1",1876323,1882737,7,"t?m","identical",1876811,1882406,"558",1878700,1878709,1878698,"identical",8.469,2,1878686,1878705,19,517.4,583.7,1.63761,174.134999999999,81.3865,"NO",NA,1878706,1878914,208,"No",NA,NA,NA,NA,NA,NA
"377",2,48,"identical",121,"exp_1",1884605,1891121,5,"ta?","identical",1885266,1890796,"521",1886937,1886943,1886935,"identical",5.549,2,1886925,1886945,20,495.5,564.4,1.70183,167.96,79.8045238095238,"NO",NA,1886946,1887108,162,"No",NA,NA,NA,NA,NA,NA
"378",2,66,"identical",122,"exp_1",1892897,1900136,6,"hi?","identical",1893525,1899805,"617",1894963,1894972,1894960,"identical",9.623,3,1894945,1894971,26,562.3,665.3,2.5441,164.254999999999,92.625,"NO",NA,1894972,1895220,248,"No",NA,NA,NA,NA,NA,NA
"379",2,32,"identical",123,"exp_1",1901938,1911138,4,"s?t","identical",1902685,1910814,"377",1904383,1904391,1904381,"identical",7.497,2,1904373,1904395,22,361.8,447.4,2.11432,191.425,91.6584782608695,"NO",NA,1904396,1904625,229,"No",NA,NA,NA,NA,NA,NA
"380",2,36,"identical",124,"exp_1",1913003,1916918,7,"?ok","identical",1913617,1916579,"591",1914869,1914877,1914867,"identical",7.96,2,1914850,1914876,26,502.2,640.8,3.42342,232.179999999999,125.604074074074,"NO",NA,1914877,1915248,371,"No",NA,NA,NA,NA,NA,NA
"381",2,56,"identical",125,"exp_1",1918771,1924759,7,"kez","identical",1919303,1924435,"738",1920994,1921004,1920992,"identical",10.32,2,1920968,1920998,30,601,754.8,3.79886,233.415,121.707258064516,"NO",NA,1920999,1921306,307,"No",NA,NA,NA,NA,NA,NA
"382",2,31,"ben",126,"exp_1",1926485,1929561,4,"kar","bir",1927224,1929239,"377",1927955,1927962,1927953,"sacc",6.97,2,1927936,1927960,24,293.8,401.9,2.67007,207.479999999999,105.5678,"NO",NA,1927961,1928172,211,"No",NA,NA,NA,NA,"Yes",NA
"383",2,16,"identical",127,"exp_1",1931228,1937574,5,"zar","identical",1932717,1937244,"484",1933549,1933556,1933548,"identical",6.521,1,1933520,1933553,33,345.5,491.9,3.61608,242.06,105.810441176471,"NO",NA,1934769,1934933,164,"No",NA,NA,NA,NA,NA,NA
"384",2,18,"identical",128,"exp_1",1939500,1944101,5,"fal","identical",1940042,1943771,"472",1941311,1941318,1941309,"identical",7.253,2,1941303,1941324,21,463.2,540.7,1.91425,221.065,86.3377272727273,"NO",NA,1941325,1941583,258,"No",NA,NA,NA,NA,NA,NA
"385",2,9,"ben",129,"exp_1",1945839,1953888,5,"ku?","bir",1946966,1950236,"436",1948317,1948326,1948316,"sacc",8.835,1,1948296,1948330,34,337.9,479.5,3.49752,208.715,99.788,"NO",NA,1948331,1948613,282,"Yes","LEFT","left",3316.461,1,"Yes",NA
"386",2,47,"ben",130,"exp_1",1955664,1963694,7,"yan","ben",1957749,1961295,"557",1959229,1959238,1959226,"sacc",8.432,3,1959210,1959236,26,466.8,604.4,3.39872,271.7,125.055185185185,"NO",NA,1959237,1959442,205,"Yes","RIGHT","right",2060.224,1,"Yes",NA
"387",2,28,"identical",131,"exp_1",1965552,1976140,8,"iri","identical",1966095,1973078,"581",1970962,1970971,1970960,"identical",9.171,2,1970953,1970964,11,565.3,592.8,0.67925,80.275,54.03125,"NO",NA,1970965,1971133,168,"Yes","RIGHT","right",2726.549,1,NA,NA
"388",2,3,"ben",132,"exp_1",1978066,1981602,5,"nar","bir",1978575,1981271,"400",1979524,1979530,1979522,"sacc",6.335,2,1979509,1979533,24,346.6,442,2.35638,190.19,93.0202,"NO",NA,1979534,1979749,215,"No",NA,NA,NA,NA,"Yes",NA
"389",2,12,"identical",133,"exp_1",1983418,1988978,3,"caz","identical",1984060,1987194,"245",1985114,1985120,1985112,"identical",5.589,2,1985276,1985296,20,249.9,331.8,2.02293,193.895,95.5066666666667,"NO",NA,1985111,1985275,164,"Yes","LEFT","left",1453.352,1,NA,NA
"390",2,40,"identical",134,"exp_1",1990701,1994631,6,"t?m","identical",1991218,1994308,"604",1992701,1992707,1992699,"identical",6.291,2,1992681,1992709,28,498.2,641.4,3.53704,242.059999999999,120.859655172414,"NO",NA,1992710,1993119,409,"No",NA,NA,NA,NA,NA,NA
"391",2,57,"ben",135,"exp_1",1996442,2001501,7,"sos","ben",1996933,2001175,"519",1998979,1998985,1998977,"sacc",5.43,2,1998962,1998983,21,456.4,536.8,1.98588,171.665,88.3025,"NO",NA,1998984,1999329,345,"No",NA,NA,NA,NA,"Yes",NA
"392",2,6,"identical",136,"exp_1",2003300,2006729,6,"toz","identical",2003803,2006398,"460",2004999,2005008,2004997,"identical",9.1,2,2004985,2005005,20,423.4,492.3,1.70183,158.08,80.6866666666667,"NO",NA,2005006,2005202,196,"No",NA,NA,NA,NA,NA,NA
"393",2,35,"ben",137,"exp_1",2008581,2013357,6,"eve","bir",2009430,2013027,"544",2010595,2010602,2010593,"sacc",6.491,2,2010578,2010603,25,469.2,613,3.55186,249.469999999999,135.3275,"NO",NA,2010604,2010853,249,"No",NA,NA,NA,NA,"Yes",NA
"394",2,43,"ben",138,"exp_1",2015186,2022953,7,"zor","ben",2016900,2022614,"497",2019040,2019048,2019038,"sacc",8.267,2,2019027,2019046,19,467.7,521.3,1.32392,146.965,66.99875,"NO",NA,2019047,2019276,229,"No",NA,NA,NA,NA,"Yes",NA
"395",2,10,"identical",139,"exp_1",2024998,2034558,5,"bot","identical",2025405,2030405,"483",2027002,2027011,2027001,"identical",8.915,1,2026987,2027009,22,431.3,516.4,2.10197,160.55,89.510652173913,"NO",NA,2027010,2027254,244,"Yes","LEFT","left",3815.081,1,NA,NA
"396",2,15,"ben",140,"exp_1",2036334,2042868,4,"mal","bir",2036868,2040329,"387",2037676,2037685,2037674,"sacc",9.085,2,2037661,2037682,21,333,416.3,2.05751,190.19,92.625,"NO",NA,2037683,2037900,217,"Yes","LEFT","left",2205.12,1,"Yes",NA
"397",2,71,"ben",141,"exp_1",2045213,2051521,5,"iyi","ben",2047237,2051195,"450",2048360,2048368,2048358,"sacc",7.557,2,2048340,2048365,25,357.3,472.5,2.84544,207.48,108.965,"NO",NA,2048366,2048724,358,"No",NA,NA,NA,NA,"Yes",NA
"398",2,14,"identical",142,"exp_1",2053365,2060902,5,"?am","identical",2053832,2060572,"545",2055362,2055371,2055360,"identical",8.933,2,2055346,2055367,21,478.4,568.1,2.21559,213.654999999999,99.249090909091,"NO",NA,2055368,2055690,322,"No",NA,NA,NA,NA,NA,NA
"399",2,64,"identical",143,"exp_1",2062809,2069298,7,"iyi","identical",2063960,2068968,"665",2065846,2065853,2065844,"identical",7.018,2,2065824,2065856,32,566.3,699.3,3.2851,206.244999999999,100.820909090909,"NO",NA,2065857,2066022,165,"No",NA,NA,NA,NA,NA,NA
"400",2,54,"identical",144,"exp_1",2071431,2083069,7,"?t?","identical",2072594,2082744,"654",2075091,2075101,2075089,"identical",9.729,2,2075077,2075099,22,617.1,687.5,1.73888,175.370000000001,76.1404347826087,"NO",NA,2075100,2075295,195,"No",NA,NA,NA,NA,NA,NA
"401",2,63,"ben",145,"exp_1",2085454,2091023,9,"k?z","ben",2086234,2090694,"664",2088358,2088365,2088356,"sacc",7.083,2,2088344,2088371,27,614.8,755.7,3.48023,242.06,126.146428571429,"NO",NA,2088372,2088712,340,"No",NA,NA,NA,NA,"Yes",NA
"402",2,62,"identical",146,"exp_1",2092855,2096341,4,"kot","identical",2093738,2096017,"413",2094591,2094597,2094589,"identical",5.713,2,2094572,2094605,33,322,485.5,4.03845,247,118.777941176471,"NO",NA,2094606,2094908,302,"No",NA,NA,NA,NA,NA,NA
"403",2,49,"ben",147,"exp_1",2098146,2103737,5,"top","ben",2098643,2100995,"495",2099885,2099894,2099883,"sacc",9.238,2,2099869,2099889,20,441.9,517.8,1.87473,200.07,88.8611904761904,"NO",NA,2099890,2100206,316,"Yes","RIGHT","right",2381.062,1,"Yes",NA
