"","sub","item","cond","seq","trial_start","trial_end","target_word_n","target_word","target_changed","Dis_on_t","Dis_off_t","boundary","DC_start_t","DC_end_t","boundary_t","Display_time","Display_lat","sacc_start_t","sacc_end_t","sacc_dur","sacc_start_x","sacc_end_x","sacc_ampl","peak_vel","avg_vel","blink","blink_dur","fix_start_t","fix_end_t","fix_dur","question","corrAns","key_resp","RT_q","accuracy","corr_sacc","jhook"
"1",98,3,"ben",1,59023580,5906647,"2","hi?","bir",5903807,5906322,"341",5904461,5904470,5904460,8.971,1,5904441,5904466,25,264,367.7,2.56139,154.375,96.8525,"NO",NA,5904467,5904678,211,"No",NA,NA,NA,NA,"Yes","Yes"
"2",98,17,"ben",2,59098231,5919366,"6","?ok","ben",5911190,5916828,"605",5913891,5913897,5913889,5.849,2,5913877,5913896,19,562.6,633.4,1.74876,135.85,85.3385,"NO",NA,5913897,5914412,515,"Yes","right","right",2234.944,1,"Yes","Yes"
"3",98,5,"ben",3,59211942,5925285,"4","i?e","bir",5921677,5924992,"460",5923158,5923166,5923155,8.174,3,5923145,5923167,22,429.1,516,2.14643,156.845,91.0141304347826,"NO",NA,5923168,5923526,358,"No",NA,NA,NA,NA,"Yes","Yes"
"4",98,18,"identical",4,59271743,5932730,"4","ta?",NA,5927520,5932442,"472",NA,NA,5928792,NA,NA,5929401,5929420,19,456.7,528.5,1.77346,177.84,88.0555,"NO",NA,5929421,5929798,377,"No",NA,NA,NA,NA,NA,"Yes"
"5",98,14,"identical",5,59345994,5941626,"7","g?l",NA,5936889,5940336,"546",NA,NA,5939086,NA,NA,5939073,5939090,17,511.7,554.4,1.05469,95.0950000000006,56.81,"NO",NA,5939091,5939304,213,"Yes","right","right",989.78,1,NA,"Yes"
"6",98,2,"identical",6,59435025,5950629,"5","aya",NA,5945260,5949634,"759",NA,NA,5946872,NA,NA,5947326,5947350,24,653,765.5,2.77875,205.01,110.656,"NO",NA,5947351,5947576,225,"Yes","right","right",689.533,1,NA,"Yes"
"7",98,4,"identical",7,59524786,5956515,"4","eve",NA,5953328,5956224,"472",NA,NA,5954820,NA,NA,5954984,5955003,19,473,531.5,1.44495,106.21,69.96275,"NO",NA,5954809,5954983,174,"No",NA,NA,NA,NA,NA,"Yes"
"8",98,1,"ben",8,59583067,5964218,"5","ak?","bir",5958858,5963925,"582",5961253,5961261,5961250,8.714,3,5961237,5961258,21,527.7,605.3,1.91672,167.959999999999,84.2606818181818,"NO",NA,5961259,5961804,545,"No",NA,NA,NA,NA,"Yes","Yes"
"9",98,15,"ben",9,59661048,5972171,"3","kez","ben",5966596,5971873,"424",5969680,5969687,5969679,6.536,1,5969669,5969686,17,395.4,444.3,1.20783,109.915,63.7397222222222,"NO",NA,5969687,5969863,176,"No",NA,NA,NA,NA,"Yes","Yes"
"10",98,16,"identical",10,59740629,5980408,"8","ara",NA,5974567,5980115,"820",NA,NA,5977721,NA,NA,5977704,5977726,22,763.1,838.2,1.85497,145.729999999999,82.0469565217392,"NO",NA,5977727,5977945,218,"No",NA,NA,NA,NA,NA,"Yes"
"11",98,4,"identical",11,598323410,5988482,"5","???",NA,5984007,5988180,"461",NA,NA,5986101,NA,NA,5986081,5986101,20,393.9,462.7,1.69936,122.265,77.3933333333333,"NO",NA,5986102,5986469,367,"No",NA,NA,NA,NA,NA,"Yes"
"12",98,69,"ben",12,599024311,5995160,"3","kot","ben",5990635,5994859,"413",5991955,5991961,5991953,5.629,2,5991950,5991971,21,408.7,474.7,1.6302,104.975,72.3597727272727,"NO",NA,5991972,5992409,437,"No",NA,NA,NA,NA,"Yes","Yes"
"13",98,70,"identical",13,599701612,6001997,"8","k?z",NA,5997872,6001693,"664",NA,NA,6000044,NA,NA,6000035,6000056,21,631.1,706.7,1.86732,139.555000000001,82.1836363636364,"NO",NA,6000057,6000418,361,"No",NA,NA,NA,NA,NA,"Yes"
"14",98,20,"identical",14,600370113,6009842,"3","tuz",NA,6005446,6009522,"364",NA,NA,6006998,NA,NA,6006998,6007016,18,364.1,424.2,1.48447,116.09,75.53,"NO",NA,6007017,6007420,403,"No",NA,NA,NA,NA,NA,NA
"15",98,23,"ben",15,601174914,6018036,"5","kez","bir",6012417,6017737,"642",6014660,6014669,6014656,9.563,4,6015239,6015259,20,661.7,713.7,1.2844,98.8,59.7504761904762,"NO",NA,6014653,6015238,585,"No",NA,NA,NA,NA,"Yes","Yes"
"16",98,67,"ben",16,601981715,6027574,"2","k?f","ben",6020480,6027267,"377",6022443,6022448,6022440,5.929,3,6022432,6022451,19,352.9,419.7,1.64996,139.555,81.016,"NO",NA,6022452,6022690,238,"No",NA,NA,NA,NA,"Yes","Yes"
"17",98,30,"identical",17,602938816,6041728,"5","yol",NA,6029865,6037080,"592",NA,NA,6031858,NA,NA,6031844,6031865,21,546.1,618,1.77593,155.61,78.4225,"NO",NA,6031866,6032019,153,"Yes","right","right",4339.076,1,NA,"Yes"
"18",98,60,"identical",18,604438817,6051218,"2","ipi",NA,6044873,6050913,"318",NA,NA,6045762,NA,NA,6046128,6046144,16,325.3,378.1,1.30416,112.385,74.1726470588235,"NO",NA,6046145,6046781,636,"No",NA,NA,NA,NA,NA,"Yes"
"19",98,66,"identical",19,605297618,6060480,"3","ac?",NA,6053953,6057405,"448",NA,NA,6055704,NA,NA,6055701,6055722,21,443.3,535.7,2.28228,198.835,101.550681818182,"NO",NA,6055723,6055978,255,"Yes","right","right",2764.372,1,NA,"Yes"
"20",98,73,"ben",20,606230619,6068707,"5","hi?","ben",6064169,6068386,"617",6066238,6066246,6066236,7.464,2,6066219,6066242,23,548.4,636.2,2.16866,146.965000000001,90.1035416666667,"NO",NA,6066243,6066655,412,"No",NA,NA,NA,NA,"Yes","Yes"
"21",98,76,"identical",21,607053720,6079086,"3","ton",NA,6071034,6076421,"340",NA,NA,6073268,NA,NA,6073264,6073284,20,334.6,408.3,1.82039,151.905,84.2740476190476,"NO",NA,6073285,6073447,162,"Yes","right","right",2358.641,1,NA,"Yes"
"22",98,9,"ben",22,608161021,6088974,"4","ku?","bir",6083214,6087036,"436",6084604,6084612,6084602,7.185,2,6084586,6084610,24,378.9,468.6,2.21559,145.73,87.0922,"NO",NA,6084611,6084865,254,"Yes","right","right",1632.518,1,"Yes","Yes"
"23",98,18,"identical",23,609103622,6096944,"4","fal",NA,6092491,6096648,"472",NA,NA,6093885,NA,NA,6093872,6093897,25,417,529.7,2.78369,197.6,108.6306,"NO",NA,6093898,6094223,325,"No",NA,NA,NA,NA,NA,"Yes"
"24",98,75,"ben",24,609926923,6105416,"8","onu","ben",6101180,6105111,"736",6104307,6104312,6104304,5.422,3,6104298,6104315,17,721.6,771.4,1.23006,100.035,65.523611111111,"NO",NA,6104316,6104715,399,"No",NA,NA,NA,NA,"Yes","Yes"
"25",98,31,"ben",25,610861424,6124222,"3","kar","bir",6109685,6123921,"377",6110802,6110811,6110801,8.407,1,6111030,6111048,18,384.3,438.6,1.34121,108.68,67.665,"NO",NA,6110794,6111029,235,"No",NA,NA,NA,NA,"Yes","Yes"
"26",98,19,"ben",26,612610325,6132711,"3","i?i","bir",6127767,6132408,"544",6129476,6129506,6129475,29.937,1,6129453,6129476,23,443.7,549,2.60091,207.48,108.357826086957,"NO",NA,6129477,6129835,358,"No",NA,NA,NA,NA,"Yes","Yes"
"27",98,65,"ben",27,613469126,6144456,"4","?ok","ben",6136413,6142724,"448",6139529,6139538,6139527,8.417,2,6139521,6139540,19,435.4,498.8,1.56598,129.675,76.26125,"NO",NA,6139541,6140314,773,"Yes","right","right",1423.832,1,"Yes","Yes"
"28",98,50,"identical",28,614662127,6157817,"3","kez",NA,6147280,6157513,"424",NA,NA,6149966,NA,NA,6149949,6149973,24,338.7,451.6,2.78863,192.66,110.5572,"NO",NA,6149974,6150203,229,"No",NA,NA,NA,NA,NA,"Yes"
"29",98,26,"identical",29,615969328,6164235,"3","iyi",NA,6160890,6163930,"352",NA,NA,6161931,NA,NA,6161916,6161933,17,304.1,357.7,1.32392,108.68,70.7380555555555,"NO",NA,6161934,6162146,212,"No",NA,NA,NA,NA,NA,NA
"30",98,42,"identical",30,616608829,6170063,"4","ay?",NA,6166692,6169757,"413",NA,NA,6167997,NA,NA,6168457,6168467,10,423.1,438.7,0.385319999999999,56.8100000000003,33.0081818181817,"NO",NA,6167996,6168456,460,"No",NA,NA,NA,NA,NA,"Yes"
"31",98,43,"ben",31,617192430,6176615,"6","zor","ben",6172449,6176314,"497",6173956,6173963,6173954,6.183,2,6173937,6173954,17,450.7,498.1,1.17078,114.855,63.1222222222223,"NO",NA,6173955,6174585,630,"No",NA,NA,NA,NA,"Yes","Yes"
"32",98,24,"identical",32,617841931,6183702,"6","eko",NA,6180228,6183397,"653",NA,NA,6182734,NA,NA,6182717,6182737,20,592.6,659.7,1.65737,137.085,80.3985,"NO",NA,6182738,6182972,234,"No",NA,NA,NA,NA,NA,"Yes"
"33",98,61,"ben",33,618575532,6195073,"6","kez","ben",6186948,6194768,"738",6190450,6190460,6190447,10.135,3,6190430,6190450,20,684.3,746.6,1.53881,135.85,72.67975,"NO",NA,6190451,6190880,429,"No",NA,NA,NA,NA,"Yes","Yes"
"34",98,53,"ben",34,619728533,6204461,"4","ta?","ben",6199757,6204151,"472",6202105,6202114,6202102,9.554,3,6202351,6202382,31,476.9,645,4.15207,243.295000000001,129.1346875,"NO",NA,6202383,6202643,260,"No",NA,NA,NA,NA,"Yes","Yes"
"35",98,46,"identical",35,620663834,6211264,"3","?ok",NA,6207286,6210958,"268",NA,NA,6208031,NA,NA,6208018,6208035,17,223.1,280.2,1.41037,111.15,75.1291666666666,"NO",NA,6208036,6208205,169,"No",NA,NA,NA,NA,NA,"Yes"
"36",98,64,"identical",36,621342335,6218341,"6","t?m",NA,6214377,6218037,"558",NA,NA,6215949,NA,NA,6215932,6215951,19,499.8,564.5,1.59809,154.375,78.546,"NO",NA,6215952,6216156,204,"No",NA,NA,NA,NA,NA,"Yes"
"37",98,83,"ben",37,622046436,6226918,"6","ruj","ben",6221072,6226609,"654",6223282,6223291,6223279,9.664,3,6223272,6223285,13,638.5,671.2,0.807690000000001,85.2149999999997,54.7810714285715,"NO",NA,6223286,6223716,430,"No",NA,NA,NA,NA,"Yes","Yes"
"38",98,8,"identical",38,622888037,6233739,"3","ney",NA,6229452,6233425,"388",NA,NA,6231095,NA,NA,6231081,6231100,19,339,400.7,1.52399,127.205,74.347,"NO",NA,6231101,6231454,353,"No",NA,NA,NA,NA,NA,"Yes"
"39",98,33,"ben",39,623549838,6242152,"6","eve","bir",6236222,6239693,"617",6238346,6238353,6238343,7.055,3,6238331,6238349,18,577,634.8,1.42766,106.21,72.5399999999999,"NO",NA,6238350,6238538,188,"Yes","right","right",2143.772,1,"Yes","Yes"
"40",98,35,"ben",40,624407039,6249530,"5","eve","bir",6245348,6249230,"544",6246886,6246892,6246885,5.508,1,6247436,6247554,118,550.6,663.3,2.78369,NA,NA,"YES",37,6246873,6247435,562,"No",NA,NA,NA,NA,"Yes","Yes"
"41",98,56,"identical",41,625147040,6257559,"6","hi?",NA,6252823,6257251,"688",NA,NA,6255059,NA,NA,6255051,6255070,19,668.3,730.7,1.54128,123.5,74.6557500000001,"NO",NA,6255071,6255244,173,"No",NA,NA,NA,NA,NA,"Yes"
"42",98,79,"ben",42,626008441,6267780,"9","kez","ben",6260992,6267472,"893",6265870,6265879,6265868,8.734,2,6265858,6265878,20,868.7,933.7,1.6055,144.495000000001,75.8054761904762,"NO",NA,6265879,6266071,192,"No",NA,NA,NA,NA,"Yes","Yes"
"43",98,11,"ben",43,627447442,6294174,"7","?il","bir",6275264,6280809,"676",6278419,6278426,6278417,6.468,2,6278407,6278431,24,647.8,741.2,2.30698,154.375,91.7358000000001,"NO",NA,6278432,6278615,183,"Yes","right","right",13052.326,1,"Yes","Yes"
"44",98,40,"identical",44,629601343,6300961,"5","t?m",NA,6296662,6300655,"604",NA,NA,6298827,NA,NA,6298809,6298835,26,511.3,629.8,2.92695,205.009999999999,108.03962962963,"NO",NA,6298836,6299089,253,"No",NA,NA,NA,NA,NA,"Yes"
"45",98,81,"ben",45,630278944,6311248,"4","ile","ben",6305276,6310942,"630",6308146,6308154,6308143,8.625,3,6308481,6308508,27,637.6,757.7,2.96647,208.715,105.680714285714,"NO",NA,6308141,6308480,339,"No",NA,NA,NA,NA,"Yes","Yes"
"46",98,28,"identical",46,631317545,6323679,"7","iri",NA,6314098,6318617,"581",NA,NA,6316688,NA,NA,6316675,6316696,21,540.9,607.2,1.63761,158.079999999999,73.4825,"NO",NA,6316697,6317011,314,"Yes","right","right",4721.524,1,NA,"Yes"
"47",98,3,"ben",47,632690246,6331782,"4","nar","bir",6328055,6331480,"400",6329688,6329694,6329687,5.584,1,6329667,6329690,23,315.9,411.5,2.36132,167.96,97.25625,"NO",NA,6329691,6329955,264,"No",NA,NA,NA,NA,"Yes",NA
"48",98,68,"identical",48,633376247,6341011,"5","gol",NA,6334382,6340709,"617",NA,NA,6336153,NA,NA,6336756,6336779,23,595.7,681.8,2.12667,149.434999999999,87.0675,"NO",NA,6336148,6336581,433,"No",NA,NA,NA,NA,NA,"Yes"
"49",98,34,"identical",49,634299748,6352124,"7","g?l",NA,6346321,6351821,"617",NA,NA,6348900,NA,NA,6348888,6348910,22,577,660,2.0501,153.140000000001,88.0071739130435,"NO",NA,6348911,6349133,222,"No",NA,NA,NA,NA,NA,"Yes"
"50",98,15,"ben",50,635399749,6362545,"3","mal","bir",6354709,6358809,"387",6356063,6356068,6356060,5.936,3,6356053,6356072,19,372.4,437.2,1.60056,125.97,77.6815,"NO",NA,6356073,6356323,250,"Yes","right","right",3422.217,1,"Yes","Yes"
"51",98,63,"ben",51,636465550,6375267,"7","mor","ben",6365358,6374961,"676",6370158,6370167,6370155,9.633,3,6372477,6372499,22,638.2,723.2,2.0995,175.370000000001,89.9402173913043,"NO",NA,6372500,6372716,216,"No",NA,NA,NA,NA,"Yes","Yes"
"52",98,13,"ben",52,637888051,6383896,"6","kar","bir",6379528,6383592,"532",6381863,6381872,6381860,8.958,3,6381841,6381866,25,443.3,548.2,2.59103,206.245000000001,100.0825,"NO",NA,6381867,6382169,302,"No",NA,NA,NA,NA,"Yes","Yes"
"53",98,62,"identical",53,638617252,6392525,"6","sos",NA,6388187,6392216,"519",NA,NA,6389867,NA,NA,6389853,6389873,20,471.5,536.3,1.60056,130.91,73.9235714285714,"NO",NA,6389874,6390029,155,"No",NA,NA,NA,NA,NA,"Yes"
"54",98,22,"identical",54,639462153,6400100,"6","ge?",NA,6395324,6399792,"593",NA,NA,6397334,NA,NA,6397323,6397342,19,556.6,618.2,1.52152,135.85,74.1,"NO",NA,6397343,6397436,93,"No",NA,NA,NA,NA,NA,NA
"55",98,58,"identical",55,640217354,6411741,"5","ile",NA,6404075,6411436,"508",NA,NA,6405589,NA,NA,6406169,6406196,27,455,580.5,3.09985,203.775,109.915,"NO",NA,6406197,6406372,175,"No",NA,NA,NA,NA,NA,"Yes"
"56",98,71,"ben",56,641418255,6423254,"6","iyi","ben",6417990,6422949,"665",6420541,6420547,6420538,6.326,3,6420525,6420545,20,628.2,688.9,1.49929,111.15,69.3364285714286,"NO",NA,6420546,6420819,273,"No",NA,NA,NA,NA,"Yes","Yes"
"57",98,38,"identical",57,642530156,6432133,"6","i?e",NA,6426483,6430727,"641",NA,NA,6428749,NA,NA,6428733,6428753,20,588,655.6,1.66972,127.204999999999,76.0995238095238,"NO",NA,6428754,6429133,379,"Yes","right","right",1094.172,1,NA,"Yes"
"58",98,44,"identical",58,643404357,6441637,"4","eve",NA,6434908,6438909,"508",NA,NA,6436615,NA,NA,6437056,6437080,24,506.3,608.1,2.51446,209.95,99.788,"NO",NA,6437081,6437289,208,"Yes","right","right",2415.457,1,NA,"Yes"
"59",98,39,"ben",59,644374758,6450288,"3","kar","bir",6444694,6448596,"388",6446044,6446049,6446041,5.894,3,6446034,6446055,21,371.7,452.9,2.00564,145.73,89.0322727272727,"NO",NA,6446056,6446576,520,"Yes","right","right",1387.483,1,"Yes",NA
"60",98,16,"identical",60,645206959,6455918,"4","zar",NA,6452548,6455612,"484",NA,NA,6454384,NA,NA,6454344,6454438,94,466.4,551.6,2.10444,114.854999999999,27.235,"NO",NA,6454439,6454687,248,"No",NA,NA,NA,NA,NA,"Yes"
"61",98,52,"identical",61,645821460,6488416,"6","?ok",NA,6461722,6477535,"605",NA,NA,6463927,NA,NA,6463914,6463937,23,555.6,642.5,2.14643,175.369999999999,89.3316666666667,"NO",NA,6463938,6464359,421,"Yes","right","right",10565.495,1,NA,"Yes"
"62",98,1,"ben",62,649056461,6497119,"5","ile","bir",6491048,6494243,"484",6492768,6492775,6492765,7.603,3,6492747,6492768,21,412.5,494.9,2.03528,144.495,92.3897619047619,"NO",NA,6492769,6493091,322,"Yes","right","right",2561.334,1,"Yes","Yes"
"63",98,2,"identical",63,650020562,6507304,"5","bol",NA,6503249,6507004,"567",NA,NA,6505347,NA,NA,6505333,6505354,21,517.2,593.5,1.88461,143.26,84.3729545454545,"NO",NA,6505355,6505590,235,"No",NA,NA,NA,NA,NA,"Yes"
"64",98,21,"ben",64,650912763,6514702,"2","dut","bir",6509735,6512215,"305",6510430,6510436,6510429,5.553,1,6510412,6510429,17,249.9,306.1,1.38814,128.44,75.6780555555556,"NO",NA,6510430,6510593,163,"Yes","right","right",2170.745,1,"Yes","Yes"
"65",98,78,"identical",65,651655864,6521805,"4","iyi",NA,6517202,6521497,"450",NA,NA,6518877,NA,NA,6519021,6519041,20,447.9,516.6,1.69689,149.435,80.5102380952382,"NO",NA,6518875,6519020,145,"No",NA,NA,NA,NA,NA,"Yes"
"66",98,12,"identical",66,652778465,6536261,"2","caz",NA,6528597,6534200,"245",NA,NA,6529251,NA,NA,6529507,6529526,19,255.1,320.7,1.62032,116.09,78.6695,"NO",NA,6529250,6529506,256,"Yes","right","right",1747.834,1,NA,"Yes"
"67",98,37,"ben",67,653947566,6545782,"3","fes","bir",6542341,6545480,"449",6544579,6544586,6544578,6.171,1,6544570,6544594,24,432.9,528.4,2.35885,200.07,93.6624,"NO",NA,6544595,6544792,197,"No",NA,NA,NA,NA,"Yes",NA
"68",98,59,"ben",68,654831767,6554858,"6","?t?","ben",6548961,6554561,"654",6551122,6551130,6551119,8.653,3,6551674,6551694,20,669.2,733.5,1.58821,140.79,74.3940476190476,"NO",NA,6551117,6551673,556,"No",NA,NA,NA,NA,"Yes","Yes"
"69",98,77,"ben",69,655943168,6564306,"5","iyi","ben",6560553,6564005,"545",6562114,6562121,6562110,7.664,4,6562074,6562139,65,534.7,586.3,1.27452,111.15,31.7918939393939,"NO",NA,6562140,6562423,283,"No",NA,NA,NA,NA,"Yes","Yes"
"70",98,7,"ben",70,656880869,6574286,"5","a?k","bir",6570013,6573979,"449",6571511,6571519,6571508,8.295,3,6571493,6571513,20,391,465.9,1.85003,143.26,86.567619047619,"NO",NA,6571514,6572077,563,"No",NA,NA,NA,NA,"Yes","Yes"
"71",98,27,"ben",71,657670670,6581789,"5","ile","bir",6577363,6581480,"496",6579306,6579315,6579305,8.472,1,6579285,6579306,21,438.4,502,1.57092,101.270000000001,68.5719047619047,"NO",NA,6579307,6579693,386,"No",NA,NA,NA,NA,"Yes","Yes"
"72",98,74,"identical",72,658648771,6591310,"5","ama",NA,6587002,6591005,"522",NA,NA,6589524,NA,NA,6589502,6589525,23,449.3,525,1.86979,139.554999999999,77.2904166666666,"NO",NA,6589526,6589696,170,"No",NA,NA,NA,NA,NA,"Yes"
"73",98,57,"ben",73,659357372,6604165,"6","mum","ben",6594347,6599730,"594",6596522,6596529,6596519,7.849,3,6596504,6596527,23,538.8,622.2,2.05998,174.135,86.4499999999999,"NO",NA,6596528,6596794,266,"Yes","right","right",4125.111,1,"Yes","Yes"
"74",98,54,"identical",74,660796773,6615445,"4","top",NA,6609423,6611883,"495",NA,NA,6610595,NA,NA,6610585,6610607,22,462.7,540.7,1.9266,156.845,81.9932608695652,"NO",NA,6610608,6610882,274,"Yes","right","right",3244.123,1,NA,"Yes"
"75",98,10,"identical",75,661852074,6625891,"4","bot",NA,6620001,6624422,"483",NA,NA,6621883,NA,NA,6621872,6621894,22,445.9,535.9,2.223,196.365,98.1825,"NO",NA,6621895,6622137,242,"Yes","right","right",1155.218,1,NA,"Yes"
"76",98,72,"identical",76,663448875,6641164,"5","eve",NA,6636431,6640859,"604",NA,NA,6638603,NA,NA,6638904,6638926,22,615.7,694,1.93401,139.554999999999,83.1745652173913,"NO",NA,6638601,6638903,302,"No",NA,NA,NA,NA,NA,"Yes"
"77",98,47,"ben",77,664313276,6651669,"6","yan","ben",6643831,6649324,"557",6646439,6646446,6646437,6.587,2,6646429,6646450,21,540.2,614.7,1.84015,140.79,82.0713636363637,"NO",NA,6646451,6646904,453,"Yes","right","right",2033.293,1,"Yes","Yes"
"78",98,32,"identical",78,665363777,6660981,"3","s?t",NA,6654338,6660679,"377",NA,NA,6655465,NA,NA,6655456,6655476,20,351.3,416.1,1.60056,123.5,74.9233333333333,"NO",NA,6655477,6655846,369,"No",NA,NA,NA,NA,NA,"Yes"
"79",98,45,"ben",79,666368878,6672786,"7","s?t","ben",6664958,6670232,"651",6667370,6667377,6667366,7.475,4,6667357,6667376,19,624.8,683.7,1.45483,123.5,71.19775,"NO",NA,6667377,6667535,158,"Yes","right","right",2242.76,1,"Yes","Yes"
"80",98,48,"identical",80,667478579,6681407,"4","ta?",NA,6676370,6681101,"521",NA,NA,6678022,NA,NA,6678010,6678035,25,471,577.8,2.63796,184.015,100.89,"NO",NA,6678036,6678266,230,"No",NA,NA,NA,NA,NA,"Yes"
"81",98,49,"ben",81,668323580,6690677,"6","g?l","ben",6684971,6688896,"546",6687399,6687407,6687396,8.575,3,6687383,6687405,22,503.3,578.9,1.86732,140.79,79.9528260869565,"NO",NA,6687406,6687993,587,"Yes","right","right",1467.438,1,"Yes","Yes"
"82",98,55,"ben",82,669260081,6699697,"7","hep","ben",6693080,6699392,"761",6697188,6697197,6697186,8.489,2,6697177,6697196,19,738.1,796.2,1.43507,113.620000000001,70.0245000000001,"NO",NA,6697197,6697377,180,"No",NA,NA,NA,NA,"Yes","Yes"
"83",98,41,"ben",83,670171882,6705527,"3","ter","bir",6702190,6705223,"376",6703308,6703316,6703306,7.694,2,6703289,6703310,21,306.9,388.9,2.0254,165.49,91.1654545454545,"NO",NA,6703311,6703565,254,"No",NA,NA,NA,NA,"Yes","Yes"
"84",98,25,"ben",84,670756683,6716227,"4","zor","bir",6708055,6712700,"448",6709890,6709898,6709891,8.641,-1,6709987,6710096,109,451.6,448.1,0.08645,NA,NA,"YES",31,6709882,6709986,104,"Yes","right","right",3214.783,1,"Yes","Yes"
"85",98,29,"ben",85,672208884,6731984,"5","kez","bir",6726988,6731676,"568",6729181,6729190,6729178,8.538,3,6729165,6729183,18,524.8,580.2,1.36838,119.795000000001,70.8500000000001,"NO",NA,6729184,6729272,88,"No",NA,NA,NA,NA,"Yes","Yes"
"86",98,36,"identical",86,673471585,6744473,"6","?ok",NA,6738863,6744165,"591",NA,NA,6741113,NA,NA,6741106,6741124,18,573,630.6,1.42272,123.5,76.5013888888888,"NO",NA,6741125,6741372,247,"No",NA,NA,NA,NA,NA,"Yes"
"87",98,82,"identical",87,674855686,6757703,"5","?ok",NA,6749754,6757397,"532",NA,NA,6752812,NA,NA,6752802,6752825,23,507.9,584,1.87967,140.790000000001,77.650625,"NO",NA,6752826,6753063,237,"No",NA,NA,NA,NA,NA,"Yes"
"88",98,80,"identical",88,676854487,6779238,"9","hak",NA,6770852,6776747,"844",NA,NA,6774591,NA,NA,6774576,6774597,21,787.5,864.9,1.91178,148.2,85.215,"NO",NA,6774598,6774771,173,"Yes","right","right",2160.23,1,NA,"Yes"
"89",98,14,"identical",89,678298788,6791485,"4","?am",NA,6785881,6791180,"533",NA,NA,6787379,NA,NA,6787582,6787765,183,536.3,653.6,2.89731,NA,NA,"YES",104,6787372,6787581,209,"No",NA,NA,NA,NA,NA,"Yes"
"90",98,6,"identical",90,679548589,6800703,"5","toz",NA,6796959,6800406,"460",NA,NA,6798718,NA,NA,6798712,6798736,24,454.8,543.1,2.18101,158.08,86.7958,"NO",NA,6798737,6799344,607,"No",NA,NA,NA,NA,NA,"Yes"
"91",98,17,"ben",91,680342990,6807263,"2","kar","bir",6803942,6806967,"303",6804986,6804993,6804983,7.492,3,6804967,6804988,21,240.7,316.1,1.86238,144.495,83.7554545454546,"NO",NA,6804989,6805165,176,"No",NA,NA,NA,NA,"Yes","Yes"
"92",98,5,"ben",92,681092791,6815537,"5","bo?","bir",6811429,6815232,"604",6813193,6813202,6813191,9.362,2,6813696,6813720,24,517,627.5,2.72935,198.835,107.445,"NO",NA,6813191,6813298,107,"No",NA,NA,NA,NA,"Yes","Yes"
"93",98,51,"ben",93,681759892,6826247,"8","ara","ben",6819179,6825952,"820",6823648,6823655,6823646,6.344,2,6823630,6823652,22,765.3,837.7,1.78828,151.905000000001,77.1069565217391,"NO",NA,6823653,6824059,406,"No",NA,NA,NA,NA,"Yes","Yes"
"94",98,15,"ben",94,694856293,6954439,"8","?ok","bir",6949675,6954128,"713",6952339,6952349,6952337,9.305,2,6952333,6952353,20,705.3,766.8,1.51905,127.205000000001,70.512619047619,"NO",NA,6952354,6952580,226,"No",NA,NA,NA,NA,"Yes","Yes"
"95",98,31,"ben",95,695629294,6992756,"4","g??","bir",6988050,6991085,"496",6990008,6990015,6990005,7.041,3,6989989,6990009,20,432.1,509.6,1.91425,165.49,89.2140476190476,"NO",NA,6990010,6990339,329,"Yes","right","right",1353.591,1,"Yes","Yes"
"96",98,14,"identical",96,699456395,6999726,"4","zil",NA,6995157,6999419,"497",NA,NA,6997131,NA,NA,6997120,6997142,22,460.1,546,2.12173,161.785,90.8530434782609,"NO",NA,6997143,6997694,551,"No",NA,NA,NA,NA,NA,"Yes"
"97",98,77,"ben",97,700152796,7006462,"6","mum","ben",7002007,7006150,"593",7004097,7004105,7004096,7.4,1,7004077,7004096,19,540.7,595.6,1.35603,108.680000000001,64.8992499999999,"NO",NA,7004097,7004608,511,"No",NA,NA,NA,NA,"Yes","Yes"
"98",98,42,"identical",98,700846297,7023831,"8","kez",NA,7011079,7023510,"833",NA,NA,7014481,NA,NA,7014468,7014486,18,792.6,846,1.31898,127.204999999999,67.73,"NO",NA,7014487,7014742,255,"No",NA,NA,NA,NA,NA,"Yes"
"99",98,64,"identical",99,702572998,7034151,"4","muz",NA,7026375,7033828,"425",NA,NA,7028807,NA,NA,7028788,7028812,24,340.3,441.2,2.49223,174.135,98.8988,"NO",NA,7028813,7029036,223,"No",NA,NA,NA,NA,NA,"Yes"
"100",98,57,"ben",100,703598599,7040068,"5","tuz","ben",7036661,7039739,"508",7038214,7038221,7038212,7.338,2,7038800,7038825,25,488.4,594.3,2.61573,187.720000000001,100.225,"NO",NA,7038826,7038987,161,"No",NA,NA,NA,NA,"Yes","Yes"
"101",98,72,"identical",101,7045524100,7050355,"4","kez",NA,7046167,7050048,"472",NA,NA,7047857,NA,NA,7047841,7047859,18,421.6,476.6,1.3585,114.855,70.8752777777778,"NO",NA,7047860,7048107,247,"No",NA,NA,NA,NA,NA,"Yes"
"102",98,69,"ben",102,7052238101,7059809,"6","dar","ben",7053037,7059501,"653",7057602,7057609,7057599,6.147,3,7057585,7057601,16,612.9,659.4,1.14855,103.74,63.8567647058823,"NO",NA,7057602,7057987,385,"No",NA,NA,NA,NA,"Yes","Yes"
"103",98,79,"ben",103,7061735102,7067897,"4","yem","ben",7062685,7067589,"568",7064625,7064633,7064622,8.372,3,7064607,7064626,19,521,578.3,1.41531,117.325,68.72775,"NO",NA,7064627,7064751,124,"No",NA,NA,NA,NA,"Yes","Yes"
"104",98,22,"identical",104,7069656103,7075050,"3","kek",NA,7070181,7074736,"448",NA,NA,7072535,NA,NA,7072531,7072551,20,445.1,505.3,1.48694,118.56,69.6304761904762,"NO",NA,7072552,7072767,215,"No",NA,NA,NA,NA,NA,"Yes"
"105",98,70,"identical",105,7077457104,7083615,"7","du?",NA,7078085,7083288,"616",NA,NA,7080080,NA,NA,7080068,7080086,18,586.9,628.4,1.02505,91.3899999999997,52.455,"NO",NA,7080087,7080233,146,"No",NA,NA,NA,NA,NA,"Yes"
"106",98,65,"ben",106,7085495105,7095533,"3","cam","ben",7088271,7095227,"423",7090795,7090824,7090792,29.401,3,7090784,7090809,25,402,509.1,2.64537,182.779999999999,101.5075,"NO",NA,7090810,7091117,307,"No",NA,NA,NA,NA,"Yes","Yes"
"107",98,75,"ben",107,7097597106,7106083,"2","a??","ben",7099287,7103226,"294",7100253,7100259,7100250,6.548,3,7100231,7100251,20,231.1,297.8,1.64749,114.855,76.0995238095238,"NO",NA,7100738,7101075,337,"Yes","right","right",2533.151,1,"Yes","Yes"
"108",98,56,"identical",108,7108054107,7132402,"7","eve",NA,7109953,7126785,"735",NA,NA,7113135,NA,NA,7113120,7113141,21,694.3,752.1,1.42766,111.15,62.2552272727273,"NO",NA,7113142,7113345,203,"Yes","right","right",5274.662,1,NA,"Yes"
"109",98,41,"ben",109,7134403108,7209549,"8","toz","bir",7203700,7208402,"723",7206874,7206883,7206871,9.481,3,7206863,7206883,20,701.6,769.7,1.68207,125.970000000001,76.6935,"NO",NA,7206884,7207152,268,"Yes","right","right",829.146,1,"Yes","Yes"
"110",98,17,"ben",110,7211527109,7216771,"6","?t?","bir",7212339,7216455,"748",7215107,7215113,7215104,6.445,3,7215087,7215114,27,678.7,787.2,2.67995,179.075,94.78625,"NO",NA,7215115,7215507,392,"No",NA,NA,NA,NA,"Yes","Yes"
"111",98,29,"ben",111,7218784110,7257661,"6","?ok","bir",7250071,7256149,"653",7252085,7252095,7252084,9.218,1,7252073,7252093,20,619.1,689.6,1.74135,140.79,81.2159523809524,"NO",NA,7252094,7252399,305,"Yes","right","right",1193.171,1,"Yes","Yes"
"112",98,49,"ben",112,7259766111,7266098,"5","?ok","ben",7260308,7264423,"617",7261952,7261960,7261949,7.033,3,7261877,7261999,122,552.9,628.9,1.8772,NA,NA,"YES",45,7262000,7262212,212,"Yes","right","right",1350.961,1,"Yes","Yes"
"113",98,50,"identical",113,7419227112,7428652,"4","kan",NA,7424682,7428335,"520",NA,NA,7426384,NA,NA,7426640,7426656,16,525.8,565.7,0.985530000000002,101.269999999999,56.8100000000001,"NO",NA,7426381,7426639,258,"No",NA,NA,NA,NA,NA,"Yes"
"114",98,73,"ben",114,7431106113,7437931,"6","?ok","ben",7432344,7436207,"571",7433785,7433792,7433782,7.262,3,7433771,7433789,18,534.3,597.2,1.55363,133.379999999999,79.3000000000001,"NO",NA,7433790,7434155,365,"Yes","right","right",1404.17,1,"Yes","Yes"
"115",98,1,"ben",115,7441875114,7449594,"5","s?t","bir",7443152,7447242,"496",7444620,7444629,7444617,8.95,3,7444608,7444626,18,473.1,526.3,1.31404,133.38,66.6899999999999,"NO",NA,7444627,7444908,281,"Yes","right","right",2033.09,1,"Yes","Yes"
"116",98,13,"ben",116,7451806115,7459548,"3","t?p","bir",7452304,7459236,"424",7454007,7454014,7454004,7.138,3,7453997,7454022,25,410.5,502.9,2.28228,148.2,86.4975,"NO",NA,7454023,7454413,390,"No",NA,NA,NA,NA,"Yes","Yes"
"117",98,16,"identical",117,7463270116,7469611,"4","jet",NA,7463950,7467648,"497",NA,NA,7465470,NA,NA,7465455,7465494,39,428.6,615,4.60408,224.77,114.638875,"NO",NA,7465495,7465797,302,"Yes","right","right",1643.039,1,NA,NA
"118",98,67,"ben",118,7472042117,7481986,"4","iyi","ben",7472742,7478763,"496",7475545,7475554,7475931,8.333,-386,7475925,7475944,19,482.8,547.4,1.59562,143.26,77.74325,"NO",NA,7475945,7476235,290,"Yes","right","right",2896.647,1,"Yes","Yes"
"119",98,40,"identical",119,7484558118,7489723,"6","sel",NA,7485164,7489402,"557",NA,NA,7486915,NA,NA,7486896,7486920,24,465.8,570.9,2.59597,195.129999999999,102.7026,"NO",NA,7486921,7487179,258,"No",NA,NA,NA,NA,NA,"Yes"
"120",98,2,"identical",120,7491579119,7496056,"5","mor",NA,7492067,7495744,"605",NA,NA,7494281,NA,NA,7494178,7494316,138,592,650.5,1.44495,NA,NA,"YES",60,7494317,7494453,136,"No",NA,NA,NA,NA,NA,"Yes"
"121",98,62,"identical",121,7498421120,7504362,"7","pes",NA,7499067,7504044,"773",NA,NA,7502785,NA,NA,7502763,7502791,28,681.4,792.2,2.73676,164.254999999999,93.9025862068965,"NO",NA,7502792,7503043,251,"No",NA,NA,NA,NA,NA,"Yes"
"122",98,27,"ben",122,7506237121,7512299,"4","tok","bir",7506863,7510791,"448",7508604,7508611,7508602,6.95,2,7508584,7508604,20,386.6,454.6,1.6796,127.205,79.59575,"NO",NA,7508605,7508816,211,"Yes","right","right",1182.973,1,"Yes","Yes"
"123",98,6,"identical",123,7514478122,7521375,"4","sis",NA,7515209,7518911,"424",NA,NA,7516761,NA,NA,7516750,7516769,19,391.7,451.4,1.47459,102.505,72.345,"NO",NA,7516770,7517028,258,"Yes","right","right",2147.234,1,NA,"Yes"
"124",98,53,"ben",124,7523131123,7528639,"5","sos","ben",7523656,7526911,"450",7525204,7525212,7525200,8.204,4,7525193,7525212,19,432.1,499.9,1.67466,134.615,81.705,"NO",NA,7525213,7525335,122,"Yes","right","right",1404.098,1,"Yes","Yes"
"125",98,81,"ben",125,7531042124,7536148,"3","evi","ben",7531527,7535837,"435",7532752,7532757,7532749,5.605,3,7532739,7532761,22,410.4,487.1,1.89449,153.14,81.8858695652174,"NO",NA,7532762,7533233,471,"No",NA,NA,NA,NA,"Yes","Yes"
"126",98,9,"ben",126,7537944125,7543512,"5","f?n","bir",7538526,7542359,"568",7540678,7540687,7540675,9.334,3,7540665,7540688,23,543.7,633.7,2.223,193.894999999999,91.1327083333333,"NO",NA,7540689,7540898,209,"Yes","right","right",828.447,1,"Yes","Yes"
"127",98,24,"identical",127,7545351126,7551133,"4","?ok",NA,7545834,7549755,"447",NA,NA,7547301,NA,NA,7547479,7547504,25,454.2,568.2,2.8158,217.36,106.875,"NO",NA,7547301,7547478,177,"Yes","right","right",1050.088,1,NA,NA
"128",98,11,"ben",128,7553140127,7557410,"3","k??","bir",7554068,7557094,"496",7555816,7555824,7555813,8.478,3,7555807,7555829,22,486.6,570,2.05998,175.370000000001,89.0810869565217,"NO",NA,7555830,7556051,221,"No",NA,NA,NA,NA,"Yes","Yes"
"129",98,60,"identical",129,7559295128,7563455,"3","pul",NA,7559908,7563143,"413",NA,NA,7561429,NA,NA,7561418,7561438,20,380.1,441.7,1.52152,113.62,70.395,"NO",NA,7561439,7561636,197,"No",NA,NA,NA,NA,NA,NA
"130",98,61,"ben",130,7565278129,7570916,"5","?ok","ben",7565910,7570604,"533",7567705,7567712,7567702,7.525,3,7567685,7567705,20,475.6,539.4,1.57586,146.965,75.829,"NO",NA,7567706,7567940,234,"No",NA,NA,NA,NA,"Yes","Yes"
"131",98,37,"ben",131,7572915130,7578353,"6","?ok","bir",7573589,7578040,"724",7575579,7575587,7575576,8.763,3,7575557,7575581,24,651.6,743.2,2.26252,155.609999999999,88.0308,"NO",NA,7575582,7575828,246,"No",NA,NA,NA,NA,"Yes","Yes"
"132",98,76,"identical",132,7583515131,7591717,"7","top",NA,7584464,7589970,"797",NA,NA,7586988,NA,NA,7586978,7587002,24,766.1,854.8,2.19089,130.91,85.9066,"NO",NA,7587003,7587332,329,"Yes","right","right",1426.124,1,NA,"Yes"
"133",98,80,"identical",133,7595949132,7606840,"7","ge?",NA,7598712,7604158,"832",NA,NA,7601618,NA,NA,7601600,7601619,19,771.7,833.6,1.52893,134.615,75.2115,"NO",NA,7601620,7601854,234,"Yes","right","right",2362.359,1,NA,"Yes"
"134",98,3,"ben",134,7638059133,7649467,"5","sis","bir",7643102,7647195,"520",7645434,7645442,7645431,8.721,3,7645415,7645438,23,454.9,549.7,2.34156,158.080000000001,96.02125,"NO",NA,7645439,7645835,396,"Yes","right","right",1946.766,1,"Yes","Yes"
"135",98,30,"identical",135,7651597134,7657462,"7","?ok",NA,7652141,7657145,"677",NA,NA,7654411,NA,NA,7654396,7654417,21,634.9,696,1.50917,104.975,66.5215909090909,"NO",NA,7654418,7654641,223,"No",NA,NA,NA,NA,NA,"Yes"
"136",98,10,"identical",136,7659198135,7663314,"4","k?f",NA,7659687,7663000,"485",NA,NA,7661714,NA,NA,7661695,7661715,20,417,487.9,1.75123,154.375,82.0980952380952,"NO",NA,7661716,7661877,161,"No",NA,NA,NA,NA,NA,"Yes"
"137",98,19,"ben",137,7665295136,7669917,"4","buz","bir",7666173,7669594,"508",7667573,7667583,7667571,9.424,2,7668003,7668026,23,507.4,585.2,1.92166,133.379999999999,78.4739583333334,"NO",NA,7667561,7668002,441,"No",NA,NA,NA,NA,"Yes","Yes"
"138",98,54,"identical",138,7671822137,7681630,"5","toz",NA,7672250,7678041,"604",NA,NA,7674767,NA,NA,7674976,7674996,20,612.4,679.9,1.66725,127.205000000001,78.6283333333334,"NO",NA,7674763,7674975,212,"Yes","right","right",3265.841,1,NA,"Yes"
"139",98,23,"ben",139,7683834138,7691960,"7","s?t","bir",7684318,7690374,"676",7687315,7687321,7687313,6.317,2,7687300,7687321,21,629.6,706.1,1.88955,158.080000000001,85.6854761904762,"NO",NA,7687322,7687548,226,"Yes","right","right",1261.307,1,"Yes","Yes"
"140",98,48,"identical",140,7693660139,7699321,"4","ucu",NA,7694224,7697399,"533",NA,NA,7696063,NA,NA,7696044,7696065,21,461,542.8,2.02046,161.785,89.3690909090909,"NO",NA,7696066,7696237,171,"Yes","right","right",1598.274,1,NA,"Yes"
"141",98,43,"ben",141,7701179140,7706224,"7","?ok","ben",7701628,7705908,"665",7703920,7703926,7703917,6.839,3,7704363,7704388,25,665.5,759.9,2.33168,144.494999999999,88.73,"NO",NA,7703908,7704362,454,"No",NA,NA,NA,NA,"Yes","Yes"
"142",98,34,"identical",142,7709279141,7714503,"8","kin",NA,7709649,7714190,"724",NA,NA,7712052,NA,NA,7712041,7712060,19,689.4,748.3,1.45483,123.5,70.2715,"NO",NA,7712061,7712294,233,"No",NA,NA,NA,NA,NA,NA
"143",98,47,"ben",143,7716559142,7721939,"4","buz","ben",7717387,7721624,"557",7719114,7719122,7719111,7.623,3,7719104,7719123,19,541.1,606.5,1.61538,133.379999999999,79.4105,"NO",NA,7719124,7719311,187,"No",NA,NA,NA,NA,"Yes","Yes"
"144",98,7,"ben",144,7723767143,7729342,"4","ada","bir",7724278,7729029,"509",7726183,7726188,7726179,5.703,4,7726174,7726196,22,501.8,585.9,2.07727,164.254999999999,88.5978260869565,"NO",NA,7726197,7726714,517,"No",NA,NA,NA,NA,"Yes","Yes"
"145",98,66,"identical",145,7731346144,7739780,"10","?ut",NA,7731965,7739460,"906",NA,NA,7735179,NA,NA,7735163,7735181,18,851.6,912.3,1.49929,113.619999999999,75.92,"NO",NA,7735182,7735576,394,"No",NA,NA,NA,NA,NA,"Yes"
"146",98,74,"identical",146,7741931145,7750268,"6","?al",NA,7742426,7749951,"725",NA,NA,7747399,NA,NA,7747387,7747406,19,688.6,743.2,1.34862,101.270000000001,65.26975,"NO",NA,7747407,7747568,161,"No",NA,NA,NA,NA,NA,"Yes"
"147",98,44,"identical",147,7752284146,7759131,"5","eve",NA,7752963,7758815,"534",NA,NA,7754355,NA,NA,7754336,7754355,19,478.2,536.1,1.43013,107.445000000001,69.0365,"NO",NA,7754356,7754547,191,"No",NA,NA,NA,NA,NA,"Yes"
"148",98,52,"identical",148,7765271147,7770610,"5","hap",NA,7766945,7770294,"483",NA,NA,7768075,NA,NA,7768065,7768082,17,451.4,507,1.37332,134.615,74.1686111111111,"NO",NA,7768083,7768198,115,"No",NA,NA,NA,NA,NA,"Yes"
"149",98,25,"ben",149,7772480148,7778147,"4","hi?","bir",7772968,7776596,"508",7774379,7774386,7774375,7.695,4,7774650,7774670,20,512.4,580.7,1.68701,129.675,79.0400000000001,"NO",NA,7774372,7774649,277,"Yes","right","right",1228.445,1,"Yes","Yes"
"150",98,71,"ben",150,7780081149,7786942,"5","ilk","ben",7780572,7785284,"545",7782511,7782520,7782507,9.379,4,7782501,7782521,20,534.4,605.2,1.74876,138.320000000001,81.3335714285715,"NO",NA,7782522,7782704,182,"Yes","right","right",1337.538,1,"Yes","Yes"
"151",98,21,"ben",151,7789003150,7794446,"4","eve","bir",7789490,7794131,"484",7791090,7791096,7791088,6.384,2,7791535,7791552,17,494,531,0.9139,82.7449999999999,49.0569444444444,"NO",NA,7791075,7791534,459,"No",NA,NA,NA,NA,"Yes",NA
"152",98,12,"identical",152,7796235151,7801198,"3","hep",NA,7796731,7800881,"435",NA,NA,7798039,NA,NA,7797955,7798084,129,392.2,477.7,2.11185,NA,NA,"YES",41,7798085,7798284,199,"No",NA,NA,NA,NA,NA,"Yes"
"153",98,35,"ben",153,7803686152,7810577,"5","t?y","bir",7804319,7809213,"533",7806254,7806262,7806250,8.759,4,7806235,7806255,20,479.9,547.8,1.67713,119.795000000001,77.5109523809524,"NO",NA,7806256,7806380,124,"Yes","right","right",1043.05,1,"Yes",NA
"154",98,18,"identical",154,7812733153,7817096,"5","zor",NA,7813233,7816786,"472",NA,NA,7814955,NA,NA,7814943,7814963,20,426.3,497.7,1.76358,132.145000000001,81.8040476190476,"NO",NA,7814964,7815261,297,"No",NA,NA,NA,NA,NA,"Yes"
"155",98,26,"identical",155,7818984154,7826559,"4","?ok",NA,7821896,7826239,"605",NA,NA,7823784,NA,NA,7823776,7823803,27,586.7,698.6,2.76393,184.015,97.4767857142857,"NO",NA,7823804,7824166,362,"No",NA,NA,NA,NA,NA,"Yes"
"156",98,36,"identical",156,7828417155,7834663,"2","zil",NA,7829283,7832966,"377",NA,NA,7830378,NA,NA,7830362,7830379,17,339,378.7,0.98059,80.275,52.6933333333333,"NO",NA,7830380,7830632,252,"Yes","right","right",1371.968,1,NA,NA
"157",98,45,"ben",157,7836746156,7842666,"4","hep","ben",7837342,7842351,"532",7839516,7839524,7839513,7.947,3,7839506,7839528,22,518.9,598.4,1.96365,138.320000000001,84.4095652173913,"NO",NA,7839529,7839814,285,"No",NA,NA,NA,NA,"Yes","Yes"
"158",98,63,"ben",158,7845564157,7856580,"8","f?n","ben",7846410,7855090,"904",7851478,7851486,7851475,8.802,3,7851461,7851482,21,857.3,922.8,1.61785,133.379999999999,71.9106818181818,"NO",NA,7851483,7851922,439,"Yes","right","right",1163.484,1,"Yes","Yes"
"159",98,59,"ben",159,7858454158,7865159,"6","ku?","ben",7859070,7864844,"580",7861885,7861894,7861882,9.125,3,7861871,7861894,23,546.4,637.8,2.25758,144.495000000001,92.9471739130434,"NO",NA,7861895,7862021,126,"No",NA,NA,NA,NA,"Yes","Yes"
"160",98,5,"ben",160,7867343159,7873704,"2","dut","bir",7868251,7873247,"377",7869217,7869222,7869215,5.715,2,7869369,7869385,16,384.6,434.9,1.24241,108.68,71.2667647058823,"NO",NA,7869213,7869368,155,"Yes","right","right",129.06,1,"Yes","Yes"
"161",98,55,"ben",161,7875817160,7886160,"6","g?n","ben",7876338,7885841,"533",7879574,7879579,7879570,5.857,4,7879672,7879694,22,534.4,612.4,1.9266,150.669999999999,83.0671739130434,"NO",NA,7879695,7879860,165,"No",NA,NA,NA,NA,"Yes","Yes"
"162",98,78,"identical",162,7894835161,7900707,"4","tur",NA,7895497,7900395,"376",NA,NA,7897708,NA,NA,7897700,7897722,22,359.4,440.3,1.99823,164.255,86.0204347826087,"NO",NA,7897723,7898035,312,"No",NA,NA,NA,NA,NA,"Yes"
"163",98,20,"identical",163,7902445162,7905626,"4","tat",NA,7903013,7905307,"364",NA,NA,7904130,NA,NA,7904119,7904138,19,329.7,395.2,1.61785,130.91,78.6695,"NO",NA,7904139,7904368,229,"No",NA,NA,NA,NA,NA,"Yes"
"164",98,28,"identical",164,7908294163,7913137,"5","ara",NA,7908878,7912825,"651",NA,NA,7911175,NA,NA,7911157,7911185,28,559.5,694.2,3.32709,226.004999999999,114.684655172414,"NO",NA,7911186,7911374,188,"No",NA,NA,NA,NA,NA,"Yes"
"165",98,39,"ben",165,7915352164,7925501,"7","ge?","bir",7915844,7924019,"711",7922411,7922418,7922408,6.885,3,7922398,7922418,20,676.4,745.4,1.7043,132.145000000001,82.4362500000001,"NO",NA,7922419,7922952,533,"Yes","right","right",1157.605,1,"Yes","Yes"
"166",98,46,"identical",166,7927601165,7933138,"6","hi?",NA,7928216,7932821,"581",NA,NA,7930027,NA,NA,7929956,7930082,126,575.5,626.2,1.25229,NA,NA,"YES",42,7930083,7930398,315,"No",NA,NA,NA,NA,NA,"Yes"
"167",98,82,"identical",167,7935034166,7944001,"6","ya?",NA,7935599,7941025,"605",NA,NA,7938473,NA,NA,7938458,7938477,19,552,621.4,1.71418,132.145000000001,83.05375,"NO",NA,7938478,7938753,275,"Yes","right","right",2650.576,1,NA,"Yes"
"168",98,38,"identical",168,7956715167,7962592,"5","iyi",NA,7957614,7962279,"567",NA,NA,7959613,NA,NA,7959600,7959618,18,526.3,583.9,1.42272,121.030000000001,74.425,"NO",NA,7959619,7959746,127,"No",NA,NA,NA,NA,NA,"Yes"
"169",98,51,"ben",169,7964447168,7970062,"3","sa?","ben",7965160,7969745,"376",7966505,7966511,7966503,6.601,2,7966488,7966505,17,328,379.9,1.28193,130.91,70.9035294117647,"NO",NA,7966506,7966576,70,"No",NA,NA,NA,NA,"Yes",NA
"170",98,33,"ben",170,7971961169,7976716,"3","hi?","bir",7972459,7976397,"399",7974173,7974182,7974170,9.454,3,7974152,7974171,19,337.6,401.7,1.58327,122.265,76.9405,"NO",NA,7974172,7974248,76,"No",NA,NA,NA,NA,"Yes","Yes"
"171",98,8,"identical",171,7978922170,7982076,"2","dil",NA,7979588,7981757,"376",NA,NA,7980540,NA,NA,7980528,7980544,16,332.6,388.9,1.39061,117.325,78.6041176470588,"NO",NA,7980545,7980850,305,"No",NA,NA,NA,NA,NA,NA
"172",98,68,"identical",172,7984819171,7991738,"9","ile",NA,7985498,7991422,"858",NA,NA,7989051,NA,NA,7989045,7989067,22,844.3,918.7,1.83768,127.204999999999,77.4828260869566,"NO",NA,7989068,7989273,205,"No",NA,NA,NA,NA,NA,"Yes"
"173",98,32,"identical",173,7993819172,7998316,"6","top",NA,7994321,7997997,"568",NA,NA,7996278,NA,NA,7996260,7996281,21,505.2,575.3,1.73147,116.090000000001,77.1875,"NO",NA,7996282,7996465,183,"No",NA,NA,NA,NA,NA,NA
"174",98,83,"ben",174,8000364173,8007862,"4","kez","ben",8000994,8007523,"389",8002867,8002876,8002864,9.051,3,8002857,8002876,19,372.8,422.9,1.23747,86.45,59.345,"NO",NA,8002877,8003041,164,"No",NA,NA,NA,NA,"Yes","Yes"
"175",98,58,"identical",175,8009787174,8018666,"6","pis",NA,8010409,8018349,"604",NA,NA,8014713,NA,NA,8014696,8014715,19,550.6,607.2,1.39802,122.265,68.666,"NO",NA,8014716,8014865,149,"No",NA,NA,NA,NA,NA,"Yes"
"176",98,4,"identical",176,8020494175,8027752,"5","iyi",NA,8021116,8027442,"531",NA,NA,8023632,NA,NA,8023615,8023642,27,462,570.9,2.68983,146.965,94.8303571428571,"NO",NA,8023643,8023759,116,"No",NA,NA,NA,NA,NA,"Yes"
"177",98,21,"ben",177,8155092176,8168952,"2","?i?","bir",8155733,8158312,"353",8156368,8156376,8156365,8.004,3,8156989,8157009,20,358.8,427.1,1.68701,123.5,78.6871428571429,"NO",NA,8156357,8156988,631,"Yes","right","right",10304.579,1,"Yes","Yes"
"178",98,15,"ben",178,8170768177,8179531,"4","??k","bir",8172847,8179205,"473",8174714,8174720,8174711,6.939,3,8174699,8174717,18,437.8,487.6,1.23006,108.68,62.53,"NO",NA,8174718,8174812,94,"No",NA,NA,NA,NA,"Yes","Yes"
"179",98,87,"ben",179,8181555178,8195196,"6","kek","ben",8182120,8194870,"581",8184844,8184852,8187231,8.745,-2387,8184714,8187292,2578,330.7,636.2,7.54585,NA,NA,"YES",2486,8187293,8187378,85,"No",NA,NA,NA,NA,"Yes","Yes"
"180",98,9,"ben",180,8198749179,8204275,"3","saf","bir",8199272,8203947,"495",8200656,8200665,8200652,9.619,4,8200634,8200654,20,430.6,499.5,1.70183,133.379999999999,78.5107142857143,"NO",NA,8200655,8200977,322,"No",NA,NA,NA,NA,"Yes","Yes"
"181",98,8,"identical",181,8207095180,8212979,"5","k?r",NA,8207656,8211391,"521",NA,NA,8209494,NA,NA,8209478,8209502,24,455.9,556.8,2.49223,164.255,97.7132,"NO",NA,8209503,8209755,252,"Yes","right","right",1257.562,1,NA,"Yes"
"182",98,86,"identical",182,8214897181,8221574,"6","pek",NA,8215577,8221247,"700",NA,NA,8218138,NA,NA,8218125,8218145,20,654.5,720.4,1.62773,130.909999999999,76.0995238095238,"NO",NA,8218146,8218350,204,"No",NA,NA,NA,NA,NA,"Yes"
"183",98,24,"identical",183,8223434182,8229336,"5","tuz",NA,8223924,8229006,"592",NA,NA,8226401,NA,NA,8226384,8226403,19,540.6,596.1,1.37085,98.8,66.443,"NO",NA,8226404,8226548,144,"No",NA,NA,NA,NA,NA,"Yes"
"184",98,12,"identical",184,8231618183,8237306,"5","hep",NA,8232091,8236977,"460",NA,NA,8234923,NA,NA,8234899,8234926,27,354.5,460.6,2.62067,167.96,97.0618518518518,"NO",NA,8235242,8235419,177,"No",NA,NA,NA,NA,NA,"Yes"
"185",98,43,"ben",185,8239187184,8248118,"5","nem","bir",8240396,8247790,"521",8242733,8242740,8242730,7.533,3,8242722,8242740,18,501.2,550.5,1.21771,104.975,64.0141666666667,"NO",NA,8242741,8243195,454,"No",NA,NA,NA,NA,"Yes","Yes"
"186",98,50,"identical",186,8250379185,8258189,"2","cam",NA,8250966,8255590,"339",NA,NA,8252945,NA,NA,8252933,8252952,19,299.9,361.8,1.52893,129.675,74.77925,"NO",NA,8252953,8253135,182,"Yes","right","right",2262.495,1,NA,"Yes"
"187",98,3,"ben",187,8262607186,8268727,"5","ge?","bir",8263884,8268404,"497",8266094,8266103,8266092,9.204,2,8266078,8266099,21,452.8,523.2,1.73888,112.385,76.6822727272728,"NO",NA,8266100,8266247,147,"No",NA,NA,NA,NA,"Yes","Yes"
"188",98,28,"identical",188,8270581187,8279849,"4","?t?",NA,8271050,8276031,"533",NA,NA,8272690,NA,NA,8272671,8272693,22,459.5,542.4,2.04763,165.49,87.1480434782608,"NO",NA,8272694,8272995,301,"Yes","right","right",3483.089,1,NA,"Yes"
"189",98,42,"identical",189,8291224188,8297716,"6","ba?",NA,8292352,8297390,"557",NA,NA,8294990,NA,NA,8294969,8294993,24,481.2,566.1,2.09703,161.784999999999,83.0414,"NO",NA,8294994,8295295,301,"No",NA,NA,NA,NA,NA,"Yes"
"190",98,52,"identical",190,8299972189,8304785,"4","g?n",NA,8300607,8304454,"424",NA,NA,8302317,NA,NA,8302313,8302334,21,415,488,1.8031,118.56,80.2188636363637,"NO",NA,8302335,8302504,169,"No",NA,NA,NA,NA,NA,NA
"191",98,81,"ben",191,8306590190,8312113,"3","ucu","ben",8307235,8311783,"389",8308626,8308633,8308623,6.704,3,8308602,8308625,23,305.2,392.7,2.16125,150.67,88.9714583333333,"NO",NA,8308626,8308891,265,"No",NA,NA,NA,NA,"Yes",NA
"192",98,10,"identical",192,8313965191,8319774,"5","fal",NA,8314622,8319449,"448",NA,NA,8316072,NA,NA,8316058,8316077,19,398.2,465.4,1.65984,118.56,79.96625,"NO",NA,8316078,8316244,166,"No",NA,NA,NA,NA,NA,"Yes"
"193",98,88,"identical",193,8321782192,8327136,"4","dar",NA,8322355,8325499,"520",NA,NA,8323868,NA,NA,8324014,8324031,17,521.6,570.2,1.20042,107.444999999999,63.6025,"NO",NA,8323862,8324013,151,"Yes","right","right",1292.369,1,NA,"Yes"
"194",98,58,"identical",194,8329057193,8336440,"5","iyi",NA,8329622,8334490,"521",NA,NA,8331237,NA,NA,8331209,8331307,98,479,557.7,1.94389,NA,NA,"YES",16,8331308,8331466,158,"Yes","right","right",1608.933,1,NA,"Yes"
"195",98,41,"ben",195,8338387194,8352905,"3","ela","bir",8339245,8343949,"340",8340024,8340033,8340021,9.406,3,8340623,8340640,17,341.8,391.1,1.21771,93.8599999999996,65.2491666666667,"NO",NA,8340018,8340622,604,"Yes","right","right",8619.298,1,"Yes","Yes"
"196",98,37,"ben",196,8354749195,8359975,"4","bo?","bir",8355387,8359643,"388",8357782,8357790,8357779,8.361,3,8357762,8357784,22,318,403.8,2.11926,144.495,90.799347826087,"NO",NA,8357785,8358086,301,"No",NA,NA,NA,NA,"Yes","Yes"
"197",98,60,"identical",197,8362120196,8369971,"6","kez",NA,8362620,8369646,"642",NA,NA,8365321,NA,NA,8365309,8365329,20,605.1,665.9,1.50176,123.5,70.5714285714286,"NO",NA,8365330,8365510,180,"No",NA,NA,NA,NA,NA,"Yes"
"198",98,29,"ben",198,8372007197,8380242,"5","s?t","bir",8372819,8379911,"556",8376560,8376569,8376558,8.849,2,8376546,8376561,15,530.8,562.9,0.792870000000001,81.5100000000003,46.3896875,"NO",NA,8376562,8376849,287,"No",NA,NA,NA,NA,"Yes","Yes"
"199",98,47,"ben",199,8384787198,8389695,"3","?ay","ben",8385749,8389369,"413",8387109,8387117,8387107,8.919,2,8387085,8387107,22,337.7,414.4,1.89449,118.56,81.2952173913043,"NO",NA,8387108,8387455,347,"No",NA,NA,NA,NA,"Yes","Yes"
"200",98,84,"identical",200,8391702199,8399083,"6","du?",NA,8392282,8398753,"618",NA,NA,8395278,NA,NA,8395631,8395651,20,622,691.3,1.71171,145.730000000001,79.8633333333333,"NO",NA,8395267,8395630,363,"No",NA,NA,NA,NA,NA,"Yes"
"201",98,34,"identical",201,8401652200,8406636,"6","tas",NA,8402926,8406306,"496",NA,NA,8405403,NA,NA,8405396,8405411,15,477.4,521.9,1.09915,100.035,66.226875,"NO",NA,8405412,8405613,201,"No",NA,NA,NA,NA,NA,NA
"202",98,56,"identical",202,8409190201,8414048,"4","ile",NA,8410001,8413721,"438",NA,NA,8411203,NA,NA,8411186,8411206,20,393.3,447.3,1.3338,87.6850000000003,62.3675,"NO",NA,8411207,8411339,132,"No",NA,NA,NA,NA,NA,"Yes"
"203",98,7,"ben",203,8415912202,8422360,"7","s?r","bir",8416487,8422027,"628",8418644,8418652,8418641,8.074,3,8418623,8418647,24,568.1,645.7,1.91672,145.729999999999,78.2496000000001,"NO",NA,8418648,8419023,375,"No",NA,NA,NA,NA,"Yes","Yes"
"204",98,74,"identical",204,8424281203,8429846,"5","ile",NA,8424775,8429513,"582",NA,NA,8427160,NA,NA,8427147,8427167,20,536.9,611,1.83027,144.495000000001,85.1561904761905,"NO",NA,8427168,8427384,216,"No",NA,NA,NA,NA,NA,"Yes"
"205",98,49,"ben",205,8431817204,8438532,"5","iyi","ben",8433101,8438210,"497",8435220,8435228,8435217,8.508,3,8435199,8435217,18,444.2,498.9,1.35109,104.975,68.705,"NO",NA,8435218,8435710,492,"No",NA,NA,NA,NA,"Yes","Yes"
"206",98,67,"ben",206,8441187205,8447536,"8","ge?","ben",8441802,8447209,"688",8445487,8445493,8445484,6.51,3,8445474,8445492,18,661.9,716.6,1.35109,112.385,68.315,"NO",NA,8445493,8446097,604,"No",NA,NA,NA,NA,"Yes","Yes"
"207",98,33,"ben",207,8449337206,8456799,"5","ta?","bir",8450178,8455422,"604",8452758,8452764,8452754,5.975,4,8452746,8452768,22,585.6,654.1,1.69195,135.85,72.5428260869565,"NO",NA,8452769,8453129,360,"Yes","right","right",1040.997,1,"Yes","Yes"
"208",98,64,"identical",208,8459126207,8463985,"5","zor",NA,8459613,8463655,"533",NA,NA,8460880,NA,NA,8460866,8460888,22,478.2,565,2.14396,169.195,91.8732608695653,"NO",NA,8460889,8460965,76,"No",NA,NA,NA,NA,NA,"Yes"
"209",98,20,"identical",209,8465991208,8470513,"3","pas",NA,8466495,8470184,"352",NA,NA,8468227,NA,NA,8468216,8468237,21,321.3,388.9,1.66972,114.855,74.4929545454545,"NO",NA,8468238,8468422,184,"No",NA,NA,NA,NA,NA,"Yes"
"210",98,55,"ben",210,8472448209,8478850,"5","iri","ben",8472915,8478521,"509",8475718,8475726,8475715,8.419,3,8475698,8475719,21,434.4,518.8,2.08468,179.075,93.6354545454545,"NO",NA,8475720,8476133,413,"No",NA,NA,NA,NA,"Yes","Yes"
"211",98,62,"identical",211,8485859210,8491779,"6","not",NA,8486834,8491457,"617",NA,NA,8489512,NA,NA,8489503,8489529,26,596.5,708.2,2.75899,206.244999999999,101.590185185185,"NO",NA,8489530,8489822,292,"No",NA,NA,NA,NA,NA,NA
"212",98,30,"identical",212,8493723211,8499524,"7","ac?",NA,8494763,8499199,"665",NA,NA,8496942,NA,NA,8496933,8496954,21,641.5,707.8,1.63761,139.554999999999,72.5281818181818,"NO",NA,8496955,8497190,235,"No",NA,NA,NA,NA,NA,"Yes"
"213",98,59,"ben",213,8501509212,8511889,"5","hi?","ben",8502718,8509093,"497",8505434,8505442,8505430,7.991,4,8505885,8505913,28,361.3,500.3,3.4333,217.36,117.495344827586,"NO",NA,8505428,8505550,122,"Yes","right","right",2459.024,1,"Yes","Yes"
"214",98,35,"ben",214,8516712213,8522868,"5","has","bir",8517359,8522542,"424",8519540,8519549,8519537,9.165,3,8519518,8519538,20,359.3,427.4,1.68207,132.145,78.4519047619047,"NO",NA,8519539,8519614,75,"No",NA,NA,NA,NA,"Yes","Yes"
"215",98,80,"identical",215,8537643214,8546195,"6","yer",NA,8538511,8543508,"568",NA,NA,8540751,NA,NA,8540733,8540752,19,505.1,572.1,1.6549,142.025,81.51,"NO",NA,8540753,8541040,287,"Yes","right","right",2352.001,1,NA,"Yes"
"216",98,54,"identical",216,8549397215,8556666,"2","iyi",NA,8550128,8554156,"268",NA,NA,8550792,NA,NA,8550779,8550795,16,225.6,274.2,1.20042,108.68,71.0125,"NO",NA,8550796,8551045,249,"Yes","right","right",2172.911,1,NA,"Yes"
"217",98,26,"identical",217,8559157216,8565370,"7","ke?",NA,8559934,8565043,"784",NA,NA,8561889,NA,NA,8561874,8561901,27,721.9,840.4,2.92695,193.894999999999,103.651785714286,"NO",NA,8561902,8562252,350,"No",NA,NA,NA,NA,NA,"Yes"
"218",98,6,"identical",218,8567183217,8573923,"5","bal",NA,8567826,8571828,"605",NA,NA,8569859,NA,NA,8569852,8569875,23,590.2,683.3,2.29957,163.020000000001,93.3454166666667,"NO",NA,8569876,8570174,298,"Yes","right","right",1766.532,1,NA,NA
"219",98,17,"ben",219,8577296218,8585378,"2","iri","bir",8577979,8582941,"376",8578808,8578813,8578805,5.22,3,8579289,8579311,22,364.4,445.4,2.0007,127.205,85.0002173913044,"NO",NA,8579312,8579481,169,"Yes","right","right",2103.99,1,"Yes",NA
"220",98,18,"identical",220,8588043219,8594282,"3","kan",NA,8588640,8593955,"473",NA,NA,8592233,NA,NA,8592303,8592324,21,474.2,536.8,1.54622,118.56,68.9354545454545,"NO",NA,8592325,8592500,175,"No",NA,NA,NA,NA,NA,NA
"221",98,53,"ben",221,8596156220,8601944,"3","kez","ben",8596662,8601616,"401",8598118,8598126,8598116,7.828,2,8598726,8598745,19,341.8,406.9,1.60797,121.03,77.86675,"NO",NA,8598116,8598286,170,"No",NA,NA,NA,NA,"Yes","Yes"
"222",98,2,"identical",222,8603857221,8608672,"6","?ok",NA,8604341,8608343,"532",NA,NA,8605973,NA,NA,8605953,8605978,25,436,546.5,2.72935,193.895,104.12,"NO",NA,8605979,8606189,210,"No",NA,NA,NA,NA,NA,"Yes"
"223",98,5,"ben",223,8610534222,8615541,"7","?n?","bir",8611148,8615213,"521",8612715,8612721,8612712,6.114,3,8612871,8612890,19,532.1,594,1.52893,135.85,75.4585,"NO",NA,8612712,8612870,158,"No",NA,NA,NA,NA,"Yes","Yes"
"224",98,25,"ben",224,8618264223,8621502,"4","d?n","bir",8618831,8621176,"412",8620168,8620174,8620165,6.934,3,8620158,8620176,18,396.3,456.6,1.48941,117.325,76.635,"NO",NA,8620177,8620575,398,"No",NA,NA,NA,NA,"Yes",NA
"225",98,77,"ben",225,8623913224,8627938,"2","tu?","ben",8624687,8627614,"352",8625783,8625789,8625781,6.364,2,8626073,8626209,136,354.7,388.1,0.824980000000001,NA,NA,"YES",61,8625746,8626072,326,"No",NA,NA,NA,NA,"Yes","Yes"
"226",98,69,"ben",226,8630457225,8635033,"4","kez","ben",8631232,8634705,"509",8632991,8632997,8632988,6.137,3,8633251,8633273,22,509,600.9,2.26993,190.19,96.920652173913,"NO",NA,8633274,8633459,185,"No",NA,NA,NA,NA,"Yes","Yes"
"227",98,73,"ben",227,8637714226,8644612,"6","zor","ben",8638632,8644284,"581",8641853,8641860,8641850,7.929,3,8642457,8642484,27,561.8,662.5,2.48729,154.375,88.6994642857143,"NO",NA,8642485,8642680,195,"No",NA,NA,NA,NA,"Yes","Yes"
"228",98,66,"identical",228,8646802227,8653040,"5","zor",NA,8647588,8651657,"616",NA,NA,8649841,NA,NA,8649836,8649863,27,610.8,720.6,2.71206,185.25,97.0357142857143,"NO",NA,8649864,8650136,272,"Yes","right","right",1042.473,1,NA,"Yes"
"229",98,65,"ben",229,8654990228,8666238,"8","s?t","ben",8656531,8665915,"762",8659485,8659492,8659483,7.655,2,8659467,8659488,21,715.4,778.3,1.55363,116.09,68.5986363636363,"NO",NA,8659489,8659919,430,"No",NA,NA,NA,NA,"Yes","Yes"
"230",98,46,"identical",230,8667982229,8672574,"2","kar",NA,8668435,8672246,"330",NA,NA,8669119,NA,NA,8669304,8669324,20,338,403.6,1.62032,125.97,75.9230952380952,"NO",NA,8669117,8669303,186,"No",NA,NA,NA,NA,NA,"Yes"
"231",98,14,"identical",231,8674361230,8680360,"3","ipi",NA,8674792,8678790,"376",NA,NA,8676396,NA,NA,8676572,8676593,21,388,460.5,1.79075,123.5,79.6013636363636,"NO",NA,8676395,8676571,176,"Yes","right","right",1237.515,1,NA,"Yes"
"232",98,61,"ben",232,8682330231,8690548,"6","her","ben",8683810,8689225,"531",8685347,8685354,8685345,6.932,2,8685374,8685394,20,536.8,601.7,1.60303,119.794999999999,74.5116666666668,"NO",NA,8685395,8685760,365,"Yes","right","right",986.74,1,"Yes","Yes"
"233",98,11,"ben",233,8692478232,8697584,"5","bo?","bir",8693220,8697258,"593",8695295,8695302,8695292,7.16,3,8695274,8695295,21,525.4,600.6,1.85744,134.615,84.8621428571429,"NO",NA,8695296,8695581,285,"No",NA,NA,NA,NA,"Yes",NA
"234",98,32,"identical",234,8699380233,8704279,"6","top",NA,8700024,8703951,"591",NA,NA,8702784,NA,NA,8702766,8702789,23,518.4,604,2.11432,137.085,87.2733333333333,"NO",NA,8702790,8703004,214,"No",NA,NA,NA,NA,NA,NA
"235",98,45,"ben",235,8706158234,8713024,"4","g?n","ben",8706635,8712700,"399",8709058,8709067,8709055,9.102,3,8709052,8709069,17,395.8,450,1.33874,106.21,72.3161111111111,"NO",NA,8709070,8709389,319,"No",NA,NA,NA,NA,"Yes","Yes"
"236",98,19,"ben",236,8714848235,8722054,"5","pil","bir",8715440,8719531,"497",8717516,8717522,8717513,5.987,3,8717504,8717524,20,472.2,527,1.35356,116.09,62.985,"NO",NA,8717525,8717763,238,"Yes","right","right",2179.841,1,"Yes","Yes"
"237",98,71,"ben",237,8723837236,8730074,"7","zor","ben",8724625,8727819,"725",8726632,8726640,8726629,8.333,3,8726618,8726635,17,690.7,739.9,1.21524,124.735,66.1411111111111,"NO",NA,8726636,8726903,267,"Yes","right","right",1916.995,1,"Yes","Yes"
"238",98,1,"ben",238,8737362237,8756835,"6","?al","bir",8744313,8756503,"663",8747047,8747054,8747043,7.059,4,8747025,8747051,26,588.7,692.6,2.56633,161.784999999999,93.9057407407407,"NO",NA,8747052,8747444,392,"No",NA,NA,NA,NA,"Yes","Yes"
"239",98,38,"identical",239,8758486238,8763638,"6","t?y",NA,8759200,8762298,"594",NA,NA,8761285,NA,NA,8761280,8761303,23,591,672.5,2.01305,143.26,82.9508333333333,"NO",NA,8761304,8761671,367,"Yes","right","right",1007.424,1,NA,NA
"240",98,4,"identical",240,8765735239,8770090,"7","g?k",NA,8766416,8769766,"532",NA,NA,8767948,NA,NA,8767936,8767952,16,500.8,543.3,1.04975,81.5100000000003,59.7885294117647,"NO",NA,8767953,8768155,202,"No",NA,NA,NA,NA,NA,"Yes"
"241",98,22,"identical",241,8772873240,8778635,"3","g?k",NA,8773470,8778313,"364",NA,NA,8775292,NA,NA,8775284,8775302,18,343.8,397.9,1.33627,95.0949999999999,67.795,"NO",NA,8775303,8775487,184,"No",NA,NA,NA,NA,NA,"Yes"
"242",98,36,"identical",242,8780471241,8784105,"3","hep",NA,8781178,8783777,"424",NA,NA,8782117,NA,NA,8782104,8782123,19,383.4,443.7,1.48941,117.325,72.0005,"NO",NA,8782124,8782406,282,"No",NA,NA,NA,NA,NA,"Yes"
"243",98,72,"identical",243,8785931242,8790082,"3","gri",NA,8786401,8789750,"414",NA,NA,8787627,NA,NA,8787625,8787645,20,411.7,481.3,1.71912,137.085,80.3926190476191,"NO",NA,8787646,8787833,187,"No",NA,NA,NA,NA,NA,NA
"244",98,75,"ben",244,8791970243,8796015,"3","iyi","ben",8792537,8795695,"341",8793355,8793362,8793351,7.738,4,8793338,8793356,18,293,356.7,1.57339,132.145000000001,80.405,"NO",NA,8793357,8793574,217,"No",NA,NA,NA,NA,"Yes","Yes"
"245",98,68,"identical",245,8798412244,8805611,"6","ile",NA,8799185,8805289,"522",NA,NA,8801354,NA,NA,8801351,8801373,22,516.8,602.5,2.11679,132.144999999999,89.4569565217391,"NO",NA,8801374,8801615,241,"No",NA,NA,NA,NA,NA,"Yes"
"246",98,79,"ben",246,8807549245,8814860,"6","yem","ben",8808153,8812590,"569",8809754,8809759,8809750,5.869,4,8809735,8809758,23,508.6,598.3,2.21559,164.254999999999,90.5666666666666,"NO",NA,8809759,8810193,434,"Yes","right","right",1939.704,1,"Yes","Yes"
"247",98,57,"ben",247,8816940246,8828274,"5","kez","ben",8820876,8827949,"520",8824395,8824400,8824392,5.409,3,8825045,8825069,24,482.2,580,2.41566,185.25,95.9842,"NO",NA,8825070,8825297,227,"No",NA,NA,NA,NA,"Yes","Yes"
"248",98,83,"ben",248,8830353247,8837561,"5","zor","ben",8830924,8837242,"555",8833371,8833377,8833368,6.035,3,8833361,8833381,20,542.9,611.7,1.69936,148.2,79.6280952380953,"NO",NA,8833382,8833641,259,"No",NA,NA,NA,NA,"Yes","Yes"
"249",98,31,"ben",249,8839587248,8844964,"5","kel","bir",8841135,8844645,"567",8842812,8842820,8842809,8.563,3,8843193,8843211,18,572.7,621,1.19301,93.8600000000003,61.3599999999999,"NO",NA,8842805,8843192,387,"No",NA,NA,NA,NA,"Yes",NA
"250",98,40,"identical",250,8846884249,8852055,"6","cam",NA,8847475,8851735,"569",NA,NA,8849126,NA,NA,8849433,8849454,21,570.9,634.2,1.56351,133.379999999999,70.1143181818182,"NO",NA,8849126,8849432,306,"No",NA,NA,NA,NA,NA,"Yes"
"251",98,27,"ben",251,8853885250,8858500,"3","?ok","bir",8854274,8858181,"423",8855699,8855705,8855696,6.423,3,8855694,8855710,16,420.4,469,1.20042,108.68,68.5061764705883,"NO",NA,8855711,8855935,224,"No",NA,NA,NA,NA,"Yes","Yes"
"252",98,44,"identical",252,8861090251,8869275,"4","muz",NA,8861795,8866737,"437",NA,NA,8863698,NA,NA,8864005,8864023,18,445.5,510.2,1.59809,132.145,81.51,"NO",NA,8863695,8864004,309,"Yes","right","right",2189.814,1,NA,"Yes"
"253",98,70,"identical",253,8871543252,8877879,"7","g?n",NA,8872019,8877560,"617",NA,NA,8874646,NA,NA,8874634,8874659,25,576.6,671.7,2.34897,159.315000000001,89.2525,"NO",NA,8874660,8874924,264,"No",NA,NA,NA,NA,NA,"Yes"
"254",98,85,"ben",254,8879913253,8887321,"5","ipi","ben",8880390,8886999,"676",8882878,8882884,8882875,6.78,3,8882869,8882880,11,667.9,691,0.570570000000001,74.1,44.2541666666668,"NO",NA,8882881,8883183,302,"No",NA,NA,NA,NA,"Yes","Yes"
"255",98,51,"ben",255,8889826254,8902828,"5","eve","ben",8890547,8902506,"509",8893177,8893183,8893173,6.299,4,8893156,8893173,17,459,509.5,1.24735,100.035,67.1702777777778,"NO",NA,8893174,8893371,197,"No",NA,NA,NA,NA,"Yes","Yes"
"256",98,39,"ben",256,8918255255,8924882,"4","ma?","bir",8918811,8924560,"448",8921429,8921434,8921426,5.702,3,8921409,8921429,20,384.4,455,1.74382,134.615,82.251,"NO",NA,8921430,8921620,190,"No",NA,NA,NA,NA,"Yes","Yes"
"257",98,63,"ben",257,8926797256,8933427,"5","d??","ben",8927500,8931727,"388",8929190,8929197,8929186,7.648,4,8929177,8929197,20,362.1,431.9,1.72406,133.38,82.004,"NO",NA,8929198,8929389,191,"Yes","right","right",1373.062,1,"Yes","Yes"
"258",98,82,"identical",258,8935361257,8940172,"5","?ok",NA,8936380,8939850,"665",NA,NA,8937880,NA,NA,8937876,8937900,24,659.7,741.4,2.01799,151.904999999999,79.1388,"NO",NA,8937901,8938196,295,"No",NA,NA,NA,NA,NA,NA
"259",98,78,"identical",259,8942211258,8947392,"6","kez",NA,8942841,8947069,"569",NA,NA,8945210,NA,NA,8945198,8945217,19,534.3,596.4,1.53387,121.029999999999,74.841,"NO",NA,8945218,8945368,150,"No",NA,NA,NA,NA,NA,"Yes"
"260",98,76,"identical",260,8949372259,8957201,"6","top",NA,8950228,8955440,"605",NA,NA,8952853,NA,NA,8952841,8952865,24,565.8,662.2,2.38108,151.904999999999,93.55125,"NO",NA,8952866,8953186,320,"Yes","right","right",1431.482,1,NA,"Yes"
"261",98,48,"identical",261,8959182260,8966655,"4","iyi",NA,8959789,8965137,"555",NA,NA,8961522,NA,NA,8961512,8961533,21,529.9,593,1.55857,107.445000000001,68.5425,"NO",NA,8961534,8961774,240,"Yes","right","right",1190.978,1,NA,"Yes"
"262",98,23,"ben",262,8968480261,8973053,"6","fay","bir",8969333,8972735,"593",8971736,8971743,8971732,7.851,4,8972260,8972400,140,576.4,698.2,3.00846,NA,NA,"YES",57,8971731,8972062,331,"No",NA,NA,NA,NA,"Yes","Yes"
"263",98,16,"identical",263,8974827262,8978822,"2","sis",NA,8975660,8978496,"245",NA,NA,8976262,NA,NA,8976246,8976267,21,187.3,262.4,1.85497,148.2,83.2502272727273,"NO",NA,8976268,8976389,121,"No",NA,NA,NA,NA,NA,"Yes"
"264",98,13,"ben",264,8993273263,9012978,"3","eti","bir",9006326,9011374,"400",9006884,9006890,9006882,6.219,2,9008951,9008969,18,340.5,401.3,1.50176,111.15,76.115,"NO",NA,9008970,9009172,202,"Yes","right","right",1272.727,1,"Yes","Yes"
"265",99,15,"identical",1,170054090,17010212,"3","kez",NA,17006702,17009906,"424",NA,NA,17007899,NA,NA,17007882,17007901,19,375.8,427.8,1.2844,104.975,62.855,"NO",NA,17007902,17008127,225,"No",NA,NA,NA,NA,NA,NA
"266",99,17,"identical",2,170159571,17025423,"6","?ok",NA,17017318,17022735,"605",NA,NA,17020628,NA,NA,17020624,17020641,17,600.5,654.7,1.33874,107.444999999999,71.5613888888889,"NO",NA,17020642,17020813,171,"Yes","right","right",2400.617,1,NA,"Yes"
"267",99,3,"identical",3,170273572,17030726,"2","hi?",NA,17028501,17030448,"341",NA,NA,17029089,NA,NA,17029077,17029096,19,302,368.9,1.65243,134.615,81.016,"NO",NA,17029097,17029265,168,"No",NA,NA,NA,NA,NA,"Yes"
"268",99,5,"identical",4,170327563,17036820,"4","i?e",NA,17033264,17036542,"460",NA,NA,17034451,NA,NA,17034437,17034454,17,408.8,466.9,1.43507,140.79,78.3538888888889,"NO",NA,17034455,17034696,241,"No",NA,NA,NA,NA,NA,"Yes"
"269",99,4,"ben",5,170388144,17042714,"4","eve","bir",17039463,17042430,"472",17040494,17040501,17040492,7.329,2,17040475,17040497,22,410.9,490,1.95377,149.435,82.3691304347826,"NO",NA,17040498,17040792,294,"No",NA,NA,NA,NA,"Yes","Yes"
"270",99,2,"ben",6,170460335,17052960,"5","aya","bir",17046741,17050627,"759",17048487,17048493,17048485,5.861,2,17048473,17048496,23,718.8,805.2,2.13408,149.435,87.8393750000001,"NO",NA,17048497,17048847,350,"Yes","left","left",2044.688,1,"Yes","Yes"
"271",99,1,"identical",7,170559416,17060388,"5","ak?",NA,17056656,17060106,"582",NA,NA,17058416,NA,NA,17058624,17058639,15,582.3,620.8,0.95095,100.035,57.4275000000001,"NO",NA,17058640,17058774,134,"No",NA,NA,NA,NA,NA,"Yes"
"272",99,18,"ben",8,170630927,17067824,"4","ta?","ben",17063756,17067548,"472",17064943,17064948,17064942,5.253,1,17065278,17065301,23,476.2,553.4,1.90684,160.55,78.9885416666667,"NO",NA,17064936,17065277,341,"No",NA,NA,NA,NA,"Yes","Yes"
"273",99,14,"ben",9,170705378,17076928,"7","g?l","ben",17071326,17074924,"546",17073601,17073608,17073600,6.936,1,17073580,17073601,21,478.9,549.3,1.73888,123.5,79.2164285714286,"NO",NA,17073602,17073854,252,"Yes","right","right",1719.103,1,"Yes","Yes"
"274",99,16,"ben",10,170797209,17084982,"8","ara","ben",17080165,17084699,"820",17083166,17083173,17083164,6.552,2,17083152,17083172,20,779.6,854.8,1.85744,138.320000000001,85.8619047619047,"NO",NA,17083173,17083568,395,"No",NA,NA,NA,NA,"Yes","Yes"
"275",99,81,"identical",11,1708990210,17095707,"6","?ok",NA,17090426,17093100,"571",NA,NA,17091775,NA,NA,17091766,17091789,23,548.1,639,2.24523,175.369999999999,92.161875,"NO",NA,17091790,17092018,228,"Yes","left","left",2303.996,1,NA,"Yes"
"276",99,121,"identical",12,1709905811,17106754,"4","?t?",NA,17100412,17103978,"533",NA,NA,17102064,NA,NA,17102338,17102360,22,541.1,621,1.97353,156.844999999999,84.1947826086956,"NO",NA,17102062,17102337,275,"Yes","right","right",2475.289,1,NA,NA
"277",99,7,"identical",13,1710933512,17113899,"5","bol",NA,17109889,17113602,"567",NA,NA,17112284,NA,NA,17112574,17112596,22,575.6,656.1,1.98835,129.675,83.8189130434783,"NO",NA,17112283,17112573,290,"No",NA,NA,NA,NA,NA,"Yes"
"278",99,126,"ben",14,1711626213,17122027,"6","kez","ben",17116751,17121732,"569",17120296,17120305,17120295,8.537,1,17120284,17120304,20,533.1,598,1.60303,134.615,75.7466666666667,"NO",NA,17120305,17120515,210,"No",NA,NA,NA,NA,"Yes","Yes"
"279",99,57,"identical",15,1712451614,17131014,"5","f?n",NA,17125193,17128614,"568",NA,NA,17127133,NA,NA,17127123,17127143,20,533.5,600.2,1.64749,137.085,76.8052380952381,"NO",NA,17127144,17127274,130,"Yes","right","right",2100.148,1,NA,"Yes"
"280",99,64,"ben",16,1713332315,17154892,"4","jet","bir",17133744,17136884,"497",17134864,17134870,17134862,6.27,2,17134853,17134878,25,473.1,602.7,3.20112,227.240000000001,121.8375,"NO",NA,17134879,17135298,419,"Yes","left","left",17704.078,1,"Yes","Yes"
"281",99,118,"ben",17,1715701816,17171632,"4","d?n","bir",17166133,17171341,"412",17168306,17168315,17168304,8.889,2,17168290,17168308,18,378.6,421.4,1.05716,83.9800000000001,52.715,"NO",NA,17168309,17168500,191,"No",NA,NA,NA,NA,"Yes","Yes"
"282",99,93,"identical",18,1717458617,17178776,"6","?al",NA,17175093,17178480,"663",NA,NA,17176894,NA,NA,17176880,17176900,20,617.7,681.5,1.57586,132.144999999999,72.3945238095238,"NO",NA,17176901,17177141,240,"No",NA,NA,NA,NA,NA,"Yes"
"283",99,32,"ben",19,1718424918,17191699,"3","iyi","bir",17188975,17191407,"352",17189895,17189901,17189893,5.843,2,17189885,17189901,16,330,380.2,1.23994,104.975,71.2440625,"NO",NA,17189902,17190068,166,"No",NA,NA,NA,NA,"Yes","Yes"
"284",99,77,"identical",20,1719375019,17199552,"2","tok",NA,17194468,17197026,"316",NA,NA,17195357,NA,NA,17195342,17195358,16,277,318.6,1.02752,100.035,58.3355882352941,"NO",NA,17195359,17195514,155,"Yes","left","left",2227.365,1,NA,"Yes"
"285",99,2,"ben",21,1720179220,17209908,"6","g?n","ben",17202585,17209607,"508",17206224,17206231,17206223,7.047,1,17206207,17206228,21,457.7,526.3,1.69442,122.265,74.9420454545454,"NO",NA,17206229,17206746,517,"No",NA,NA,NA,NA,"Yes",NA
"286",99,85,"identical",22,1721198721,17215628,"6","mum",NA,17212463,17215335,"593",NA,NA,17213830,NA,NA,17213821,17213841,20,570.8,639,1.68454,161.785,78.922380952381,"NO",NA,17213842,17214082,240,"No",NA,NA,NA,NA,NA,"Yes"
"287",99,117,"identical",23,1721807422,17226315,"5","tuz",NA,17218565,17226005,"592",NA,NA,17220213,NA,NA,17220198,17220221,23,536.4,622.7,2.13161,172.9,89.1347826086956,"NO",NA,17220222,17220438,216,"No",NA,NA,NA,NA,NA,"Yes"
"288",99,131,"identical",24,1723276323,17240855,"6","zor",NA,17233486,17240556,"592",NA,NA,17235839,NA,NA,17235818,17235841,23,516.5,599.8,2.05751,153.14,85.1613043478261,"NO",NA,17235842,17236108,266,"No",NA,NA,NA,NA,NA,"Yes"
"289",99,38,"ben",25,1724420124,17249984,"3","s?t","bir",17246445,17249686,"377",17247094,17247100,17247092,6.19,2,17247073,17247098,25,281.8,394.3,2.77875,216.125,105.83,"NO",NA,17247099,17247432,333,"No",NA,NA,NA,NA,"Yes","Yes"
"290",99,30,"ben",26,1725207725,17256145,"6","eko","bir",17252757,17255845,"653",17255058,17255089,17255056,31.11,2,17255042,17255064,22,607.4,684.5,1.90437,149.435,81.4026086956522,"NO",NA,17255065,17255288,223,"No",NA,NA,NA,NA,"Yes","Yes"
"291",99,40,"ben",27,1725793626,17261931,"8","onu","ben",17258480,17261639,"736",17260755,17260761,17260754,5.919,1,17260735,17260760,25,667.5,752.7,2.10444,153.14,79.4675,"NO",NA,17260761,17261082,321,"No",NA,NA,NA,NA,"Yes","Yes"
"292",99,64,"ben",28,1726373627,17267609,"5","tuz","ben",17264244,17267316,"508",17265932,17265937,17265931,5.086,1,17265915,17265938,23,444.9,532.6,2.16619,164.255,89.84625,"NO",NA,17265939,17266268,329,"No",NA,NA,NA,NA,"Yes",NA
"293",99,13,"identical",29,1726948628,17272393,"3","ney",NA,17270121,17272094,"316",NA,NA,17270539,NA,NA,17270680,17270707,27,314.5,444.8,3.21841,272.935,114.458035714286,"NO",NA,17270533,17270679,146,"No",NA,NA,NA,NA,NA,"Yes"
"294",99,8,"ben",30,1727519529,17284074,"4","eve","ben",17277171,17280086,"508",17278259,17278268,17278257,8.514,2,17278244,17278266,22,472,544.3,1.78581,142.025000000001,79.8991304347826,"NO",NA,17278267,17278768,501,"Yes","left","left",3683.897,1,"Yes","Yes"
"295",99,17,"identical",31,1728613330,17294044,"6","?ok",NA,17286643,17290626,"605",NA,NA,17288468,NA,NA,17288453,17288475,22,557.1,629.8,1.79569,132.145000000001,76.6236956521739,"NO",NA,17288476,17288632,156,"Yes","right","right",3112.886,1,NA,"Yes"
"296",99,125,"identical",32,1729588331,17301548,"4","top",NA,17297063,17301251,"412",NA,NA,17300295,NA,NA,17300485,17300506,21,416.7,489.6,1.80063,140.79,81.4538636363636,"NO",NA,17300295,17300484,189,"No",NA,NA,NA,NA,NA,"Yes"
"297",99,67,"identical",33,1730371132,17307665,"5","zor",NA,17304350,17307376,"472",NA,NA,17305706,NA,NA,17305685,17305706,21,402.7,472.2,1.71665,133.38,76.7945454545455,"NO",NA,17305707,17305914,207,"No",NA,NA,NA,NA,NA,"Yes"
"298",99,83,"identical",34,1731130233,17316704,"2","a??",NA,17311991,17314834,"294",NA,NA,17312805,NA,NA,17312988,17313005,17,294.2,342.9,1.20289,96.3300000000001,63.7397222222222,"NO",NA,17313006,17313317,311,"Yes","left","left",1567.151,1,NA,NA
"299",99,55,"identical",35,1731930034,17323524,"4","ada",NA,17319817,17323229,"509",NA,NA,17321546,NA,NA,17321926,17321946,20,508.6,585.1,1.88955,151.904999999999,87.8026190476191,"NO",NA,17321546,17321925,379,"No",NA,NA,NA,NA,NA,"Yes"
"300",99,125,"identical",36,1732603435,17329952,"2","tu?",NA,17326754,17329654,"352",NA,NA,17327592,NA,NA,17327583,17327604,21,331.4,414,2.04022,160.55,92.1197727272727,"NO",NA,17327605,17328363,758,"No",NA,NA,NA,NA,NA,"Yes"
"301",99,95,"identical",37,1733305436,17337305,"3","?ay",NA,17333703,17337004,"413",NA,NA,17335504,NA,NA,17335490,17335515,25,359.2,455.5,2.37861,167.96,90.5825,"NO",NA,17335516,17335755,239,"No",NA,NA,NA,NA,NA,"Yes"
"302",99,132,"ben",38,1734018237,17346423,"4","ma?","bir",17340702,17346135,"448",17343241,17343251,17343238,9.433,3,17343227,17343244,17,412.3,461.9,1.22512,109.915,66.3469444444444,"NO",NA,17343245,17343405,160,"No",NA,NA,NA,NA,"Yes","Yes"
"303",99,59,"identical",39,1734996838,17352936,"3","k??",NA,17350441,17352630,"496",NA,NA,17351918,NA,NA,17351910,17351933,23,485,589.6,2.58362,213.654999999999,106.004166666667,"NO",NA,17351934,17352227,293,"No",NA,NA,NA,NA,NA,"Yes"
"304",99,75,"identical",40,1735548839,17373462,"4","iyi",NA,17356156,17368929,"496",NA,NA,17357224,NA,NA,17357202,17357228,26,384.3,505.3,2.9887,247,110.372407407407,"NO",NA,17357229,17357463,234,"Yes","left","left",4231.93,1,NA,"Yes"
"305",99,136,"ben",41,1737624040,17386167,"5","nem","bir",17376958,17385875,"521",17379464,17379473,17379461,9.036,3,17379449,17379473,24,488.4,579.8,2.25758,207.479999999999,90.3608333333333,"NO",NA,17379474,17379744,270,"No",NA,NA,NA,NA,"Yes","Yes"
"306",99,27,"identical",42,1742516141,17429928,"6","sos",NA,17425757,17429632,"519",NA,NA,17427577,NA,NA,17427558,17427579,21,464.7,527.6,1.55363,107.445000000001,67.7004545454545,"NO",NA,17427580,17427716,136,"No",NA,NA,NA,NA,NA,"Yes"
"307",99,9,"identical",43,1743451342,17439607,"5","???",NA,17435134,17439315,"461",NA,NA,17437164,NA,NA,17437156,17437177,21,440.8,522.2,2.01058,153.14,90.0427272727273,"NO",NA,17437178,17437412,234,"No",NA,NA,NA,NA,NA,"Yes"
"308",99,124,"ben",44,1744766843,17459007,"6","top","ben",17448285,17456617,"605",17451164,17451172,17451162,7.645,2,17451152,17451172,20,578.8,641.9,1.55857,133.379999999999,73.42075,"NO",NA,17451173,17451293,120,"Yes","left","left",2086.995,1,"Yes","Yes"
"309",99,110,"ben",45,1746231344,17470562,"2","iri","bir",17463569,17467061,"376",17464547,17464553,17464545,5.581,2,17464528,17464546,18,316.8,380.7,1.57833,125.97,80.925,"NO",NA,17464547,17464771,224,"Yes","right","right",3196.009,1,"Yes","Yes"
"310",99,112,"ben",46,1747347045,17480297,"5","pil","bir",17474126,17477300,"497",17475439,17475448,17475436,8.885,3,17475856,17475872,16,492.5,542.6,1.23747,139.554999999999,72.1385294117648,"NO",NA,17475873,17476032,159,"Yes","right","right",2701.332,1,"Yes","Yes"
"311",99,10,"ben",47,1748308346,17487719,"5","bo?","bir",17483590,17487419,"604",17485446,17485455,17485444,8.64,2,17485426,17485448,22,527.1,611.4,2.08221,184.015000000001,89.9402173913043,"NO",NA,17485449,17485953,504,"No",NA,NA,NA,NA,"Yes","Yes"
"312",99,11,"identical",48,1749031547,17501492,"3","ile",NA,17490952,17495441,"413",NA,NA,17494067,NA,NA,17494060,17494079,19,396.7,463.1,1.64008,124.735,80.46025,"NO",NA,17494080,17494330,250,"Yes","right","right",5748.102,1,NA,"Yes"
"313",99,20,"ben",49,1750540348,17510145,"7","hep","ben",17506156,17509851,"761",17507795,17507804,17507794,8.884,1,17507779,17507808,29,704.6,835.5,3.23323,202.54,106.21,"NO",NA,17507809,17508165,356,"No",NA,NA,NA,NA,"Yes","Yes"
"314",99,126,"ben",50,1751270249,17519033,"5","ta?","bir",17513210,17516517,"604",17515319,17515329,17515318,9.543,1,17515299,17515329,30,498.3,659.6,3.98411,256.880000000001,130.580666666667,"NO",NA,17515330,17515675,345,"Yes","right","right",2209.971,1,"Yes","Yes"
"315",99,39,"identical",51,1752133050,17525069,"5","ama",NA,17521832,17524769,"522",NA,NA,17523780,NA,NA,17523763,17523786,23,457.9,541.6,2.06739,185.25,84.5460416666667,"NO",NA,17523787,17523962,175,"No",NA,NA,NA,NA,NA,"Yes"
"316",99,52,"ben",52,1752844751,17531829,"2","hep","ben",17529123,17531533,"340",17529696,17529703,17529694,6.756,2,17529902,17529921,19,343.6,407.7,1.58327,148.2,77.6815,"NO",NA,17529692,17529901,209,"No",NA,NA,NA,NA,"Yes",NA
"317",99,129,"identical",53,1753351352,17538891,"2","ucu",NA,17534449,17538584,"329",NA,NA,17535588,NA,NA,17535569,17535589,20,257,331.7,1.84509,164.255,87.0380952380952,"NO",NA,17535590,17535843,253,"No",NA,NA,NA,NA,NA,"Yes"
"318",99,110,"ben",54,1754149853,17546184,"6","not","ben",17542012,17545892,"617",17543882,17543889,17543880,6.814,2,17544484,17544510,26,568.6,683.3,2.83309,211.185,104.929259259259,"NO",NA,17544511,17544797,286,"No",NA,NA,NA,NA,"Yes","Yes"
"319",99,35,"identical",55,1754803654,17552829,"5","kez",NA,17548548,17552531,"568",NA,NA,17550707,NA,NA,17550696,17550717,21,532.9,605.4,1.79075,150.669999999999,80.039761904762,"NO",NA,17550718,17550914,196,"No",NA,NA,NA,NA,NA,"Yes"
"320",99,60,"ben",56,1755454955,17560423,"3","hep","bir",17555185,17560132,"435",17556656,17556665,17556654,9.232,2,17556634,17556654,20,374.1,435.5,1.51658,123.5,70.395,"NO",NA,17556655,17556863,208,"No",NA,NA,NA,NA,"Yes","Yes"
"321",99,94,"ben",57,1756211056,17565536,"2","kar","ben",17562609,17565234,"330",17563465,17563473,17563463,7.638,2,17563455,17563473,18,309.2,364.8,1.37332,122.265,72.4533333333333,"NO",NA,17563474,17564071,597,"No",NA,NA,NA,NA,"Yes","Yes"
"322",99,23,"identical",58,1756781457,17572879,"4","fal",NA,17568478,17572585,"472",NA,NA,17570328,NA,NA,17570322,17570342,20,460.1,531.5,1.76358,145.73,82.2745238095238,"NO",NA,17570343,17570692,349,"No",NA,NA,NA,NA,NA,"Yes"
"323",99,17,"identical",59,1757527258,17581924,"2","caz",NA,17576091,17578388,"245",NA,NA,17576719,NA,NA,17576709,17576727,18,213.8,277.3,1.56845,171.665,80.86,"NO",NA,17576728,17576945,217,"Yes","left","left",3236.697,1,NA,"Yes"
"324",99,21,"identical",60,1758733959,17592296,"6","hi?",NA,17587916,17592001,"688",NA,NA,17589919,NA,NA,17589902,17589923,21,626.1,698.7,1.79322,154.375,80.6679545454546,"NO",NA,17589924,17590138,214,"No",NA,NA,NA,NA,NA,"Yes"
"325",99,51,"identical",61,1759517260,17602258,"5","sis",NA,17595733,17599413,"520",NA,NA,17597467,NA,NA,17597457,17597487,30,491.8,626.2,3.31968,193.895000000001,106.927096774194,"NO",NA,17597488,17597712,224,"Yes","right","right",2545.159,1,NA,"Yes"
"326",99,100,"ben",62,1760428461,17612921,"7","s?r","bir",17604776,17612622,"628",17607593,17607600,17607591,6.673,2,17607562,17607626,64,292.2,1003,17.55676,497.705,270.085,"NO",NA,17607627,17607830,203,"No",NA,NA,NA,NA,"Yes","Yes"
"327",99,54,"ben",63,1761671962,17628778,"2","sis","bir",17617448,17623699,"257",17618296,17618303,17618294,6.869,2,17618281,17618298,17,218.6,268.3,1.22759,101.27,66.4841666666667,"NO",NA,17618299,17618873,574,"Yes","left","left",4776.587,1,"Yes","Yes"
"328",99,104,"ben",64,1763285763,17637040,"4","ile","ben",17633570,17636747,"438",17634597,17634604,17634595,6.858,2,17634581,17634607,26,386.9,476.5,2.21312,155.61,81.0068518518519,"NO",NA,17634608,17634856,248,"No",NA,NA,NA,NA,"Yes","Yes"
"329",99,59,"identical",65,1764041964,17644943,"5","hap",NA,17641074,17644649,"483",NA,NA,17642635,NA,NA,17642618,17642636,18,428.1,487.4,1.46471,143.26,74.295,"NO",NA,17642637,17642878,241,"No",NA,NA,NA,NA,NA,"Yes"
"330",99,5,"identical",66,1764728465,17652313,"4","i?e",NA,17648148,17652020,"460",NA,NA,17650103,NA,NA,17650383,17650406,23,451.1,546.5,2.35638,181.544999999999,97.2047916666667,"NO",NA,17650407,17650716,309,"No",NA,NA,NA,NA,NA,"Yes"
"331",99,71,"identical",67,1765457266,17666644,"8","f?n",NA,17655397,17660508,"904",NA,NA,17658742,NA,NA,17658728,17658747,19,858,916.4,1.44248,117.325,69.71575,"NO",NA,17658748,17658938,190,"Yes","right","right",5835.868,1,NA,"Yes"
"332",99,78,"ben",68,1768156167,17687995,"7","du?","ben",17682106,17687705,"616",17684683,17684692,17684681,8.579,2,17684670,17684687,17,585.6,632.2,1.15102,98.8,61.2697222222222,"NO",NA,17684688,17684890,202,"No",NA,NA,NA,NA,"Yes","Yes"
"333",99,62,"ben",69,1769049068,17696715,"6","g?n","ben",17691144,17696427,"533",17694222,17694231,17694220,9.001,2,17694123,17694283,160,500.5,570.6,1.73147,NA,NA,"YES",58,17694284,17694713,429,"No",NA,NA,NA,NA,"Yes","Yes"
"334",99,123,"identical",70,1769987669,17703443,"3","iyi",NA,17700534,17703146,"341",NA,NA,17701336,NA,NA,17701326,17701345,19,311.3,376.9,1.62032,124.735,79.84275,"NO",NA,17701346,17701545,199,"No",NA,NA,NA,NA,NA,"Yes"
"335",99,58,"ben",71,1770535870,17717774,"4","k?f","bir",17706223,17717480,"485",17713045,17713052,17713042,6.573,3,17713025,17713068,43,355.9,735,9.36377,393.965,213.96375,"NO",NA,17713069,17713316,247,"No",NA,NA,NA,NA,"Yes","Yes"
"336",99,23,"identical",72,1772027971,17726286,"5","ile",NA,17721369,17725992,"520",NA,NA,17724554,NA,NA,17724539,17724558,19,463,533.2,1.73394,135.85,83.98,"NO",NA,17724559,17724722,163,"No",NA,NA,NA,NA,NA,"Yes"
"337",99,99,"identical",73,1772841672,17732889,"5","eve",NA,17729173,17732594,"509",NA,NA,17730613,NA,NA,17730602,17730627,25,471.4,578.4,2.6429,195.129999999999,100.9375,"NO",NA,17730628,17730919,291,"No",NA,NA,NA,NA,NA,"Yes"
"338",99,73,"identical",74,1773483373,17742593,"7","s?t",NA,17735522,17740152,"676",NA,NA,17738260,NA,NA,17738250,17738269,19,652.7,707.2,1.34615,112.384999999999,65.3315,"NO",NA,17738270,17738458,188,"Yes","right","right",2139.384,1,NA,"Yes"
"339",99,46,"ben",75,1774542974,17750180,"5","ile","ben",17745912,17749885,"642",17748167,17748173,17748165,5.505,2,17748151,17748173,22,592.7,669.5,1.89696,134.615,82.5765909090909,"NO",NA,17748174,17748547,373,"No",NA,NA,NA,NA,"Yes","Yes"
"340",99,88,"ben",76,1775214275,17761234,"7","ge?","ben",17752821,17757625,"832",17755414,17755447,17755412,32.88,2,17755616,17755633,17,831.9,875.7,1.08186,90.1549999999994,58.9369444444444,"NO",NA,17755634,17756036,402,"Yes","right","right",3309.21,1,"Yes","Yes"
"341",99,65,"identical",77,1776352676,17768871,"6","?t?",NA,17764145,17768577,"748",NA,NA,17766202,NA,NA,17766112,17766209,97,676.5,751.6,1.85497,658.254999999999,78.1232989690722,"NO",NA,17766210,17766375,165,"No",NA,NA,NA,NA,NA,"Yes"
"342",99,65,"identical",78,1777071277,17776982,"6","pis",NA,17771402,17776687,"604",NA,NA,17773944,NA,NA,17773929,17773948,19,553.7,614.4,1.49929,148.2,73.7912499999999,"NO",NA,17773949,17774156,207,"No",NA,NA,NA,NA,NA,"Yes"
"343",99,84,"ben",79,1777892278,17782451,"3","hi?","bir",17779386,17782159,"399",17780403,17780412,17780400,8.98,3,17780669,17780687,18,405.3,465.4,1.48447,127.205,76.245,"NO",NA,17780398,17780668,270,"No",NA,NA,NA,NA,"Yes","Yes"
"344",99,2,"ben",80,1778435479,17791414,"5","aya","bir",17785101,17789116,"759",17787175,17787182,17787173,6.994,2,17787161,17787178,17,724,769.9,1.13373,109.915,60.9952777777778,"NO",NA,17787179,17787595,416,"Yes","left","left",1989.589,1,"Yes","Yes"
"345",99,106,"ben",81,1779338780,17800343,"3","eti","bir",17793877,17798646,"400",17795156,17795166,17795154,9.608,2,17795149,17795166,17,390.1,442.8,1.30169,118.56,72.2111764705882,"NO",NA,17795167,17795512,345,"Yes","right","right",1400.154,1,"Yes","Yes"
"346",99,28,"ben",82,1780240481,17807445,"6","ge?","bir",17802949,17807157,"593",17804827,17804835,17804824,7.507,3,17805279,17805300,21,599.3,666.4,1.65737,133.380000000001,74.268409090909,"NO",NA,17804822,17805278,456,"No",NA,NA,NA,NA,"Yes","Yes"
"347",99,71,"identical",83,1780926182,17813473,"3","kek",NA,17809878,17813178,"448",NA,NA,17811279,NA,NA,17811264,17811297,33,384.1,535.7,3.74452,191.425,109.878676470588,"NO",NA,17811298,17811518,220,"No",NA,NA,NA,NA,NA,"Yes"
"348",99,57,"identical",84,1781549583,17819876,"4","kan",NA,17816018,17819581,"520",NA,NA,17817837,NA,NA,17817828,17817850,22,497.5,575.4,1.92413,135.85,82.9060869565217,"NO",NA,17817851,17818279,428,"No",NA,NA,NA,NA,NA,"Yes"
"349",99,8,"ben",85,1782184084,17827371,"4","nar","bir",17822508,17827072,"400",17823565,17823572,17823562,6.285,3,17823547,17823567,20,338.8,420.5,2.01799,149.435,94.0364285714286,"NO",NA,17823568,17824084,516,"No",NA,NA,NA,NA,"Yes","Yes"
"350",99,15,"identical",86,1782928985,17839851,"4","bot",NA,17829832,17837374,"483",NA,NA,17832865,NA,NA,17832852,17832872,20,438.3,508,1.72159,144.495,79.9809523809523,"NO",NA,17832873,17833208,335,"Yes","left","left",2172.762,1,NA,"Yes"
"351",99,80,"ben",87,1784217086,17847855,"4","kez","ben",17842813,17847555,"472",17844671,17844678,17844669,6.534,2,17844652,17844671,19,413.4,476.6,1.56104,108.68,77.61,"NO",NA,17844672,17845029,357,"No",NA,NA,NA,NA,"Yes","Yes"
"352",99,9,"identical",88,1785023587,17859576,"7","s?t",NA,17852244,17857323,"651",NA,NA,17854168,NA,NA,17854161,17854177,16,633.5,686.2,1.30169,149.435,73.7367647058824,"NO",NA,17854178,17854335,157,"Yes","right","right",1957.475,1,NA,"Yes"
"353",99,121,"identical",89,1786221488,17866430,"6","zor",NA,17862726,17866136,"581",NA,NA,17864522,NA,NA,17864507,17864529,22,533.3,609.2,1.87473,145.730000000001,79.8454347826087,"NO",NA,17864530,17864764,234,"No",NA,NA,NA,NA,NA,"Yes"
"354",99,82,"ben",90,1786834389,17877051,"4","g??","bir",17869033,17871613,"496",17870672,17870681,17870671,8.772,1,17871260,17871278,18,439.5,499.8,1.48941,158.08,76.635,"NO",NA,17870671,17870916,245,"Yes","left","left",5133.518,1,"Yes","Yes"
"355",99,132,"ben",91,1788027290,17889423,"6","du?","ben",17880817,17889129,"618",17886435,17886444,17886433,8.795,2,17886416,17886435,19,558.1,620.2,1.53387,135.85,79.365,"NO",NA,17886436,17886742,306,"No",NA,NA,NA,NA,"Yes","Yes"
"356",99,102,"ben",92,1792437691,17939606,"2","iyi","ben",17925122,17928743,"268",17925748,17925756,17925745,7.51,3,17926128,17926144,16,221.7,271.3,1.22512,103.74,70.6855882352941,"NO",NA,17925745,17925883,138,"Yes","left","left",10558.735,1,"Yes","Yes"
"357",99,58,"ben",93,1794216592,17953203,"2","sa?","ben",17944897,17952907,"318",17945723,17945732,17945722,8.254,1,17945710,17945734,24,275.4,369.3,2.31933,149.435,91.9334,"NO",NA,17945735,17945904,169,"No",NA,NA,NA,NA,"Yes","Yes"
"358",99,135,"identical",94,1795499193,17959931,"6","ba?",NA,17955621,17959635,"557",NA,NA,17958087,NA,NA,17958070,17958093,23,477.6,573,2.35638,187.720000000001,98.49125,"NO",NA,17958094,17958352,258,"No",NA,NA,NA,NA,NA,"Yes"
"359",99,108,"ben",95,1796184894,17965842,"4","??k","bir",17962471,17965551,"473",17963548,17963555,17963545,6.739,3,17963533,17963556,23,423.4,532.1,2.68489,223.535,110.378125,"NO",NA,17963557,17963973,416,"No",NA,NA,NA,NA,"Yes","Yes"
"360",99,26,"ben",96,1796789195,17973028,"2","dut","bir",17969224,17970489,"305",17970097,17970104,17970096,6.552,1,17970081,17970107,26,239,361.7,3.03069,216.125,112.202037037037,"NO",NA,17970108,17970288,180,"Yes","right","right",2235.021,1,"Yes","Yes"
"361",99,29,"identical",97,1797524296,17979906,"6","t?m",NA,17976060,17979610,"558",NA,NA,17978269,NA,NA,17978251,17978272,21,487.8,568.3,1.98835,172.9,89.0322727272727,"NO",NA,17978273,17978533,260,"No",NA,NA,NA,NA,NA,"Yes"
"362",99,16,"ben",98,1798481997,17990175,"8","ara","ben",17985504,17989868,"820",17988445,17988453,17988444,7.617,1,17988429,17988451,22,765.5,849.2,2.06739,174.135,87.8997826086957,"NO",NA,17988452,17988726,274,"No",NA,NA,NA,NA,"Yes","Yes"
"363",99,3,"identical",99,1799193298,17996938,"2","hi?",NA,17993116,17996641,"341",NA,NA,17995100,NA,NA,17995254,17995273,19,344,402.4,1.44248,128.44,71.07425,"NO",NA,17995090,17995253,163,"No",NA,NA,NA,NA,NA,"Yes"
"364",99,41,"identical",100,1799905499,18006101,"3","ton",NA,18000345,18003102,"340",NA,NA,18001131,NA,NA,18001109,18001134,25,237.5,348.3,2.73676,195.13,104.31,"NO",NA,18001135,18001346,211,"Yes","left","left",2697.73,1,NA,"Yes"
"365",99,53,"identical",101,18008224100,18012111,"3","hi?",NA,18008742,18011820,"390",NA,NA,18009873,NA,NA,18009866,18009885,19,375.5,437,1.51905,121.029999999999,73.853,"NO",NA,18009886,18010081,195,"No",NA,NA,NA,NA,NA,"Yes"
"366",99,50,"ben",102,18045524101,18050136,"5","mor","bir",18046512,18049844,"605",18048716,18048722,18048714,6.355,2,18048696,18048717,21,524.8,612.2,2.15878,191.425,97.565,"NO",NA,18048718,18049106,388,"No",NA,NA,NA,NA,"Yes","Yes"
"367",99,14,"ben",103,18052986102,18059966,"7","g?l","ben",18053961,18058161,"546",18056733,18056739,18056731,6.187,2,18056710,18056732,22,470.4,549.3,1.94883,144.495,82.4228260869565,"NO",NA,18056733,18056952,219,"Yes","right","right",1502.658,1,"Yes","Yes"
"368",99,103,"identical",104,18063232103,18069878,"5","iri",NA,18063947,18069583,"509",NA,NA,18067505,NA,NA,18067498,18067521,23,493,583.6,2.23782,167.96,91.39,"NO",NA,18067522,18067676,154,"No",NA,NA,NA,NA,NA,"Yes"
"369",99,12,"ben",105,18072479104,18077223,"4","ta?","ben",18073170,18076931,"496",18074371,18074379,18074369,8.25,2,18074347,18074372,25,390,501.2,2.74664,213.654999999999,104.88,"NO",NA,18074373,18074650,277,"No",NA,NA,NA,NA,"Yes","Yes"
"370",99,131,"identical",106,18079475105,18085193,"6","t?y",NA,18080186,18082639,"594",NA,NA,18081821,NA,NA,18081817,18081837,20,591.4,663.5,1.78087,143.26,83.4507142857143,"NO",NA,18081838,18082220,382,"Yes","right","right",2254.106,1,NA,"Yes"
"371",99,14,"ben",107,18088204106,18094939,"4","ku?","bir",18088895,18092303,"436",18090138,18090146,18090136,8.316,2,18090128,18090148,20,413.4,477.3,1.57833,114.854999999999,73.7471428571429,"NO",NA,18090149,18090500,351,"Yes","left","left",2334.97,1,"Yes",NA
"372",99,112,"ben",108,18097117107,18101451,"5","zor","ben",18097792,18101161,"533",18098989,18098998,18098989,8.496,0,18099413,18099433,20,529.7,593.6,1.57833,145.730000000001,73.8647619047618,"NO",NA,18099434,18099763,329,"No",NA,NA,NA,NA,"Yes","Yes"
"373",99,62,"ben",109,18103182108,18107561,"4","zil","bir",18103820,18107272,"497",18105475,18105484,18105473,8.742,2,18105465,18105487,22,475.4,559.1,2.06739,169.195,88.92,"NO",NA,18105488,18105779,291,"No",NA,NA,NA,NA,"Yes","Yes"
"374",99,91,"identical",110,18109712109,18114822,"6","sel",NA,18110218,18114528,"557",NA,NA,18112708,NA,NA,18112913,18112934,21,556.2,625.4,1.70924,129.675,76.4577272727272,"NO",NA,18112935,18113270,335,"No",NA,NA,NA,NA,NA,"Yes"
"375",99,109,"identical",111,18117001110,18121392,"2","sis",NA,18117610,18121096,"245",NA,NA,18118715,NA,NA,18118701,18118715,14,205.1,246.1,1.0127,114.855,64.3023333333333,"NO",NA,18118716,18118975,259,"No",NA,NA,NA,NA,NA,"Yes"
"376",99,90,"ben",112,18123482111,18136198,"6","ya?","ben",18124112,18134429,"605",18132389,18132397,18132388,7.444,1,18132890,18132907,17,610.1,664.9,1.35356,129.675,73.4138888888888,"NO",NA,18132381,18132889,508,"Yes","left","left",1464.763,1,"Yes","Yes"
"377",99,108,"ben",113,18138988112,18144468,"6","kez","ben",18139692,18144174,"642",18141660,18141669,18141659,8.828,1,18141642,18141663,21,581.4,655.6,1.83274,158.079999999999,81.7906818181818,"NO",NA,18141664,18141924,260,"No",NA,NA,NA,NA,"Yes","Yes"
"378",99,105,"identical",114,18146293113,18151146,"5","kez",NA,18146804,18150854,"520",NA,NA,18148413,NA,NA,18148599,18148620,21,525.6,604,1.93648,124.735,85.3834090909091,"NO",NA,18148412,18148598,186,"No",NA,NA,NA,NA,NA,"Yes"
"379",99,55,"identical",115,18152934114,18159567,"2","ucu",NA,18153649,18156842,"328",NA,NA,18155039,NA,NA,18155031,18155051,20,310.3,382,1.77099,134.615,82.5097619047619,"NO",NA,18155052,18155353,301,"Yes","left","left",2424.579,1,NA,"Yes"
"380",99,116,"ben",116,18161769115,18165361,"6","fay","bir",18162283,18165070,"593",18163920,18163927,18163918,6.475,2,18163911,18163931,20,580.4,649.2,1.69936,143.26,80.6278571428572,"NO",NA,18163932,18164198,266,"No",NA,NA,NA,NA,"Yes","Yes"
"381",99,1,"identical",117,18167736116,18173014,"4","gri",NA,18168244,18170875,"436",NA,NA,18170227,NA,NA,18170219,18170238,19,415,476.1,1.50917,123.5,74.555,"NO",NA,18170239,18170412,173,"Yes","right","right",1830.719,1,NA,"Yes"
"382",99,79,"identical",118,18175347117,18183027,"5","ilk",NA,18175948,18180384,"545",NA,NA,18177880,NA,NA,18178074,18178097,23,539.7,617.9,1.93154,149.435,78.8341666666666,"NO",NA,18178098,18178330,232,"Yes","right","right",2342.237,1,NA,"Yes"
"383",99,84,"ben",119,18185501118,18192589,"7","top","ben",18186130,18190805,"797",18188725,18188758,18188723,32.481,2,18188713,18188731,18,770.7,820.8,1.23747,107.445000000001,63.1149999999999,"NO",NA,18188732,18189214,482,"Yes","left","left",1479.915,1,"Yes","Yes"
"384",99,128,"ben",120,18194983119,18200009,"5","has","bir",18195444,18199714,"424",18197751,18197759,18197749,7.982,2,18197746,18197773,27,419.7,519.7,2.47,145.729999999999,86.9351785714286,"NO",NA,18197774,18197915,141,"No",NA,NA,NA,NA,"Yes","Yes"
"385",99,34,"ben",121,18201919120,18206503,"4","kot","ben",18202656,18206212,"389",18204203,18204212,18204202,8.752,1,18204199,18204216,17,384.3,431.1,1.15596,90.1550000000001,61.4755555555556,"NO",NA,18204217,18204422,205,"No",NA,NA,NA,NA,"Yes","Yes"
"386",99,18,"ben",122,18208880121,18214715,"6","kar","bir",18209367,18214416,"532",18212283,18212291,18212282,8.237,1,18212261,18212285,24,438.6,540.3,2.51199,184.015,99.8868,"NO",NA,18212286,18212546,260,"No",NA,NA,NA,NA,"Yes",NA
"387",99,97,"identical",123,18216681122,18221777,"7","?n?",NA,18217205,18221481,"521",NA,NA,18219405,NA,NA,18219399,18219419,20,507.3,585.1,1.92166,155.61,89.3904761904762,"NO",NA,18219420,18219819,399,"No",NA,NA,NA,NA,NA,"Yes"
"388",99,107,"identical",124,18223642123,18230531,"3","ipi",NA,18224292,18227872,"376",NA,NA,18226000,NA,NA,18225986,18226010,24,319.6,416.7,2.39837,159.315,94.9962,"NO",NA,18226011,18226440,429,"Yes","left","left",2356.841,1,NA,"Yes"
"389",99,43,"identical",125,18232748124,18235207,"3","fes",NA,18233202,18234918,"449",NA,NA,18234317,NA,NA,18234307,18234329,22,419.5,490.6,1.75617,135.85,75.1739130434783,"NO",NA,18234330,18234581,251,"No",NA,NA,NA,NA,NA,"Yes"
"390",99,89,"identical",126,18237084125,18242177,"3","evi",NA,18237835,18241882,"435",NA,NA,18239492,NA,NA,18239646,18239665,19,441.6,502.6,1.5067,170.429999999999,73.853,"NO",NA,18239487,18239645,158,"No",NA,NA,NA,NA,NA,"Yes"
"391",99,90,"ben",127,18244172126,18250889,"7","ge?","bir",18244781,18249126,"711",18247365,18247371,18247363,5.97,2,18247350,18247369,19,672.4,732.5,1.48447,121.029999999999,72.2475,"NO",NA,18247370,18247671,301,"Yes","right","right",1460.042,1,"Yes","Yes"
"392",99,43,"identical",128,18253332127,18258262,"4","iyi",NA,18253824,18257929,"450",NA,NA,18255910,NA,NA,18256031,18256050,19,454.1,518.1,1.5808,139.555,79.04,"NO",NA,18255910,18256030,120,"No",NA,NA,NA,NA,NA,"Yes"
"393",99,93,"identical",129,18260295128,18264598,"4","g?n",NA,18260794,18264291,"399",NA,NA,18262219,NA,NA,18262213,18262233,20,390.9,448.7,1.42766,122.265,66.4547619047619,"NO",NA,18262234,18262436,202,"No",NA,NA,NA,NA,NA,"Yes"
"394",99,104,"ben",130,18266569129,18271625,"5","bo?","bir",18267172,18271328,"593",18269589,18269595,18269586,6.149,3,18270072,18270089,17,594.3,646.2,1.28193,112.385,69.5030555555556,"NO",NA,18270090,18270367,277,"No",NA,NA,NA,NA,"Yes","Yes"
"395",99,49,"identical",131,18273761130,18280030,"8","kez",NA,18274325,18279731,"833",NA,NA,18277113,NA,NA,18277697,18277717,20,838.4,894.1,1.37579,119.795000000001,64.0435714285714,"NO",NA,18277106,18277696,590,"No",NA,NA,NA,NA,NA,"Yes"
"396",99,53,"identical",132,18282011131,18288380,"2","dut",NA,18282726,18286534,"377",NA,NA,18283747,NA,NA,18283730,18283753,23,308.8,398.8,2.223,161.785,91.4414583333333,"NO",NA,18283754,18284053,299,"Yes","right","right",1542.362,1,NA,"Yes"
"397",99,78,"ben",133,18290948132,18296137,"5","sek","bir",18291540,18295843,"448",18293650,18293659,18293688,8.659,-38,18293688,18293703,15,448.6,487.7,0.965769999999999,98.8,58.2765625,"NO",NA,18293704,18294003,299,"No",NA,NA,NA,NA,"Yes","Yes"
"398",99,5,"identical",134,18298471133,18305587,"5","ile",NA,18299344,18305298,"618",NA,NA,18301865,NA,NA,18301851,18301869,18,569.5,629.4,1.47953,148.2,75.79,"NO",NA,18301870,18302081,211,"No",NA,NA,NA,NA,NA,NA
"399",99,100,"ben",135,18309064134,18313769,"4","g?n","ben",18309605,18313467,"424",18311154,18311161,18311151,6.917,3,18311147,18311164,17,415.2,467.8,1.29922,119.795,70.3263888888889,"NO",NA,18311165,18311457,292,"No",NA,NA,NA,NA,"Yes","Yes"
"400",99,60,"ben",136,18316961135,18333536,"5","sos","ben",18317734,18321901,"450",18320092,18320100,18320090,7.84,2,18320086,18320105,19,441.2,511.2,1.729,149.435,85.52375,"NO",NA,18320106,18320265,159,"Yes","left","left",11325.776,1,"Yes","Yes"
"401",99,48,"ben",137,18336811136,18342665,"3","ter","bir",18338766,18342371,"376",18339773,18339780,18339770,6.635,3,18339762,18339780,18,354.3,417.7,1.56598,123.5,80.1377777777778,"NO",NA,18339781,18340094,313,"No",NA,NA,NA,NA,"Yes","Yes"
"402",99,63,"identical",138,18344766137,18362645,"7","eve",NA,18345273,18352256,"735",NA,NA,18347512,NA,NA,18347500,18347518,18,704.5,752.6,1.18807,93.8600000000003,60.125,"NO",NA,18347519,18347752,233,"Yes","left","left",10088.69,1,NA,"Yes"
"403",99,48,"ben",139,18392662138,18400726,"6","ruj","ben",18393287,18397716,"654",18395334,18395343,18395332,8.806,2,18395320,18395335,15,618.4,663,1.10162,102.505000000001,65.1462500000001,"NO",NA,18395336,18395845,509,"Yes","left","left",2709.337,1,"Yes","Yes"
"404",99,26,"ben",140,18405024139,18411055,"6","kez","ben",18405558,18410757,"738",18407526,18407535,18407524,9.257,2,18407512,18407532,20,702.4,770.3,1.67713,134.615,77.9814285714285,"NO",NA,18407533,18407791,258,"No",NA,NA,NA,NA,"Yes","Yes"
"405",99,122,"ben",141,18413364140,18418742,"5","s?t","bir",18414051,18418448,"556",18416496,18416503,18416494,7.367,2,18416479,18416500,21,500.6,574.9,1.83521,140.790000000001,82.1275,"NO",NA,18416501,18417042,541,"No",NA,NA,NA,NA,"Yes","Yes"
"406",99,76,"ben",142,18421549141,18426859,"9","ile","ben",18422235,18426571,"870",18424442,18424449,18424439,7.389,3,18424422,18424447,25,801.2,900.1,2.44283,159.315,92.72,"NO",NA,18424448,18424710,262,"No",NA,NA,NA,NA,"Yes","Yes"
"407",99,21,"identical",143,18429181142,18432197,"4","zar",NA,18429685,18431901,"484",NA,NA,18430829,NA,NA,18431054,18431075,21,490.2,557.7,1.66725,145.729999999999,75.3911363636364,"NO",NA,18430828,18431053,225,"No",NA,NA,NA,NA,NA,"Yes"
"408",99,37,"identical",144,18434031143,18438625,"5","eve",NA,18434794,18438331,"604",NA,NA,18436942,NA,NA,18437188,18437211,23,611.8,697.5,2.11679,140.79,87.2733333333333,"NO",NA,18436938,18437187,249,"No",NA,NA,NA,NA,NA,"Yes"
"409",99,22,"ben",145,18440440144,18447237,"6","mum","ben",18441126,18445510,"594",18442851,18442857,18442849,5.608,2,18442837,18442860,23,553.7,645.8,2.27487,150.669999999999,93.3454166666667,"NO",NA,18442861,18443119,258,"Yes","left","left",1419.263,1,"Yes","Yes"
"410",99,72,"ben",146,18450154145,18457063,"4","muz","ben",18451879,18456774,"425",18453586,18453594,18453584,7.59,2,18454015,18454091,76,425.1,444.6,0.48165,65.4550000000001,18.6372727272727,"NO",NA,18453582,18454014,432,"No",NA,NA,NA,NA,"Yes","Yes"
"411",99,39,"identical",147,18458659146,18465945,"6","eve",NA,18459438,18463444,"617",NA,NA,18462098,NA,NA,18462087,18462107,20,588.3,638.7,1.24488,108.679999999999,60.3915,"NO",NA,18462108,18462271,163,"Yes","right","right",2194.203,1,NA,"Yes"
"412",99,54,"ben",148,18467923147,18481169,"4","buz","ben",18468426,18480875,"557",18475221,18475230,18475219,8.49,2,18475176,18475220,44,330.4,563,5.74522,242.06,126.271888888889,"NO",NA,18475221,18475562,341,"No",NA,NA,NA,NA,"Yes","Yes"
"413",99,34,"ben",149,18483086148,18490431,"7","iri","bir",18483760,18487527,"581",18485928,18485937,18485926,9.003,2,18485914,18485936,22,543.2,610,1.64996,128.44,70.4486956521739,"NO",NA,18485937,18486146,209,"Yes","right","right",2601.752,1,"Yes","Yes"
"414",99,94,"ben",150,18494192149,18498901,"6","?ok","bir",18494843,18498602,"532",18496438,18496444,18496436,6.159,2,18496415,18496439,24,435.4,538.1,2.53669,181.545,100.6772,"NO",NA,18496440,18496801,361,"No",NA,NA,NA,NA,"Yes","Yes"
"415",99,66,"ben",151,18501066150,18506679,"6","ku?","ben",18501692,18506382,"580",18504689,18504695,18504687,5.596,2,18504676,18504690,14,550.2,588.3,0.941069999999998,96.3299999999994,59.6916666666667,"NO",NA,18504691,18504912,221,"No",NA,NA,NA,NA,"Yes","Yes"
"416",99,12,"ben",152,18508754151,18513324,"5","a?k","bir",18509396,18513025,"449",18510767,18510776,18510765,9.385,2,18510751,18510771,20,402.3,468.5,1.63514,116.09,76.0995238095238,"NO",NA,18510772,18510922,150,"No",NA,NA,NA,NA,"Yes","Yes"
"417",99,86,"ben",153,18515252152,18520360,"5","tur","ben",18515907,18520069,"424",18518221,18518230,18518219,9.233,2,18518212,18518231,19,411.5,467.5,1.3832,119.795,68.0485,"NO",NA,18518232,18518382,150,"No",NA,NA,NA,NA,"Yes","Yes"
"418",99,27,"identical",154,18522130153,18528647,"2","nal",NA,18522810,18528353,"317",NA,NA,18525740,NA,NA,18525733,18525754,21,302,376.4,1.83768,142.025,81.6222727272727,"NO",NA,18525755,18526049,294,"No",NA,NA,NA,NA,NA,"Yes"
"419",99,41,"identical",155,18530742154,18534750,"5","eve",NA,18531332,18534454,"544",NA,NA,18532868,NA,NA,18532852,18532871,19,484.5,551.1,1.64502,139.555000000001,81.016,"NO",NA,18532872,18533043,171,"No",NA,NA,NA,NA,NA,"Yes"
"420",99,70,"ben",156,18537087155,18541828,"4","pik","ben",18537702,18541532,"616",18539463,18539470,18539461,6.879,2,18539451,18539472,21,583.3,658.5,1.85744,142.025,82.9134090909091,"NO",NA,18539473,18539766,293,"No",NA,NA,NA,NA,"Yes",NA
"421",99,123,"identical",157,18547600156,18554449,"7","ac?",NA,18548225,18554150,"665",NA,NA,18549060,NA,NA,18549038,18549096,58,441.4,1033.5,14.62487,461.89,247.816355932203,"NO",NA,18549097,18549313,216,"No",NA,NA,NA,NA,NA,"Yes"
"422",99,16,"ben",158,18556369157,18563712,"7","?il","bir",18557081,18561634,"676",18557589,18557598,18557633,8.871,-44,18557460,18557664,204,214.6,1730,37.43038,NA,NA,"YES",143,18557665,18557738,73,"Yes","left","left",1767.912,1,"Yes","Yes"
"423",99,69,"identical",159,18566204158,18569807,"4","tat",NA,18567484,18569513,"364",NA,NA,18568409,NA,NA,18568400,18568419,19,341.2,396.9,1.37579,101.27,66.13425,"NO",NA,18568420,18568669,249,"No",NA,NA,NA,NA,NA,"Yes"
"424",99,129,"identical",160,18572125159,18575800,"3","hep",NA,18573194,18575508,"424",NA,NA,18574183,NA,NA,18574237,18574261,24,422.8,511.8,2.1983,161.785,87.3886,"NO",NA,18574262,18574485,223,"No",NA,NA,NA,NA,NA,"Yes"
"425",99,113,"identical",161,18578063160,18583137,"8","s?t",NA,18578725,18582845,"762",NA,NA,18581168,NA,NA,18581158,18581179,21,733.1,805.1,1.7784,142.025,79.3206818181818,"NO",NA,18581180,18581485,305,"No",NA,NA,NA,NA,NA,"Yes"
"426",99,83,"identical",162,18585022161,18588740,"6","top",NA,18585520,18588417,"568",NA,NA,18586942,NA,NA,18586924,18586945,21,496,575.2,1.95624,156.845000000001,87.8534090909091,"NO",NA,18586946,18587107,161,"No",NA,NA,NA,NA,NA,NA
"427",99,28,"ben",163,18590527162,18597051,"7","mor","ben",18591214,18596754,"676",18594111,18594117,18594110,5.877,1,18594092,18594112,20,626.3,679.7,1.31898,121.029999999999,61.2207142857143,"NO",NA,18594113,18594495,382,"No",NA,NA,NA,NA,"Yes","Yes"
"428",99,31,"identical",164,18598734163,18602054,"4","ac?",NA,18599402,18601756,"389",NA,NA,18600480,NA,NA,18600472,18600493,21,370.2,443.7,1.81545,150.67,80.6118181818182,"NO",NA,18600494,18600747,253,"No",NA,NA,NA,NA,NA,NA
"429",99,7,"identical",165,18604113164,18607961,"6","zor",NA,18604507,18607655,"497",NA,NA,18605910,NA,NA,18605897,18605916,19,457.1,522.6,1.61785,125.97,79.6575,"NO",NA,18605917,18606162,245,"No",NA,NA,NA,NA,NA,"Yes"
"430",99,107,"identical",166,18609827165,18618294,"6","hi?",NA,18611419,18615724,"556",NA,NA,18613515,NA,NA,18613500,18613518,18,505.4,564.9,1.46965,129.675,75.465,"NO",NA,18613519,18613743,224,"Yes","right","right",2264.732,1,NA,"Yes"
