"","sub","item","cond","trial_start","trial_end","target_word_n","target_word","target_changed","Dis_on_t","Dis_off_t","boundary","DC_start_t","DC_end_t","boundary_t","Display_time","Display_lat","sacc_start_t","sacc_end_t","sacc_dur","sacc_start_x","sacc_end_x","sacc_ampl","peak_vel","avg_vel","blink","blink_dur","fix_start_t","fix_end_t","fix_dur","question","corrAns","key_resp","RT_q","accuracy"
"1",99,15,"identical",170054090,17010212,"3","kez",NA,17006702,17009906,"424",NA,NA,17007899,NA,NA,17007882,17007901,19,375.8,427.8,1.2844,104.975,62.855,"NO",NA,17007902,17008127,225,"No",NA,NA,NA,NA
"2",99,17,"identical",170159571,17025423,"6","?ok",NA,17017318,17022735,"605",NA,NA,17020628,NA,NA,17020624,17020641,17,600.5,654.7,1.33874,107.444999999999,71.5613888888889,"NO",NA,17020642,17020813,171,"Yes","right","right",2400.617,1
"3",99,3,"identical",170273572,17030726,"2","hi?",NA,17028501,17030448,"341",NA,NA,17029089,NA,NA,17029077,17029096,19,302,368.9,1.65243,134.615,81.016,"NO",NA,17029097,17029265,168,"No",NA,NA,NA,NA
"4",99,5,"identical",170327563,17036820,"4","i?e",NA,17033264,17036542,"460",NA,NA,17034451,NA,NA,17034437,17034454,17,408.8,466.9,1.43507,140.79,78.3538888888889,"NO",NA,17034455,17034696,241,"No",NA,NA,NA,NA
"5",99,4,"ben",170388144,17042714,"4","eve","bir",17039463,17042430,"472",17040494,17040501,17040492,7.329,2,17040475,17040497,22,410.9,490,1.95377,149.435,82.3691304347826,"NO",NA,17040498,17040792,294,"No",NA,NA,NA,NA
"6",99,2,"ben",170460335,17052960,"5","aya","bir",17046741,17050627,"759",17048487,17048493,17048485,5.861,2,17048473,17048496,23,718.8,805.2,2.13408,149.435,87.8393750000001,"NO",NA,17048497,17048847,350,"Yes","left","left",2044.688,1
"7",99,1,"identical",170559416,17060388,"5","ak?",NA,17056656,17060106,"582",NA,NA,17058416,NA,NA,17058624,17058639,15,582.3,620.8,0.95095,100.035,57.4275000000001,"NO",NA,17058640,17058774,134,"No",NA,NA,NA,NA
"8",99,18,"ben",170630927,17067824,"4","ta?","ben",17063756,17067548,"472",17064943,17064948,17064942,5.253,1,17065278,17065301,23,476.2,553.4,1.90684,160.55,78.9885416666667,"NO",NA,17064936,17065277,341,"No",NA,NA,NA,NA
"9",99,14,"ben",170705378,17076928,"7","g?l","ben",17071326,17074924,"546",17073601,17073608,17073600,6.936,1,17073580,17073601,21,478.9,549.3,1.73888,123.5,79.2164285714286,"NO",NA,17073602,17073854,252,"Yes","right","right",1719.103,1
"10",99,16,"ben",170797209,17084982,"8","ara","ben",17080165,17084699,"820",17083166,17083173,17083164,6.552,2,17083152,17083172,20,779.6,854.8,1.85744,138.320000000001,85.8619047619047,"NO",NA,17083173,17083568,395,"No",NA,NA,NA,NA
"11",99,81,"identical",1708990210,17095707,"6","?ok",NA,17090426,17093100,"571",NA,NA,17091775,NA,NA,17091766,17091789,23,548.1,639,2.24523,175.369999999999,92.161875,"NO",NA,17091790,17092018,228,"Yes","left","left",2303.996,1
"12",99,121,"identical",1709905811,17106754,"4","?t?",NA,17100412,17103978,"533",NA,NA,17102064,NA,NA,17102338,17102360,22,541.1,621,1.97353,156.844999999999,84.1947826086956,"NO",NA,17102062,17102337,275,"Yes","right","right",2475.289,1
"13",99,7,"identical",1710933512,17113899,"5","bol",NA,17109889,17113602,"567",NA,NA,17112284,NA,NA,17112574,17112596,22,575.6,656.1,1.98835,129.675,83.8189130434783,"NO",NA,17112283,17112573,290,"No",NA,NA,NA,NA
"14",99,126,"ben",1711626213,17122027,"6","kez","ben",17116751,17121732,"569",17120296,17120305,17120295,8.537,1,17120284,17120304,20,533.1,598,1.60303,134.615,75.7466666666667,"NO",NA,17120305,17120515,210,"No",NA,NA,NA,NA
"15",99,57,"identical",1712451614,17131014,"5","f?n",NA,17125193,17128614,"568",NA,NA,17127133,NA,NA,17127123,17127143,20,533.5,600.2,1.64749,137.085,76.8052380952381,"NO",NA,17127144,17127274,130,"Yes","right","right",2100.148,1
"16",99,64,"ben",1713332315,17154892,"4","jet","bir",17133744,17136884,"497",17134864,17134870,17134862,6.27,2,17134853,17134878,25,473.1,602.7,3.20112,227.240000000001,121.8375,"NO",NA,17134879,17135298,419,"Yes","left","left",17704.078,1
"17",99,118,"ben",1715701816,17171632,"4","d?n","bir",17166133,17171341,"412",17168306,17168315,17168304,8.889,2,17168290,17168308,18,378.6,421.4,1.05716,83.9800000000001,52.715,"NO",NA,17168309,17168500,191,"No",NA,NA,NA,NA
"18",99,93,"identical",1717458617,17178776,"6","?al",NA,17175093,17178480,"663",NA,NA,17176894,NA,NA,17176880,17176900,20,617.7,681.5,1.57586,132.144999999999,72.3945238095238,"NO",NA,17176901,17177141,240,"No",NA,NA,NA,NA
"19",99,32,"ben",1718424918,17191699,"3","iyi","bir",17188975,17191407,"352",17189895,17189901,17189893,5.843,2,17189885,17189901,16,330,380.2,1.23994,104.975,71.2440625,"NO",NA,17189902,17190068,166,"No",NA,NA,NA,NA
"20",99,77,"identical",1719375019,17199552,"2","tok",NA,17194468,17197026,"316",NA,NA,17195357,NA,NA,17195342,17195358,16,277,318.6,1.02752,100.035,58.3355882352941,"NO",NA,17195359,17195514,155,"Yes","left","left",2227.365,1
"21",99,2,"ben",1720179220,17209908,"6","g?n","ben",17202585,17209607,"508",17206224,17206231,17206223,7.047,1,17206207,17206228,21,457.7,526.3,1.69442,122.265,74.9420454545454,"NO",NA,17206229,17206746,517,"No",NA,NA,NA,NA
"22",99,85,"identical",1721198721,17215628,"6","mum",NA,17212463,17215335,"593",NA,NA,17213830,NA,NA,17213821,17213841,20,570.8,639,1.68454,161.785,78.922380952381,"NO",NA,17213842,17214082,240,"No",NA,NA,NA,NA
"23",99,117,"identical",1721807422,17226315,"5","tuz",NA,17218565,17226005,"592",NA,NA,17220213,NA,NA,17220198,17220221,23,536.4,622.7,2.13161,172.9,89.1347826086956,"NO",NA,17220222,17220438,216,"No",NA,NA,NA,NA
"24",99,131,"identical",1723276323,17240855,"6","zor",NA,17233486,17240556,"592",NA,NA,17235839,NA,NA,17235818,17235841,23,516.5,599.8,2.05751,153.14,85.1613043478261,"NO",NA,17235842,17236108,266,"No",NA,NA,NA,NA
"25",99,38,"ben",1724420124,17249984,"3","s?t","bir",17246445,17249686,"377",17247094,17247100,17247092,6.19,2,17247073,17247098,25,281.8,394.3,2.77875,216.125,105.83,"NO",NA,17247099,17247432,333,"No",NA,NA,NA,NA
"26",99,30,"ben",1725207725,17256145,"6","eko","bir",17252757,17255845,"653",17255058,17255089,17255056,31.11,2,17255042,17255064,22,607.4,684.5,1.90437,149.435,81.4026086956522,"NO",NA,17255065,17255288,223,"No",NA,NA,NA,NA
"27",99,40,"ben",1725793626,17261931,"8","onu","ben",17258480,17261639,"736",17260755,17260761,17260754,5.919,1,17260735,17260760,25,667.5,752.7,2.10444,153.14,79.4675,"NO",NA,17260761,17261082,321,"No",NA,NA,NA,NA
"28",99,64,"ben",1726373627,17267609,"5","tuz","ben",17264244,17267316,"508",17265932,17265937,17265931,5.086,1,17265915,17265938,23,444.9,532.6,2.16619,164.255,89.84625,"NO",NA,17265939,17266268,329,"No",NA,NA,NA,NA
"29",99,13,"identical",1726948628,17272393,"3","ney",NA,17270121,17272094,"316",NA,NA,17270539,NA,NA,17270680,17270707,27,314.5,444.8,3.21841,272.935,114.458035714286,"NO",NA,17270533,17270679,146,"No",NA,NA,NA,NA
"30",99,8,"ben",1727519529,17284074,"4","eve","ben",17277171,17280086,"508",17278259,17278268,17278257,8.514,2,17278244,17278266,22,472,544.3,1.78581,142.025000000001,79.8991304347826,"NO",NA,17278267,17278768,501,"Yes","left","left",3683.897,1
"31",99,17,"identical",1728613330,17294044,"6","?ok",NA,17286643,17290626,"605",NA,NA,17288468,NA,NA,17288453,17288475,22,557.1,629.8,1.79569,132.145000000001,76.6236956521739,"NO",NA,17288476,17288632,156,"Yes","right","right",3112.886,1
"32",99,125,"identical",1729588331,17301548,"4","top",NA,17297063,17301251,"412",NA,NA,17300295,NA,NA,17300485,17300506,21,416.7,489.6,1.80063,140.79,81.4538636363636,"NO",NA,17300295,17300484,189,"No",NA,NA,NA,NA
"33",99,67,"identical",1730371132,17307665,"5","zor",NA,17304350,17307376,"472",NA,NA,17305706,NA,NA,17305685,17305706,21,402.7,472.2,1.71665,133.38,76.7945454545455,"NO",NA,17305707,17305914,207,"No",NA,NA,NA,NA
"34",99,83,"identical",1731130233,17316704,"2","a??",NA,17311991,17314834,"294",NA,NA,17312805,NA,NA,17312988,17313005,17,294.2,342.9,1.20289,96.3300000000001,63.7397222222222,"NO",NA,17313006,17313317,311,"Yes","left","left",1567.151,1
"35",99,55,"identical",1731930034,17323524,"4","ada",NA,17319817,17323229,"509",NA,NA,17321546,NA,NA,17321926,17321946,20,508.6,585.1,1.88955,151.904999999999,87.8026190476191,"NO",NA,17321546,17321925,379,"No",NA,NA,NA,NA
"36",99,125,"identical",1732603435,17329952,"2","tu?",NA,17326754,17329654,"352",NA,NA,17327592,NA,NA,17327583,17327604,21,331.4,414,2.04022,160.55,92.1197727272727,"NO",NA,17327605,17328363,758,"No",NA,NA,NA,NA
"37",99,95,"identical",1733305436,17337305,"3","?ay",NA,17333703,17337004,"413",NA,NA,17335504,NA,NA,17335490,17335515,25,359.2,455.5,2.37861,167.96,90.5825,"NO",NA,17335516,17335755,239,"No",NA,NA,NA,NA
"38",99,132,"ben",1734018237,17346423,"4","ma?","bir",17340702,17346135,"448",17343241,17343251,17343238,9.433,3,17343227,17343244,17,412.3,461.9,1.22512,109.915,66.3469444444444,"NO",NA,17343245,17343405,160,"No",NA,NA,NA,NA
"39",99,59,"identical",1734996838,17352936,"3","k??",NA,17350441,17352630,"496",NA,NA,17351918,NA,NA,17351910,17351933,23,485,589.6,2.58362,213.654999999999,106.004166666667,"NO",NA,17351934,17352227,293,"No",NA,NA,NA,NA
"40",99,75,"identical",1735548839,17373462,"4","iyi",NA,17356156,17368929,"496",NA,NA,17357224,NA,NA,17357202,17357228,26,384.3,505.3,2.9887,247,110.372407407407,"NO",NA,17357229,17357463,234,"Yes","left","left",4231.93,1
"41",99,136,"ben",1737624040,17386167,"5","nem","bir",17376958,17385875,"521",17379464,17379473,17379461,9.036,3,17379449,17379473,24,488.4,579.8,2.25758,207.479999999999,90.3608333333333,"NO",NA,17379474,17379744,270,"No",NA,NA,NA,NA
"42",99,27,"identical",1742516141,17429928,"6","sos",NA,17425757,17429632,"519",NA,NA,17427577,NA,NA,17427558,17427579,21,464.7,527.6,1.55363,107.445000000001,67.7004545454545,"NO",NA,17427580,17427716,136,"No",NA,NA,NA,NA
"43",99,9,"identical",1743451342,17439607,"5","???",NA,17435134,17439315,"461",NA,NA,17437164,NA,NA,17437156,17437177,21,440.8,522.2,2.01058,153.14,90.0427272727273,"NO",NA,17437178,17437412,234,"No",NA,NA,NA,NA
"44",99,124,"ben",1744766843,17459007,"6","top","ben",17448285,17456617,"605",17451164,17451172,17451162,7.645,2,17451152,17451172,20,578.8,641.9,1.55857,133.379999999999,73.42075,"NO",NA,17451173,17451293,120,"Yes","left","left",2086.995,1
"45",99,110,"ben",1746231344,17470562,"2","iri","bir",17463569,17467061,"376",17464547,17464553,17464545,5.581,2,17464528,17464546,18,316.8,380.7,1.57833,125.97,80.925,"NO",NA,17464547,17464771,224,"Yes","right","right",3196.009,1
"46",99,112,"ben",1747347045,17480297,"5","pil","bir",17474126,17477300,"497",17475439,17475448,17475436,8.885,3,17475856,17475872,16,492.5,542.6,1.23747,139.554999999999,72.1385294117648,"NO",NA,17475873,17476032,159,"Yes","right","right",2701.332,1
"47",99,10,"ben",1748308346,17487719,"5","bo?","bir",17483590,17487419,"604",17485446,17485455,17485444,8.64,2,17485426,17485448,22,527.1,611.4,2.08221,184.015000000001,89.9402173913043,"NO",NA,17485449,17485953,504,"No",NA,NA,NA,NA
"48",99,11,"identical",1749031547,17501492,"3","ile",NA,17490952,17495441,"413",NA,NA,17494067,NA,NA,17494060,17494079,19,396.7,463.1,1.64008,124.735,80.46025,"NO",NA,17494080,17494330,250,"Yes","right","right",5748.102,1
"49",99,20,"ben",1750540348,17510145,"7","hep","ben",17506156,17509851,"761",17507795,17507804,17507794,8.884,1,17507779,17507808,29,704.6,835.5,3.23323,202.54,106.21,"NO",NA,17507809,17508165,356,"No",NA,NA,NA,NA
"50",99,126,"ben",1751270249,17519033,"5","ta?","bir",17513210,17516517,"604",17515319,17515329,17515318,9.543,1,17515299,17515329,30,498.3,659.6,3.98411,256.880000000001,130.580666666667,"NO",NA,17515330,17515675,345,"Yes","right","right",2209.971,1
"51",99,39,"identical",1752133050,17525069,"5","ama",NA,17521832,17524769,"522",NA,NA,17523780,NA,NA,17523763,17523786,23,457.9,541.6,2.06739,185.25,84.5460416666667,"NO",NA,17523787,17523962,175,"No",NA,NA,NA,NA
"52",99,52,"ben",1752844751,17531829,"2","hep","ben",17529123,17531533,"340",17529696,17529703,17529694,6.756,2,17529902,17529921,19,343.6,407.7,1.58327,148.2,77.6815,"NO",NA,17529692,17529901,209,"No",NA,NA,NA,NA
"53",99,129,"identical",1753351352,17538891,"2","ucu",NA,17534449,17538584,"329",NA,NA,17535588,NA,NA,17535569,17535589,20,257,331.7,1.84509,164.255,87.0380952380952,"NO",NA,17535590,17535843,253,"No",NA,NA,NA,NA
"54",99,110,"ben",1754149853,17546184,"6","not","ben",17542012,17545892,"617",17543882,17543889,17543880,6.814,2,17544484,17544510,26,568.6,683.3,2.83309,211.185,104.929259259259,"NO",NA,17544511,17544797,286,"No",NA,NA,NA,NA
"55",99,35,"identical",1754803654,17552829,"5","kez",NA,17548548,17552531,"568",NA,NA,17550707,NA,NA,17550696,17550717,21,532.9,605.4,1.79075,150.669999999999,80.039761904762,"NO",NA,17550718,17550914,196,"No",NA,NA,NA,NA
"56",99,60,"ben",1755454955,17560423,"3","hep","bir",17555185,17560132,"435",17556656,17556665,17556654,9.232,2,17556634,17556654,20,374.1,435.5,1.51658,123.5,70.395,"NO",NA,17556655,17556863,208,"No",NA,NA,NA,NA
"57",99,94,"ben",1756211056,17565536,"2","kar","ben",17562609,17565234,"330",17563465,17563473,17563463,7.638,2,17563455,17563473,18,309.2,364.8,1.37332,122.265,72.4533333333333,"NO",NA,17563474,17564071,597,"No",NA,NA,NA,NA
"58",99,23,"identical",1756781457,17572879,"4","fal",NA,17568478,17572585,"472",NA,NA,17570328,NA,NA,17570322,17570342,20,460.1,531.5,1.76358,145.73,82.2745238095238,"NO",NA,17570343,17570692,349,"No",NA,NA,NA,NA
"59",99,17,"identical",1757527258,17581924,"2","caz",NA,17576091,17578388,"245",NA,NA,17576719,NA,NA,17576709,17576727,18,213.8,277.3,1.56845,171.665,80.86,"NO",NA,17576728,17576945,217,"Yes","left","left",3236.697,1
"60",99,21,"identical",1758733959,17592296,"6","hi?",NA,17587916,17592001,"688",NA,NA,17589919,NA,NA,17589902,17589923,21,626.1,698.7,1.79322,154.375,80.6679545454546,"NO",NA,17589924,17590138,214,"No",NA,NA,NA,NA
"61",99,51,"identical",1759517260,17602258,"5","sis",NA,17595733,17599413,"520",NA,NA,17597467,NA,NA,17597457,17597487,30,491.8,626.2,3.31968,193.895000000001,106.927096774194,"NO",NA,17597488,17597712,224,"Yes","right","right",2545.159,1
"62",99,100,"ben",1760428461,17612921,"7","s?r","bir",17604776,17612622,"628",17607593,17607600,17607591,6.673,2,17607562,17607626,64,292.2,1003,17.55676,497.705,270.085,"NO",NA,17607627,17607830,203,"No",NA,NA,NA,NA
"63",99,54,"ben",1761671962,17628778,"2","sis","bir",17617448,17623699,"257",17618296,17618303,17618294,6.869,2,17618281,17618298,17,218.6,268.3,1.22759,101.27,66.4841666666667,"NO",NA,17618299,17618873,574,"Yes","left","left",4776.587,1
"64",99,104,"ben",1763285763,17637040,"4","ile","ben",17633570,17636747,"438",17634597,17634604,17634595,6.858,2,17634581,17634607,26,386.9,476.5,2.21312,155.61,81.0068518518519,"NO",NA,17634608,17634856,248,"No",NA,NA,NA,NA
"65",99,59,"identical",1764041964,17644943,"5","hap",NA,17641074,17644649,"483",NA,NA,17642635,NA,NA,17642618,17642636,18,428.1,487.4,1.46471,143.26,74.295,"NO",NA,17642637,17642878,241,"No",NA,NA,NA,NA
"66",99,5,"identical",1764728465,17652313,"4","i?e",NA,17648148,17652020,"460",NA,NA,17650103,NA,NA,17650383,17650406,23,451.1,546.5,2.35638,181.544999999999,97.2047916666667,"NO",NA,17650407,17650716,309,"No",NA,NA,NA,NA
"67",99,71,"identical",1765457266,17666644,"8","f?n",NA,17655397,17660508,"904",NA,NA,17658742,NA,NA,17658728,17658747,19,858,916.4,1.44248,117.325,69.71575,"NO",NA,17658748,17658938,190,"Yes","right","right",5835.868,1
"68",99,78,"ben",1768156167,17687995,"7","du?","ben",17682106,17687705,"616",17684683,17684692,17684681,8.579,2,17684670,17684687,17,585.6,632.2,1.15102,98.8,61.2697222222222,"NO",NA,17684688,17684890,202,"No",NA,NA,NA,NA
"69",99,62,"ben",1769049068,17696715,"6","g?n","ben",17691144,17696427,"533",17694222,17694231,17694220,9.001,2,17694123,17694283,160,500.5,570.6,1.73147,NA,NA,"YES",58,17694284,17694713,429,"No",NA,NA,NA,NA
"70",99,123,"identical",1769987669,17703443,"3","iyi",NA,17700534,17703146,"341",NA,NA,17701336,NA,NA,17701326,17701345,19,311.3,376.9,1.62032,124.735,79.84275,"NO",NA,17701346,17701545,199,"No",NA,NA,NA,NA
"71",99,58,"ben",1770535870,17717774,"4","k?f","bir",17706223,17717480,"485",17713045,17713052,17713042,6.573,3,17713025,17713068,43,355.9,735,9.36377,393.965,213.96375,"NO",NA,17713069,17713316,247,"No",NA,NA,NA,NA
"72",99,23,"identical",1772027971,17726286,"5","ile",NA,17721369,17725992,"520",NA,NA,17724554,NA,NA,17724539,17724558,19,463,533.2,1.73394,135.85,83.98,"NO",NA,17724559,17724722,163,"No",NA,NA,NA,NA
"73",99,99,"identical",1772841672,17732889,"5","eve",NA,17729173,17732594,"509",NA,NA,17730613,NA,NA,17730602,17730627,25,471.4,578.4,2.6429,195.129999999999,100.9375,"NO",NA,17730628,17730919,291,"No",NA,NA,NA,NA
"74",99,73,"identical",1773483373,17742593,"7","s?t",NA,17735522,17740152,"676",NA,NA,17738260,NA,NA,17738250,17738269,19,652.7,707.2,1.34615,112.384999999999,65.3315,"NO",NA,17738270,17738458,188,"Yes","right","right",2139.384,1
"75",99,46,"ben",1774542974,17750180,"5","ile","ben",17745912,17749885,"642",17748167,17748173,17748165,5.505,2,17748151,17748173,22,592.7,669.5,1.89696,134.615,82.5765909090909,"NO",NA,17748174,17748547,373,"No",NA,NA,NA,NA
"76",99,88,"ben",1775214275,17761234,"7","ge?","ben",17752821,17757625,"832",17755414,17755447,17755412,32.88,2,17755616,17755633,17,831.9,875.7,1.08186,90.1549999999994,58.9369444444444,"NO",NA,17755634,17756036,402,"Yes","right","right",3309.21,1
"77",99,65,"identical",1776352676,17768871,"6","?t?",NA,17764145,17768577,"748",NA,NA,17766202,NA,NA,17766112,17766209,97,676.5,751.6,1.85497,658.254999999999,78.1232989690722,"NO",NA,17766210,17766375,165,"No",NA,NA,NA,NA
"78",99,65,"identical",1777071277,17776982,"6","pis",NA,17771402,17776687,"604",NA,NA,17773944,NA,NA,17773929,17773948,19,553.7,614.4,1.49929,148.2,73.7912499999999,"NO",NA,17773949,17774156,207,"No",NA,NA,NA,NA
"79",99,84,"ben",1777892278,17782451,"3","hi?","bir",17779386,17782159,"399",17780403,17780412,17780400,8.98,3,17780669,17780687,18,405.3,465.4,1.48447,127.205,76.245,"NO",NA,17780398,17780668,270,"No",NA,NA,NA,NA
"80",99,2,"ben",1778435479,17791414,"5","aya","bir",17785101,17789116,"759",17787175,17787182,17787173,6.994,2,17787161,17787178,17,724,769.9,1.13373,109.915,60.9952777777778,"NO",NA,17787179,17787595,416,"Yes","left","left",1989.589,1
"81",99,106,"ben",1779338780,17800343,"3","eti","bir",17793877,17798646,"400",17795156,17795166,17795154,9.608,2,17795149,17795166,17,390.1,442.8,1.30169,118.56,72.2111764705882,"NO",NA,17795167,17795512,345,"Yes","right","right",1400.154,1
"82",99,28,"ben",1780240481,17807445,"6","ge?","bir",17802949,17807157,"593",17804827,17804835,17804824,7.507,3,17805279,17805300,21,599.3,666.4,1.65737,133.380000000001,74.268409090909,"NO",NA,17804822,17805278,456,"No",NA,NA,NA,NA
"83",99,71,"identical",1780926182,17813473,"3","kek",NA,17809878,17813178,"448",NA,NA,17811279,NA,NA,17811264,17811297,33,384.1,535.7,3.74452,191.425,109.878676470588,"NO",NA,17811298,17811518,220,"No",NA,NA,NA,NA
"84",99,57,"identical",1781549583,17819876,"4","kan",NA,17816018,17819581,"520",NA,NA,17817837,NA,NA,17817828,17817850,22,497.5,575.4,1.92413,135.85,82.9060869565217,"NO",NA,17817851,17818279,428,"No",NA,NA,NA,NA
"85",99,8,"ben",1782184084,17827371,"4","nar","bir",17822508,17827072,"400",17823565,17823572,17823562,6.285,3,17823547,17823567,20,338.8,420.5,2.01799,149.435,94.0364285714286,"NO",NA,17823568,17824084,516,"No",NA,NA,NA,NA
"86",99,15,"identical",1782928985,17839851,"4","bot",NA,17829832,17837374,"483",NA,NA,17832865,NA,NA,17832852,17832872,20,438.3,508,1.72159,144.495,79.9809523809523,"NO",NA,17832873,17833208,335,"Yes","left","left",2172.762,1
"87",99,80,"ben",1784217086,17847855,"4","kez","ben",17842813,17847555,"472",17844671,17844678,17844669,6.534,2,17844652,17844671,19,413.4,476.6,1.56104,108.68,77.61,"NO",NA,17844672,17845029,357,"No",NA,NA,NA,NA
"88",99,9,"identical",1785023587,17859576,"7","s?t",NA,17852244,17857323,"651",NA,NA,17854168,NA,NA,17854161,17854177,16,633.5,686.2,1.30169,149.435,73.7367647058824,"NO",NA,17854178,17854335,157,"Yes","right","right",1957.475,1
"89",99,121,"identical",1786221488,17866430,"6","zor",NA,17862726,17866136,"581",NA,NA,17864522,NA,NA,17864507,17864529,22,533.3,609.2,1.87473,145.730000000001,79.8454347826087,"NO",NA,17864530,17864764,234,"No",NA,NA,NA,NA
"90",99,82,"ben",1786834389,17877051,"4","g??","bir",17869033,17871613,"496",17870672,17870681,17870671,8.772,1,17871260,17871278,18,439.5,499.8,1.48941,158.08,76.635,"NO",NA,17870671,17870916,245,"Yes","left","left",5133.518,1
"91",99,132,"ben",1788027290,17889423,"6","du?","ben",17880817,17889129,"618",17886435,17886444,17886433,8.795,2,17886416,17886435,19,558.1,620.2,1.53387,135.85,79.365,"NO",NA,17886436,17886742,306,"No",NA,NA,NA,NA
"92",99,102,"ben",1792437691,17939606,"2","iyi","ben",17925122,17928743,"268",17925748,17925756,17925745,7.51,3,17926128,17926144,16,221.7,271.3,1.22512,103.74,70.6855882352941,"NO",NA,17925745,17925883,138,"Yes","left","left",10558.735,1
"93",99,58,"ben",1794216592,17953203,"2","sa?","ben",17944897,17952907,"318",17945723,17945732,17945722,8.254,1,17945710,17945734,24,275.4,369.3,2.31933,149.435,91.9334,"NO",NA,17945735,17945904,169,"No",NA,NA,NA,NA
"94",99,135,"identical",1795499193,17959931,"6","ba?",NA,17955621,17959635,"557",NA,NA,17958087,NA,NA,17958070,17958093,23,477.6,573,2.35638,187.720000000001,98.49125,"NO",NA,17958094,17958352,258,"No",NA,NA,NA,NA
"95",99,108,"ben",1796184894,17965842,"4","??k","bir",17962471,17965551,"473",17963548,17963555,17963545,6.739,3,17963533,17963556,23,423.4,532.1,2.68489,223.535,110.378125,"NO",NA,17963557,17963973,416,"No",NA,NA,NA,NA
"96",99,26,"ben",1796789195,17973028,"2","dut","bir",17969224,17970489,"305",17970097,17970104,17970096,6.552,1,17970081,17970107,26,239,361.7,3.03069,216.125,112.202037037037,"NO",NA,17970108,17970288,180,"Yes","right","right",2235.021,1
"97",99,29,"identical",1797524296,17979906,"6","t?m",NA,17976060,17979610,"558",NA,NA,17978269,NA,NA,17978251,17978272,21,487.8,568.3,1.98835,172.9,89.0322727272727,"NO",NA,17978273,17978533,260,"No",NA,NA,NA,NA
"98",99,16,"ben",1798481997,17990175,"8","ara","ben",17985504,17989868,"820",17988445,17988453,17988444,7.617,1,17988429,17988451,22,765.5,849.2,2.06739,174.135,87.8997826086957,"NO",NA,17988452,17988726,274,"No",NA,NA,NA,NA
"99",99,3,"identical",1799193298,17996938,"2","hi?",NA,17993116,17996641,"341",NA,NA,17995100,NA,NA,17995254,17995273,19,344,402.4,1.44248,128.44,71.07425,"NO",NA,17995090,17995253,163,"No",NA,NA,NA,NA
"100",99,41,"identical",1799905499,18006101,"3","ton",NA,18000345,18003102,"340",NA,NA,18001131,NA,NA,18001109,18001134,25,237.5,348.3,2.73676,195.13,104.31,"NO",NA,18001135,18001346,211,"Yes","left","left",2697.73,1
"101",99,53,"identical",18008224100,18012111,"3","hi?",NA,18008742,18011820,"390",NA,NA,18009873,NA,NA,18009866,18009885,19,375.5,437,1.51905,121.029999999999,73.853,"NO",NA,18009886,18010081,195,"No",NA,NA,NA,NA
"102",99,50,"ben",18045524101,18050136,"5","mor","bir",18046512,18049844,"605",18048716,18048722,18048714,6.355,2,18048696,18048717,21,524.8,612.2,2.15878,191.425,97.565,"NO",NA,18048718,18049106,388,"No",NA,NA,NA,NA
"103",99,14,"ben",18052986102,18059966,"7","g?l","ben",18053961,18058161,"546",18056733,18056739,18056731,6.187,2,18056710,18056732,22,470.4,549.3,1.94883,144.495,82.4228260869565,"NO",NA,18056733,18056952,219,"Yes","right","right",1502.658,1
"104",99,103,"identical",18063232103,18069878,"5","iri",NA,18063947,18069583,"509",NA,NA,18067505,NA,NA,18067498,18067521,23,493,583.6,2.23782,167.96,91.39,"NO",NA,18067522,18067676,154,"No",NA,NA,NA,NA
"105",99,12,"ben",18072479104,18077223,"4","ta?","ben",18073170,18076931,"496",18074371,18074379,18074369,8.25,2,18074347,18074372,25,390,501.2,2.74664,213.654999999999,104.88,"NO",NA,18074373,18074650,277,"No",NA,NA,NA,NA
"106",99,131,"identical",18079475105,18085193,"6","t?y",NA,18080186,18082639,"594",NA,NA,18081821,NA,NA,18081817,18081837,20,591.4,663.5,1.78087,143.26,83.4507142857143,"NO",NA,18081838,18082220,382,"Yes","right","right",2254.106,1
"107",99,14,"ben",18088204106,18094939,"4","ku?","bir",18088895,18092303,"436",18090138,18090146,18090136,8.316,2,18090128,18090148,20,413.4,477.3,1.57833,114.854999999999,73.7471428571429,"NO",NA,18090149,18090500,351,"Yes","left","left",2334.97,1
"108",99,112,"ben",18097117107,18101451,"5","zor","ben",18097792,18101161,"533",18098989,18098998,18098989,8.496,0,18099413,18099433,20,529.7,593.6,1.57833,145.730000000001,73.8647619047618,"NO",NA,18099434,18099763,329,"No",NA,NA,NA,NA
"109",99,62,"ben",18103182108,18107561,"4","zil","bir",18103820,18107272,"497",18105475,18105484,18105473,8.742,2,18105465,18105487,22,475.4,559.1,2.06739,169.195,88.92,"NO",NA,18105488,18105779,291,"No",NA,NA,NA,NA
"110",99,91,"identical",18109712109,18114822,"6","sel",NA,18110218,18114528,"557",NA,NA,18112708,NA,NA,18112913,18112934,21,556.2,625.4,1.70924,129.675,76.4577272727272,"NO",NA,18112935,18113270,335,"No",NA,NA,NA,NA
"111",99,109,"identical",18117001110,18121392,"2","sis",NA,18117610,18121096,"245",NA,NA,18118715,NA,NA,18118701,18118715,14,205.1,246.1,1.0127,114.855,64.3023333333333,"NO",NA,18118716,18118975,259,"No",NA,NA,NA,NA
"112",99,90,"ben",18123482111,18136198,"6","ya?","ben",18124112,18134429,"605",18132389,18132397,18132388,7.444,1,18132890,18132907,17,610.1,664.9,1.35356,129.675,73.4138888888888,"NO",NA,18132381,18132889,508,"Yes","left","left",1464.763,1
"113",99,108,"ben",18138988112,18144468,"6","kez","ben",18139692,18144174,"642",18141660,18141669,18141659,8.828,1,18141642,18141663,21,581.4,655.6,1.83274,158.079999999999,81.7906818181818,"NO",NA,18141664,18141924,260,"No",NA,NA,NA,NA
"114",99,105,"identical",18146293113,18151146,"5","kez",NA,18146804,18150854,"520",NA,NA,18148413,NA,NA,18148599,18148620,21,525.6,604,1.93648,124.735,85.3834090909091,"NO",NA,18148412,18148598,186,"No",NA,NA,NA,NA
"115",99,55,"identical",18152934114,18159567,"2","ucu",NA,18153649,18156842,"328",NA,NA,18155039,NA,NA,18155031,18155051,20,310.3,382,1.77099,134.615,82.5097619047619,"NO",NA,18155052,18155353,301,"Yes","left","left",2424.579,1
"116",99,116,"ben",18161769115,18165361,"6","fay","bir",18162283,18165070,"593",18163920,18163927,18163918,6.475,2,18163911,18163931,20,580.4,649.2,1.69936,143.26,80.6278571428572,"NO",NA,18163932,18164198,266,"No",NA,NA,NA,NA
"117",99,1,"identical",18167736116,18173014,"4","gri",NA,18168244,18170875,"436",NA,NA,18170227,NA,NA,18170219,18170238,19,415,476.1,1.50917,123.5,74.555,"NO",NA,18170239,18170412,173,"Yes","right","right",1830.719,1
"118",99,79,"identical",18175347117,18183027,"5","ilk",NA,18175948,18180384,"545",NA,NA,18177880,NA,NA,18178074,18178097,23,539.7,617.9,1.93154,149.435,78.8341666666666,"NO",NA,18178098,18178330,232,"Yes","right","right",2342.237,1
"119",99,84,"ben",18185501118,18192589,"7","top","ben",18186130,18190805,"797",18188725,18188758,18188723,32.481,2,18188713,18188731,18,770.7,820.8,1.23747,107.445000000001,63.1149999999999,"NO",NA,18188732,18189214,482,"Yes","left","left",1479.915,1
"120",99,128,"ben",18194983119,18200009,"5","has","bir",18195444,18199714,"424",18197751,18197759,18197749,7.982,2,18197746,18197773,27,419.7,519.7,2.47,145.729999999999,86.9351785714286,"NO",NA,18197774,18197915,141,"No",NA,NA,NA,NA
"121",99,34,"ben",18201919120,18206503,"4","kot","ben",18202656,18206212,"389",18204203,18204212,18204202,8.752,1,18204199,18204216,17,384.3,431.1,1.15596,90.1550000000001,61.4755555555556,"NO",NA,18204217,18204422,205,"No",NA,NA,NA,NA
"122",99,18,"ben",18208880121,18214715,"6","kar","bir",18209367,18214416,"532",18212283,18212291,18212282,8.237,1,18212261,18212285,24,438.6,540.3,2.51199,184.015,99.8868,"NO",NA,18212286,18212546,260,"No",NA,NA,NA,NA
"123",99,97,"identical",18216681122,18221777,"7","?n?",NA,18217205,18221481,"521",NA,NA,18219405,NA,NA,18219399,18219419,20,507.3,585.1,1.92166,155.61,89.3904761904762,"NO",NA,18219420,18219819,399,"No",NA,NA,NA,NA
"124",99,107,"identical",18223642123,18230531,"3","ipi",NA,18224292,18227872,"376",NA,NA,18226000,NA,NA,18225986,18226010,24,319.6,416.7,2.39837,159.315,94.9962,"NO",NA,18226011,18226440,429,"Yes","left","left",2356.841,1
"125",99,43,"identical",18232748124,18235207,"3","fes",NA,18233202,18234918,"449",NA,NA,18234317,NA,NA,18234307,18234329,22,419.5,490.6,1.75617,135.85,75.1739130434783,"NO",NA,18234330,18234581,251,"No",NA,NA,NA,NA
"126",99,89,"identical",18237084125,18242177,"3","evi",NA,18237835,18241882,"435",NA,NA,18239492,NA,NA,18239646,18239665,19,441.6,502.6,1.5067,170.429999999999,73.853,"NO",NA,18239487,18239645,158,"No",NA,NA,NA,NA
"127",99,90,"ben",18244172126,18250889,"7","ge?","bir",18244781,18249126,"711",18247365,18247371,18247363,5.97,2,18247350,18247369,19,672.4,732.5,1.48447,121.029999999999,72.2475,"NO",NA,18247370,18247671,301,"Yes","right","right",1460.042,1
"128",99,43,"identical",18253332127,18258262,"4","iyi",NA,18253824,18257929,"450",NA,NA,18255910,NA,NA,18256031,18256050,19,454.1,518.1,1.5808,139.555,79.04,"NO",NA,18255910,18256030,120,"No",NA,NA,NA,NA
"129",99,93,"identical",18260295128,18264598,"4","g?n",NA,18260794,18264291,"399",NA,NA,18262219,NA,NA,18262213,18262233,20,390.9,448.7,1.42766,122.265,66.4547619047619,"NO",NA,18262234,18262436,202,"No",NA,NA,NA,NA
"130",99,104,"ben",18266569129,18271625,"5","bo?","bir",18267172,18271328,"593",18269589,18269595,18269586,6.149,3,18270072,18270089,17,594.3,646.2,1.28193,112.385,69.5030555555556,"NO",NA,18270090,18270367,277,"No",NA,NA,NA,NA
"131",99,49,"identical",18273761130,18280030,"8","kez",NA,18274325,18279731,"833",NA,NA,18277113,NA,NA,18277697,18277717,20,838.4,894.1,1.37579,119.795000000001,64.0435714285714,"NO",NA,18277106,18277696,590,"No",NA,NA,NA,NA
"132",99,53,"identical",18282011131,18288380,"2","dut",NA,18282726,18286534,"377",NA,NA,18283747,NA,NA,18283730,18283753,23,308.8,398.8,2.223,161.785,91.4414583333333,"NO",NA,18283754,18284053,299,"Yes","right","right",1542.362,1
"133",99,78,"ben",18290948132,18296137,"5","sek","bir",18291540,18295843,"448",18293650,18293659,18293688,8.659,-38,18293688,18293703,15,448.6,487.7,0.965769999999999,98.8,58.2765625,"NO",NA,18293704,18294003,299,"No",NA,NA,NA,NA
"134",99,5,"identical",18298471133,18305587,"5","ile",NA,18299344,18305298,"618",NA,NA,18301865,NA,NA,18301851,18301869,18,569.5,629.4,1.47953,148.2,75.79,"NO",NA,18301870,18302081,211,"No",NA,NA,NA,NA
"135",99,100,"ben",18309064134,18313769,"4","g?n","ben",18309605,18313467,"424",18311154,18311161,18311151,6.917,3,18311147,18311164,17,415.2,467.8,1.29922,119.795,70.3263888888889,"NO",NA,18311165,18311457,292,"No",NA,NA,NA,NA
"136",99,60,"ben",18316961135,18333536,"5","sos","ben",18317734,18321901,"450",18320092,18320100,18320090,7.84,2,18320086,18320105,19,441.2,511.2,1.729,149.435,85.52375,"NO",NA,18320106,18320265,159,"Yes","left","left",11325.776,1
"137",99,48,"ben",18336811136,18342665,"3","ter","bir",18338766,18342371,"376",18339773,18339780,18339770,6.635,3,18339762,18339780,18,354.3,417.7,1.56598,123.5,80.1377777777778,"NO",NA,18339781,18340094,313,"No",NA,NA,NA,NA
"138",99,63,"identical",18344766137,18362645,"7","eve",NA,18345273,18352256,"735",NA,NA,18347512,NA,NA,18347500,18347518,18,704.5,752.6,1.18807,93.8600000000003,60.125,"NO",NA,18347519,18347752,233,"Yes","left","left",10088.69,1
"139",99,48,"ben",18392662138,18400726,"6","ruj","ben",18393287,18397716,"654",18395334,18395343,18395332,8.806,2,18395320,18395335,15,618.4,663,1.10162,102.505000000001,65.1462500000001,"NO",NA,18395336,18395845,509,"Yes","left","left",2709.337,1
"140",99,26,"ben",18405024139,18411055,"6","kez","ben",18405558,18410757,"738",18407526,18407535,18407524,9.257,2,18407512,18407532,20,702.4,770.3,1.67713,134.615,77.9814285714285,"NO",NA,18407533,18407791,258,"No",NA,NA,NA,NA
"141",99,122,"ben",18413364140,18418742,"5","s?t","bir",18414051,18418448,"556",18416496,18416503,18416494,7.367,2,18416479,18416500,21,500.6,574.9,1.83521,140.790000000001,82.1275,"NO",NA,18416501,18417042,541,"No",NA,NA,NA,NA
"142",99,76,"ben",18421549141,18426859,"9","ile","ben",18422235,18426571,"870",18424442,18424449,18424439,7.389,3,18424422,18424447,25,801.2,900.1,2.44283,159.315,92.72,"NO",NA,18424448,18424710,262,"No",NA,NA,NA,NA
"143",99,21,"identical",18429181142,18432197,"4","zar",NA,18429685,18431901,"484",NA,NA,18430829,NA,NA,18431054,18431075,21,490.2,557.7,1.66725,145.729999999999,75.3911363636364,"NO",NA,18430828,18431053,225,"No",NA,NA,NA,NA
"144",99,37,"identical",18434031143,18438625,"5","eve",NA,18434794,18438331,"604",NA,NA,18436942,NA,NA,18437188,18437211,23,611.8,697.5,2.11679,140.79,87.2733333333333,"NO",NA,18436938,18437187,249,"No",NA,NA,NA,NA
"145",99,22,"ben",18440440144,18447237,"6","mum","ben",18441126,18445510,"594",18442851,18442857,18442849,5.608,2,18442837,18442860,23,553.7,645.8,2.27487,150.669999999999,93.3454166666667,"NO",NA,18442861,18443119,258,"Yes","left","left",1419.263,1
"146",99,72,"ben",18450154145,18457063,"4","muz","ben",18451879,18456774,"425",18453586,18453594,18453584,7.59,2,18454015,18454091,76,425.1,444.6,0.48165,65.4550000000001,18.6372727272727,"NO",NA,18453582,18454014,432,"No",NA,NA,NA,NA
"147",99,39,"identical",18458659146,18465945,"6","eve",NA,18459438,18463444,"617",NA,NA,18462098,NA,NA,18462087,18462107,20,588.3,638.7,1.24488,108.679999999999,60.3915,"NO",NA,18462108,18462271,163,"Yes","right","right",2194.203,1
"148",99,54,"ben",18467923147,18481169,"4","buz","ben",18468426,18480875,"557",18475221,18475230,18475219,8.49,2,18475176,18475220,44,330.4,563,5.74522,242.06,126.271888888889,"NO",NA,18475221,18475562,341,"No",NA,NA,NA,NA
"149",99,34,"ben",18483086148,18490431,"7","iri","bir",18483760,18487527,"581",18485928,18485937,18485926,9.003,2,18485914,18485936,22,543.2,610,1.64996,128.44,70.4486956521739,"NO",NA,18485937,18486146,209,"Yes","right","right",2601.752,1
"150",99,94,"ben",18494192149,18498901,"6","?ok","bir",18494843,18498602,"532",18496438,18496444,18496436,6.159,2,18496415,18496439,24,435.4,538.1,2.53669,181.545,100.6772,"NO",NA,18496440,18496801,361,"No",NA,NA,NA,NA
"151",99,66,"ben",18501066150,18506679,"6","ku?","ben",18501692,18506382,"580",18504689,18504695,18504687,5.596,2,18504676,18504690,14,550.2,588.3,0.941069999999998,96.3299999999994,59.6916666666667,"NO",NA,18504691,18504912,221,"No",NA,NA,NA,NA
"152",99,12,"ben",18508754151,18513324,"5","a?k","bir",18509396,18513025,"449",18510767,18510776,18510765,9.385,2,18510751,18510771,20,402.3,468.5,1.63514,116.09,76.0995238095238,"NO",NA,18510772,18510922,150,"No",NA,NA,NA,NA
"153",99,86,"ben",18515252152,18520360,"5","tur","ben",18515907,18520069,"424",18518221,18518230,18518219,9.233,2,18518212,18518231,19,411.5,467.5,1.3832,119.795,68.0485,"NO",NA,18518232,18518382,150,"No",NA,NA,NA,NA
"154",99,27,"identical",18522130153,18528647,"2","nal",NA,18522810,18528353,"317",NA,NA,18525740,NA,NA,18525733,18525754,21,302,376.4,1.83768,142.025,81.6222727272727,"NO",NA,18525755,18526049,294,"No",NA,NA,NA,NA
"155",99,41,"identical",18530742154,18534750,"5","eve",NA,18531332,18534454,"544",NA,NA,18532868,NA,NA,18532852,18532871,19,484.5,551.1,1.64502,139.555000000001,81.016,"NO",NA,18532872,18533043,171,"No",NA,NA,NA,NA
"156",99,70,"ben",18537087155,18541828,"4","pik","ben",18537702,18541532,"616",18539463,18539470,18539461,6.879,2,18539451,18539472,21,583.3,658.5,1.85744,142.025,82.9134090909091,"NO",NA,18539473,18539766,293,"No",NA,NA,NA,NA
"157",99,123,"identical",18547600156,18554449,"7","ac?",NA,18548225,18554150,"665",NA,NA,18549060,NA,NA,18549038,18549096,58,441.4,1033.5,14.62487,461.89,247.816355932203,"NO",NA,18549097,18549313,216,"No",NA,NA,NA,NA
"158",99,16,"ben",18556369157,18563712,"7","?il","bir",18557081,18561634,"676",18557589,18557598,18557633,8.871,-44,18557460,18557664,204,214.6,1730,37.43038,NA,NA,"YES",143,18557665,18557738,73,"Yes","left","left",1767.912,1
"159",99,69,"identical",18566204158,18569807,"4","tat",NA,18567484,18569513,"364",NA,NA,18568409,NA,NA,18568400,18568419,19,341.2,396.9,1.37579,101.27,66.13425,"NO",NA,18568420,18568669,249,"No",NA,NA,NA,NA
"160",99,129,"identical",18572125159,18575800,"3","hep",NA,18573194,18575508,"424",NA,NA,18574183,NA,NA,18574237,18574261,24,422.8,511.8,2.1983,161.785,87.3886,"NO",NA,18574262,18574485,223,"No",NA,NA,NA,NA
"161",99,113,"identical",18578063160,18583137,"8","s?t",NA,18578725,18582845,"762",NA,NA,18581168,NA,NA,18581158,18581179,21,733.1,805.1,1.7784,142.025,79.3206818181818,"NO",NA,18581180,18581485,305,"No",NA,NA,NA,NA
"162",99,83,"identical",18585022161,18588740,"6","top",NA,18585520,18588417,"568",NA,NA,18586942,NA,NA,18586924,18586945,21,496,575.2,1.95624,156.845000000001,87.8534090909091,"NO",NA,18586946,18587107,161,"No",NA,NA,NA,NA
"163",99,28,"ben",18590527162,18597051,"7","mor","ben",18591214,18596754,"676",18594111,18594117,18594110,5.877,1,18594092,18594112,20,626.3,679.7,1.31898,121.029999999999,61.2207142857143,"NO",NA,18594113,18594495,382,"No",NA,NA,NA,NA
"164",99,31,"identical",18598734163,18602054,"4","ac?",NA,18599402,18601756,"389",NA,NA,18600480,NA,NA,18600472,18600493,21,370.2,443.7,1.81545,150.67,80.6118181818182,"NO",NA,18600494,18600747,253,"No",NA,NA,NA,NA
"165",99,7,"identical",18604113164,18607961,"6","zor",NA,18604507,18607655,"497",NA,NA,18605910,NA,NA,18605897,18605916,19,457.1,522.6,1.61785,125.97,79.6575,"NO",NA,18605917,18606162,245,"No",NA,NA,NA,NA
"166",99,107,"identical",18609827165,18618294,"6","hi?",NA,18611419,18615724,"556",NA,NA,18613515,NA,NA,18613500,18613518,18,505.4,564.9,1.46965,129.675,75.465,"NO",NA,18613519,18613743,224,"Yes","right","right",2264.732,1
"167",99,47,"identical",18620549166,18624088,"5","t?m",NA,18621050,18623793,"604",NA,NA,18622421,NA,NA,18622396,18622424,28,491.5,608.9,2.89978,196.365,100.035,"NO",NA,18622425,18622666,241,"No",NA,NA,NA,NA
"168",99,101,"identical",18626045167,18631733,"3","kez",NA,18627274,18631433,"401",NA,NA,18629296,NA,NA,18629478,18629495,17,411.5,454.8,1.06951,93.8600000000003,57.7705555555556,"NO",NA,18629296,18629477,181,"No",NA,NA,NA,NA
"169",99,25,"identical",18633710168,18638411,"3","tuz",NA,18634427,18638111,"364",NA,NA,18636249,NA,NA,18636236,18636256,20,317.4,391.6,1.83274,142.025,85.5678571428572,"NO",NA,18636257,18636483,226,"No",NA,NA,NA,NA
"170",99,74,"ben",18640383169,18646915,"10","?ut","ben",18640993,18646618,"906",18644374,18644384,18644371,9.877,3,18644954,18644975,21,905.1,974,1.70183,160.55,76.3454545454545,"NO",NA,18644976,18645027,51,"No",NA,NA,NA,NA
"171",99,87,"identical",18649385170,18654139,"4","yem",NA,18650411,18653832,"568",NA,NA,18651422,NA,NA,18651400,18651423,23,469.6,573.3,2.56139,209.95,104.923541666667,"NO",NA,18651424,18651593,169,"No",NA,NA,NA,NA
"172",99,56,"ben",18655898171,18661918,"3","hep","ben",18656560,18659159,"448",18657587,18657594,18657585,7.099,2,18657571,18657589,18,396,458.7,1.54869,134.615,79.105,"NO",NA,18657590,18658001,411,"Yes","right","right",2453.037,1
"173",99,47,"identical",18664552172,18669592,"5","?ok",NA,18665269,18669304,"532",NA,NA,18667408,NA,NA,18667273,18667467,194,445.3,556.2,2.73923,NA,NA,"YES",111,18667468,18667734,266,"No",NA,NA,NA,NA
"174",99,109,"identical",18671684173,18676062,"3","kar",NA,18672164,18674574,"375",NA,NA,18672996,NA,NA,18672982,18673000,18,336,387.6,1.27452,93.8600000000003,65.585,"NO",NA,18673001,18673245,244,"Yes","right","right",1190.641,1
"175",99,81,"identical",18678117174,18683615,"7","?ok",NA,18678617,18683323,"677",NA,NA,18680689,NA,NA,18680677,18680697,20,640.2,703.5,1.56351,125.969999999999,73.7471428571428,"NO",NA,18680698,18680899,201,"No",NA,NA,NA,NA
"176",99,133,"identical",18685918175,18691518,"6","cam",NA,18686538,18691229,"569",NA,NA,18689135,NA,NA,18689120,18689141,21,508.8,584.9,1.87967,170.430000000001,85.4395454545455,"NO",NA,18689142,18689334,192,"No",NA,NA,NA,NA
"177",99,10,"ben",18694681176,18699189,"3","?ok","ben",18695189,18698900,"268",18695801,18695810,18695799,9.414,2,18695794,18695808,14,258.2,293.4,0.86944,101.27,55.9043333333333,"NO",NA,18695809,18696321,512,"No",NA,NA,NA,NA
"178",99,50,"ben",18701249177,18706495,"7","?ok","ben",18701759,18706200,"665",18703844,18703853,18703841,8.494,3,18703828,18703849,21,631.4,688.8,1.41778,111.15,64.388409090909,"NO",NA,18703850,18704259,409,"No",NA,NA,NA,NA
"179",99,118,"ben",18708931178,18716997,"7","g?n","ben",18709438,18716710,"617",18712995,18713004,18712993,9.16,2,18712985,18713001,16,595.9,642.7,1.15596,107.445000000001,65.5276470588236,"NO",NA,18713002,18713512,510,"No",NA,NA,NA,NA
"180",99,114,"ben",18719020179,18729027,"5","zor","ben",18719515,18724382,"616",18721514,18721522,18721511,7.716,3,18721496,18721517,21,559.7,633.4,1.82039,129.675,81.0047727272727,"NO",NA,18721518,18721685,167,"Yes","left","left",4334.802,1
"181",99,102,"ben",18731237180,18736875,"3","saf","bir",18731912,18736577,"495",18733707,18733714,18733705,6.77,2,18733685,18733708,23,415.6,500.9,2.10691,153.14,86.913125,"NO",NA,18733709,18734214,505,"No",NA,NA,NA,NA
"182",99,66,"ben",18738833181,18743186,"8","kel","bir",18739496,18742888,"700",18741307,18741314,18741305,6.801,2,18741295,18741317,22,673.6,751.3,1.91919,148.2,82.100652173913,"NO",NA,18741318,18741611,293,"No",NA,NA,NA,NA
"183",99,98,"ben",18744831182,18751745,"2","cam","ben",18745552,18749993,"339",18747844,18747850,18747841,6.044,3,18747837,18747856,19,333.3,400.7,1.66478,143.26,81.1395,"NO",NA,18747857,18748037,180,"Yes","left","left",1447.374,1
"184",99,11,"identical",18754650183,18760149,"5","toz",NA,18756410,18759857,"460",NA,NA,18758786,NA,NA,18758901,18758921,20,458.1,526.4,1.68701,139.555,79.4516666666666,"NO",NA,18758922,18759120,198,"No",NA,NA,NA,NA
"185",99,42,"ben",18770653184,18774599,"5","iyi","ben",18771326,18774300,"545",18772600,18772606,18772598,6.222,2,18772579,18772605,26,457.8,579,2.99364,205.01,109.137407407407,"NO",NA,18772606,18772894,288,"No",NA,NA,NA,NA
"186",99,96,"ben",18776917185,18783608,"4","iyi","ben",18777583,18781100,"555",18778693,18778701,18778691,7.282,2,18778675,18778695,20,490.7,568.6,1.92413,170.430000000001,89.0964285714286,"NO",NA,18778696,18779056,360,"Yes","right","right",2211.888,1
"187",99,1,"identical",18785671186,18789906,"5","ak?",NA,18786171,18789611,"582",NA,NA,18787896,NA,NA,18787886,18787904,18,548.3,610.3,1.5314,129.675,78.975,"NO",NA,18787905,18788071,166,"No",NA,NA,NA,NA
"188",99,38,"ben",18791792187,18796059,"5","hi?","ben",18792273,18795757,"617",18793790,18793822,18793788,31.617,2,18793773,18793795,22,562.3,644.4,2.02787,166.725,87.6313043478261,"NO",NA,18793796,18794063,267,"No",NA,NA,NA,NA
"189",99,106,"ben",18797776188,18804887,"5","iyi","ben",18798255,18802512,"521",18799515,18799523,18799514,7.83,1,18799498,18799518,20,471.4,537.1,1.62279,118.56,75.3350000000001,"NO",NA,18799519,18799709,190,"Yes","right","right",2068.682,1
"190",99,75,"identical",18848020189,18854084,"4","hi?",NA,18848564,18851096,"508",NA,NA,18849665,NA,NA,18849651,18849670,19,459.1,517.9,1.45236,133.38,71.0125,"NO",NA,18849671,18849909,238,"Yes","right","right",2682.398,1
"191",99,31,"identical",18856594190,18861567,"4","zor",NA,18857624,18860103,"448",NA,NA,18858622,NA,NA,18858782,18858802,20,454.9,521,1.63267,149.435,75.335,"NO",NA,18858618,18858781,163,"Yes","right","right",1166.052,1
"192",99,115,"identical",18864909191,18868147,"3","g?k",NA,18865561,18867850,"364",NA,NA,18866598,NA,NA,18866591,18866611,20,347.4,415,1.66972,135.85,77.6285714285714,"NO",NA,18866612,18866849,237,"No",NA,NA,NA,NA
"193",99,68,"ben",18870451192,18875206,"5","?ok","ben",18870934,18874915,"533",18872878,18872886,18872876,7.79,2,18872862,18872881,19,490.4,547.1,1.40049,135.85,68.7895000000001,"NO",NA,18872882,18873108,226,"No",NA,NA,NA,NA
"194",99,115,"identical",18877078193,18882284,"8","ge?",NA,18877804,18881992,"688",NA,NA,18880594,NA,NA,18880588,18880607,19,679.2,738.4,1.46224,119.795000000001,71.3212499999999,"NO",NA,18880608,18880928,320,"No",NA,NA,NA,NA
"195",99,82,"ben",18884870194,18897849,"6","?al","ben",18886034,18897556,"725",18888341,18888349,18888339,7.393,2,18888326,18888346,20,679.3,742.8,1.56845,119.795000000001,72.5121428571429,"NO",NA,18888347,18888632,285,"No",NA,NA,NA,NA
"196",99,91,"identical",18899808195,18904805,"4","kez",NA,18901000,18904498,"389",NA,NA,18901914,NA,NA,18901902,18901914,12,359.7,390.9,0.77064,85.2150000000004,55.765,"NO",NA,18901915,18902192,277,"No",NA,NA,NA,NA
"197",99,88,"ben",18907049196,18912213,"6","?ok","bir",18908015,18911922,"724",18909802,18909809,18909800,7.116,2,18909791,18909809,18,704.8,751.6,1.15596,100.035,61.8186111111111,"NO",NA,18909810,18910127,317,"No",NA,NA,NA,NA
"198",99,122,"ben",18914108197,18920625,"5","ile","ben",18914581,18920340,"582",18918076,18918085,18918074,8.878,2,18918422,18918443,21,586,657.4,1.76358,144.495000000001,78.7031818181818,"NO",NA,18918064,18918421,357,"No",NA,NA,NA,NA
"199",99,44,"ben",18922426198,18928781,"9","kez","ben",18923132,18928485,"881",18926627,18926636,18926625,8.84,2,18926615,18926635,20,852.2,924.9,1.79569,142.025,82.9802380952381,"NO",NA,18926636,18926802,166,"No",NA,NA,NA,NA
"200",99,63,"identical",18930637199,18936316,"8","?ok",NA,18931241,18936026,"713",NA,NA,18934433,NA,NA,18934426,18934446,20,700,766.9,1.65243,135.85,77.0404761904762,"NO",NA,18934447,18934815,368,"No",NA,NA,NA,NA
"201",99,29,"identical",18938135200,18943477,"5","kez",NA,18939437,18943179,"642",NA,NA,18941418,NA,NA,18941403,18941421,18,585.3,649.8,1.59315,164.254999999999,81.965,"NO",NA,18941422,18941585,163,"No",NA,NA,NA,NA
"202",99,15,"identical",18945345201,18951413,"3","kez",NA,18946053,18951123,"424",NA,NA,18948362,NA,NA,18948528,18948549,21,420.8,492.7,1.77593,123.5,79.0961363636363,"NO",NA,18948550,18949236,686,"No",NA,NA,NA,NA
"203",99,3,"identical",18954626202,18961337,"7","hi?",NA,18955267,18961042,"616",NA,NA,18958918,NA,NA,18958905,18958924,19,567.6,634.5,1.65243,149.435,81.20125,"NO",NA,18958925,18959109,184,"No",NA,NA,NA,NA
"204",99,36,"ben",18964252203,18974334,"5","yol","bir",18965023,18972554,"592",18967711,18967718,18967709,6.846,2,18967693,18967715,22,537.9,610.9,1.8031,127.205000000001,77.3754347826087,"NO",NA,18967716,18967875,159,"Yes","left","left",1477.119,1
"205",99,25,"identical",18976381204,18979537,"2","ipi",NA,18976874,18979240,"318",NA,NA,18977490,NA,NA,18977476,18977496,20,277.5,335,1.42025,122.265,66.3959523809524,"NO",NA,18977497,18977756,259,"No",NA,NA,NA,NA
"206",99,80,"ben",18982573205,18989130,"6","?ok","bir",18983961,18987635,"653",18985450,18985458,18985448,7.966,2,18985439,18985457,18,631.1,686.5,1.36838,123.5,70.3950000000001,"NO",NA,18985458,18985736,278,"Yes","right","right",1196.207,1
"207",99,45,"identical",18991912206,18997508,"9","hak",NA,18992407,18996268,"844",NA,NA,18994946,NA,NA,18994936,18994958,22,818.3,893.1,1.84756,130.909999999999,79.2010869565217,"NO",NA,18994959,18995126,167,"Yes","left","left",943.308,1
"208",99,111,"identical",19000226207,19004895,"5","d??",NA,19000921,19003265,"388",NA,NA,19001754,NA,NA,19001679,19001773,94,339.1,392.7,1.32392,519.935,72.332,"NO",NA,19001774,19001937,163,"Yes","right","right",1329.239,1
"209",99,127,"identical",19006567208,19009989,"6","tas",NA,19007069,19009688,"496",NA,NA,19009183,NA,NA,19009169,19009190,21,434.7,516.6,2.02293,177.84,91.3338636363637,"NO",NA,19009191,19009319,128,"No",NA,NA,NA,NA
"210",99,70,"ben",19011915209,19017133,"4","eve","bir",19013151,19016845,"484",19015266,19015274,19015264,7.65,2,19015248,19015275,27,417.3,531.1,2.81086,174.135,99.6380357142857,"NO",NA,19015276,19015515,239,"No",NA,NA,NA,NA
"211",99,73,"identical",19019156210,19024320,"3","cam",NA,19019645,19024028,"423",NA,NA,19020840,NA,NA,19020833,19020852,19,403.3,471.5,1.68454,138.32,82.80675,"NO",NA,19020853,19021043,190,"No",NA,NA,NA,NA
"212",99,134,"ben",19026205211,19034599,"6","pek","ben",19027883,19034308,"700",19032109,19032117,19032108,7.904,1,19032087,19032110,23,626,710.5,2.08715,140.790000000001,84.751875,"NO",NA,19032111,19032390,279,"No",NA,NA,NA,NA
"213",99,119,"identical",19036359212,19041906,"7","zor",NA,19036814,19040160,"725",NA,NA,19039808,NA,NA,19039797,19039820,23,689.8,769.2,1.96118,163.019999999999,79.8633333333334,"NO",NA,19039821,19039984,163,"Yes","left","left",1441.046,1
"214",99,56,"ben",19044399213,19048697,"2","dil","bir",19046441,19048407,"376",19047405,19047413,19047403,7.607,2,19047395,19047413,18,355,408,1.3091,107.445,67.8563888888889,"NO",NA,19047414,19047860,446,"No",NA,NA,NA,NA
"215",99,124,"ben",19050688214,19062539,"5","kel","bir",19058275,19062242,"567",19060691,19060698,19060689,6.97,2,19060678,19060698,20,528.5,605.1,1.89202,163.020000000001,87.99375,"NO",NA,19060699,19060961,262,"No",NA,NA,NA,NA
"216",99,72,"ben",19064642215,19070648,"3","rom","bir",19067601,19070355,"339",19068327,19068336,19068325,8.465,2,19068309,19068333,24,276.6,365.2,2.18842,145.73,86.5488,"NO",NA,19068334,19068721,387,"No",NA,NA,NA,NA
"217",99,40,"ben",19072637216,19078418,"7","","bir",19073967,19078126,"617",19076259,19076269,19076257,9.909,2,19076418,19076439,21,616,679.1,1.55857,134.615,70.0020454545455,"NO",NA,19076255,19076417,162,"No",NA,NA,NA,NA
"218",99,46,"ben",19080590217,19085404,"6","ama","bir",19081220,19085107,"654",19083677,19083686,19083675,8.439,2,19083665,19083692,27,627.5,747.7,2.96894,176.604999999999,105.28375,"NO",NA,19083693,19084098,405,"No",NA,NA,NA,NA
"219",99,36,"ben",19087839218,19091732,"6","iyi","ben",19088520,19091444,"665",19090286,19090293,19090284,6.65,2,19090279,19090303,24,658.7,756.9,2.42554,165.49,94.8974,"NO",NA,19090304,19090536,232,"No",NA,NA,NA,NA
"220",99,97,"identical",19093848219,19097109,"5","iyi",NA,19094504,19096816,"413",NA,NA,19095433,NA,NA,19095423,19095444,21,380.3,458.1,1.92166,137.085,86.2735714285714,"NO",NA,19095445,19095666,221,"No",NA,NA,NA,NA
"221",99,114,"ben",19098881220,19103884,"2","?i?","bir",19099544,19102007,"365",19100250,19100258,19100249,7.597,1,19100225,19100252,27,250.2,370.2,2.964,203.775,105.460178571429,"NO",NA,19100253,19100612,359,"Yes","left","left",1572.608,1
"222",99,51,"identical",19106138221,19109970,"5","eve",NA,19106790,19109672,"534",NA,NA,19108110,NA,NA,19108093,19108113,20,481.2,540.6,1.46718,123.5,68.4542857142857,"NO",NA,19108114,19108276,162,"No",NA,NA,NA,NA
"223",99,20,"ben",19112027222,19118899,"3","mal","bir",19113142,19115968,"387",19113799,19113806,19113797,6.498,2,19113781,19113801,20,324.2,398.9,1.84509,145.73,87.0969047619048,"NO",NA,19113802,19114054,252,"Yes","left","left",2622.114,1
"224",99,77,"identical",19121917223,19126210,"6","dar",NA,19122553,19125916,"653",NA,NA,19124378,NA,NA,19124710,19124732,22,655.7,731.2,1.86485,143.26,80.0065217391304,"NO",NA,19124378,19124709,331,"No",NA,NA,NA,NA
"225",99,32,"ben",19128069224,19132846,"2","k?f","ben",19128697,19131287,"377",19129297,19129306,19129296,8.635,1,19129689,19129705,16,323.6,377.5,1.33133,119.795,75.6255882352941,"NO",NA,19129706,19129865,159,"Yes","left","left",1255.498,1
"226",99,98,"ben",19135487225,19139958,"3","g?z","bir",19136047,19139664,"353",19137110,19137118,19137109,8.297,1,19137276,19137295,19,364.9,429.2,1.58821,137.085,76.87875,"NO",NA,19137109,19137275,166,"No",NA,NA,NA,NA
"227",99,4,"ben",19142912226,19148928,"4","hep","ben",19143509,19146898,"389",19144517,19144522,19144515,5.296,2,19144495,19144520,25,306.2,403.1,2.39343,154.375,91.6275,"NO",NA,19144521,19145273,752,"Yes","left","left",1729.535,1
"228",99,96,"ben",19150694227,19154614,"7","g?k","bir",19151309,19154316,"532",19152591,19152598,19152589,6.471,2,19152572,19152597,25,470.9,554.5,2.06492,137.085,79.04,"NO",NA,19152598,19152769,171,"No",NA,NA,NA,NA
"229",99,42,"ben",19156482228,19161406,"6","?ok","bir",19157457,19161108,"591",19158915,19158921,19158913,6.074,2,19158902,19158923,21,555,640.6,2.11432,165.49,94.3652272727273,"NO",NA,19158924,19159326,402,"No",NA,NA,NA,NA
"230",99,52,"ben",19163298229,19169912,"5","iyi","bir",19163985,19169619,"531",19165468,19165474,19165466,5.885,2,19165859,19165888,29,454.4,593.9,3.44565,224.77,114.402166666667,"NO",NA,19165889,19166138,249,"No",NA,NA,NA,NA
"231",99,61,"identical",19172588230,19183010,"5","toz",NA,19175990,19181120,"604",NA,NA,19178821,NA,NA,19178807,19178829,22,550.9,638.1,2.15384,153.14,91.9269565217392,"NO",NA,19178830,19179053,223,"Yes","left","left",1582.278,1
"232",99,127,"identical",19184847231,19191995,"6","yem",NA,19186105,19190091,"569",NA,NA,19187838,NA,NA,19187823,19187843,20,512.3,587.2,1.85003,150.669999999999,87.0969047619048,"NO",NA,19187844,19188151,307,"Yes","left","left",1607.907,1
"233",99,86,"ben",19194463232,19206603,"5","t?y","bir",19196562,19200981,"533",19198810,19198819,19198808,8.462,2,19198789,19198811,22,453.7,537,2.05751,171.665,88.5441304347826,"NO",NA,19198812,19199042,230,"Yes","right","right",5318.795,1
"234",99,103,"identical",19208825233,19214065,"2","fal",NA,19210160,19213769,"363",NA,NA,19210645,NA,NA,19210623,19210654,31,223.3,395.9,4.26322,282.815,133.38,"NO",NA,19210655,19210848,193,"No",NA,NA,NA,NA
"235",99,130,"ben",19216124234,19221751,"5","?ok","ben",19216738,19221455,"677",19219856,19219862,19219855,6.112,1,19219837,19219860,23,604.5,697.5,2.2971,167.96,95.40375,"NO",NA,19219861,19220310,449,"No",NA,NA,NA,NA
"236",99,99,"identical",19223645235,19231630,"5","bal",NA,19224296,19230254,"605",NA,NA,19227574,NA,NA,19227554,19227580,26,512.6,619.2,2.63302,229.709999999999,97.8394444444445,"NO",NA,19227760,19227903,143,"Yes","left","left",1073.497,1
"237",99,19,"identical",19236502236,19240359,"4","?am",NA,19237899,19240062,"533",NA,NA,19238685,NA,NA,19238667,19238693,26,455.9,565,2.69477,185.25,98.3883333333333,"NO",NA,19238694,19238955,261,"No",NA,NA,NA,NA
"238",99,18,"ben",19242848237,19247195,"4","ta?","ben",19243642,19246901,"472",19244229,19244239,19244226,9.594,3,19245484,19245505,21,454.2,513.6,1.46718,139.554999999999,66.3531818181818,"NO",NA,19244224,19244395,171,"No",NA,NA,NA,NA
"239",99,120,"ben",19249073238,19252656,"3","gri","ben",19249653,19252359,"414",19250874,19250879,19250873,4.974,1,19252161,19252272,111,409.5,1808.1,34.54542,454.479999999999,310.040133928571,"NO",NA,19252273,19252373,100,"No",NA,NA,NA,NA
"240",99,85,"identical",19254793239,19259034,"8","kin",NA,19255614,19258736,"724",NA,NA,19257093,NA,NA,19257082,19257102,20,691.5,759.5,1.6796,132.145000000001,78.8635714285714,"NO",NA,19257103,19257265,162,"No",NA,NA,NA,NA
"241",99,24,"ben",19260876240,19265469,"3","i?i","bir",19262742,19265174,"544",19263579,19263585,19263577,5.387,2,19263561,19263587,26,471.2,595.3,3.06527,208.715,111.973333333333,"NO",NA,19263588,19263783,195,"No",NA,NA,NA,NA
"242",99,87,"identical",19267220241,19274290,"2","zil",NA,19267977,19270902,"377",NA,NA,19268510,NA,NA,19268491,19268510,19,309.9,377.6,1.67219,150.67,82.06575,"NO",NA,19268511,19268701,190,"Yes","left","left",3088.132,1
"243",99,79,"identical",19276492242,19280724,"5","ara",NA,19277988,19280417,"651",NA,NA,19279204,NA,NA,19279200,19279217,17,645.5,691.7,1.14114,100.035,61.5441666666667,"NO",NA,19279218,19279437,219,"No",NA,NA,NA,NA
"244",99,74,"ben",19282748243,19299701,"4","?ok","bir",19294210,19297164,"447",19295775,19295782,19295773,7.062,2,19295758,19295781,23,388.1,482.4,2.32921,167.96,95.095,"NO",NA,19295782,19296084,302,"Yes","left","left",2230.288,1
"245",99,89,"identical",19301514244,19306646,"5","iyi",NA,19302798,19306351,"555",NA,NA,19305185,NA,NA,19305170,19305193,23,501,594.5,2.30945,195.129999999999,94.9920833333333,"NO",NA,19305194,19305348,154,"No",NA,NA,NA,NA
"246",99,33,"identical",19308722245,19311748,"5","gol",NA,19309293,19311456,"617",NA,NA,19310341,NA,NA,19310318,19310370,52,428.3,891,11.42869,410.020000000001,215.309433962264,"NO",NA,19310371,19310602,231,"No",NA,NA,NA,NA
"247",99,13,"identical",19314564246,19317851,"5","k?f",NA,19315082,19317554,"580",NA,NA,19316367,NA,NA,19316353,19316372,19,528.8,595,1.63514,155.61,80.8307500000001,"NO",NA,19316373,19316566,193,"No",NA,NA,NA,NA
"248",99,120,"ben",19319755247,19323828,"3","?ok","bir",19320843,19323535,"423",19321995,19322002,19322041,7.183,-46,19322359,19322378,19,430.5,489.9,1.46718,113.62,70.148,"NO",NA,19321918,19322358,440,"No",NA,NA,NA,NA
"249",99,44,"ben",19325684248,19332257,"6","i?e","bir",19326136,19330463,"641",19329169,19329177,19329168,7.63,1,19329152,19329174,22,588.2,666.3,1.92907,150.669999999999,82.7449999999999,"NO",NA,19329175,19329489,314,"Yes","right","right",1488.829,1
"250",99,6,"ben",19334003249,19338326,"4","ay?","ben",19334770,19338029,"437",19336387,19336393,19336385,5.694,2,19336375,19336399,24,414.6,508.7,2.32427,156.845,91.7852,"NO",NA,19336400,19336684,284,"No",NA,NA,NA,NA
"251",99,69,"identical",19340095250,19344687,"7","pes",NA,19340677,19344390,"773",NA,NA,19343457,NA,NA,19343441,19343465,24,708.8,807.2,2.43048,163.020000000001,96.2312,"NO",NA,19343466,19343705,239,"No",NA,NA,NA,NA
"252",99,22,"ben",19346465251,19350707,"2","kar","bir",19347822,19350414,"327",19348539,19348548,19348537,8.631,2,19348516,19348537,21,247.9,327.8,1.97353,142.025,87.3481818181818,"NO",NA,19348538,19348870,332,"No",NA,NA,NA,NA
"253",99,6,"ben",19353346252,19361026,"5","ile","bir",19354454,19359024,"484",19357599,19357608,19357597,8.275,2,19357579,19357605,26,403.1,516.7,2.80592,207.48,102.870925925926,"NO",NA,19357606,19357901,295,"Yes","left","left",1693.592,1
"254",99,37,"identical",19363178253,19368514,"3","kar",NA,19363768,19368219,"377",NA,NA,19364576,NA,NA,19364559,19364579,20,310.4,383.6,1.80804,144.495,84.2740476190477,"NO",NA,19364580,19364853,273,"No",NA,NA,NA,NA
"255",99,133,"identical",19370321254,19375014,"5","ipi",NA,19371091,19374723,"676",NA,NA,19372739,NA,NA,19372715,19372739,24,583.7,676.5,2.29216,140.790000000001,90.155,"NO",NA,19372740,19372888,148,"No",NA,NA,NA,NA
"256",99,92,"ben",19376798255,19382251,"4","muz","ben",19377333,19380584,"437",19378862,19378868,19378860,5.849,2,19379212,19379237,25,434.1,538.3,2.57374,180.31,98.2775,"NO",NA,19379238,19379432,194,"Yes","right","right",1367.833,1
"257",99,101,"identical",19384214256,19390073,"5","k?r",NA,19384741,19387555,"521",NA,NA,19386137,NA,NA,19386419,19386438,19,521.8,592.4,1.74382,163.020000000001,84.16525,"NO",NA,19386439,19386640,201,"Yes","left","left",2198.93,1
"258",99,119,"identical",19391891257,19396827,"7","ke?",NA,19392353,19396527,"784",NA,NA,19395002,NA,NA,19394988,19395011,23,734.4,823.3,2.19583,130.91,89.84625,"NO",NA,19395012,19395223,211,"No",NA,NA,NA,NA
"259",99,4,"ben",19398641258,19402103,"4","eve","bir",19399128,19401809,"472",19400182,19400191,19400179,9.194,3,19400163,19400184,21,410.3,485.3,1.8525,150.67,83.0256818181818,"NO",NA,19400185,19400320,135,"No",NA,NA,NA,NA
"260",99,136,"ben",19404017259,19410449,"4","dar","ben",19404663,19407719,"520",19405740,19405747,19405738,7.062,2,19405725,19405746,21,472.4,549.1,1.89449,159.315,85.1588636363637,"NO",NA,19405747,19406074,327,"Yes","right","right",2418.57,1
"261",99,19,"identical",19412195260,19419461,"4","top",NA,19413439,19417144,"495",NA,NA,19414446,NA,NA,19414434,19414456,22,453.3,535.6,2.03281,171.665,87.7923913043478,"NO",NA,19414457,19414696,239,"Yes","right","right",2013.307,1
"262",99,135,"identical",19422677261,19426720,"6","kek",NA,19423880,19426431,"581",NA,NA,19425125,NA,NA,19425116,19425140,24,561.3,645.1,2.06986,163.019999999999,82.6462,"NO",NA,19425141,19425398,257,"No",NA,NA,NA,NA
"263",99,35,"identical",19428797262,19433167,"7","ile",NA,19429719,19432871,"606",NA,NA,19431564,NA,NA,19431556,19431577,21,591.1,652,1.50423,138.320000000001,66.4093181818182,"NO",NA,19431578,19431781,203,"No",NA,NA,NA,NA
"264",99,68,"ben",19435214263,19439483,"4","buz","bir",19436134,19439192,"508",19437344,19437352,19437342,8.275,2,19437659,19437683,24,516,612.8,2.39096,188.954999999999,95.1444,"NO",NA,19437338,19437658,320,"No",NA,NA,NA,NA
"265",99,105,"identical",19441455264,19445930,"5","hep",NA,19442633,19445639,"460",NA,NA,19443679,NA,NA,19443911,19443933,22,458,547.4,2.20818,172.9,94.7728260869565,"NO",NA,19443934,19444206,272,"No",NA,NA,NA,NA
"266",99,61,"identical",19448025265,19453534,"3","t?p",NA,19449436,19453239,"424",NA,NA,19450802,NA,NA,19450794,19450811,17,405.7,451.1,1.12138,96.3300000000001,60.1719444444445,"NO",NA,19450812,19450967,155,"No",NA,NA,NA,NA
"267",99,113,"identical",19455330266,19461137,"3","pas",NA,19456903,19460836,"352",NA,NA,19458617,NA,NA,19458615,19458633,18,348.5,417.2,1.69689,155.61,86.385,"NO",NA,19458634,19458856,222,"No",NA,NA,NA,NA
"268",99,117,"identical",19463027267,19467873,"4","kez",NA,19464887,19467580,"509",NA,NA,19466103,NA,NA,19466090,19466113,23,468.6,549.7,2.00317,164.255,88.2219565217391,"NO",NA,19466114,19466369,255,"No",NA,NA,NA,NA
"269",99,116,"ben",19469643268,19474884,"6","ile","ben",19470505,19474589,"522",19472592,19472599,19472589,6.834,3,19472579,19472601,22,495.1,572.5,1.91178,181.544999999999,81.1878260869565,"NO",NA,19472602,19473177,575,"No",NA,NA,NA,NA
"270",99,24,"ben",19476612269,19483555,"6","?t?","ben",19477537,19483260,"654",19479481,19479490,19479479,8.642,2,19479471,19479489,18,635.3,687,1.27699,121.029999999999,65.5850000000001,"NO",NA,19479490,19479749,259,"No",NA,NA,NA,NA
"271",99,111,"identical",19485334270,19490339,"3","kan",NA,19486147,19490033,"473",NA,NA,19488239,NA,NA,19488212,19488246,34,308.1,489.5,4.48058,256.88,127.628428571429,"NO",NA,19488247,19488616,369,"No",NA,NA,NA,NA
"272",99,45,"identical",19492193271,19498687,"3","kar",NA,19494022,19496804,"388",NA,NA,19494998,NA,NA,19494978,19494998,20,323.7,389.6,1.62773,143.26,75.8642857142857,"NO",NA,19494999,19495234,235,"Yes","right","right",1572.5,1
"273",99,67,"identical",19501586272,19508016,"3","pul",NA,19503428,19507721,"413",NA,NA,19505178,NA,NA,19505166,19505188,22,371.4,461.5,2.22547,205.01,98.4070454545455,"NO",NA,19505189,19505483,294,"No",NA,NA,NA,NA
"274",99,130,"ben",19510065273,19513201,"4","bo?","bir",19510820,19512902,"388",19511869,19511875,19511867,5.599,2,19511848,19511871,23,301,399.1,2.42307,185.25,99.6747916666667,"NO",NA,19511872,19512216,344,"No",NA,NA,NA,NA
"275",99,33,"identical",19515130274,19519709,"5","ile",NA,19517189,19519417,"496",NA,NA,19518251,NA,NA,19518247,19518270,23,494.5,585.8,2.25511,171.665,91.9560416666666,"NO",NA,19518271,19518503,232,"No",NA,NA,NA,NA
"276",99,134,"ben",19521571275,19528057,"3","ela","bir",19524493,19526605,"340",19525223,19525231,19525221,8.029,2,19525213,19525232,19,317.3,384.5,1.65984,139.555,81.263,"NO",NA,19525233,19525460,227,"Yes","left","left",1146.264,1
"277",99,128,"ben",19530310276,19541797,"6","yer","ben",19530795,19535194,"568",19532841,19532848,19532839,6.511,2,19532824,19532846,22,516.3,596,1.96859,150.670000000001,83.4967391304348,"NO",NA,19532847,19533372,525,"Yes","left","left",6303.905,1
"278",99,95,"identical",19543929277,19547857,"5","ge?",NA,19544456,19547565,"497",NA,NA,19546086,NA,NA,19546069,19546092,23,404.4,516,2.75652,259.35,113.105416666667,"NO",NA,19546093,19546262,169,"No",NA,NA,NA,NA
"279",99,30,"ben",19549744278,19555561,"4","?ok","ben",19551718,19554168,"448",19552925,19552932,19552923,6.77,2,19552912,19552939,27,415.2,545,3.20606,221.065,113.0025,"NO",NA,19552940,19553124,184,"Yes","right","right",1083.376,1
"280",99,49,"identical",19557298279,19566841,"5","s?t",NA,19558655,19562705,"496",NA,NA,19561391,NA,NA,19561378,19561400,22,450.4,534.3,2.07233,180.31,90.8286363636364,"NO",NA,19561401,19561659,258,"Yes","left","left",3834.681,1
"281",99,92,"ben",19568621280,19577887,"8","toz","bir",19572583,19575880,"723",19574384,19574393,19574382,8.606,2,19574530,19574545,15,731.3,762.4,0.768170000000001,87.6850000000003,45.695,"NO",NA,19574381,19574529,148,"Yes","left","left",1703.833,1
"282",99,76,"ben",19579990281,19584857,"4","?ok","bir",19581200,19584565,"605",19582883,19582890,19582880,6.334,3,19582870,19582895,25,577.6,681.4,2.56386,190.190000000001,98.0875,"NO",NA,19582896,19583184,288,"No",NA,NA,NA,NA
