images,congruentcy,corrAns,arrow_1,arrow_2,arrow_3,target,arrow_5,arrow_6,arrow_7,practice.thisRepN,practice.thisTrialN,practice.thisN,practice.thisIndex,trials.thisRepN,trials.thisTrialN,trials.thisN,trials.thisIndex,trials_2.thisRepN,trials_2.thisTrialN,trials_2.thisN,trials_2.thisIndex,trials_3.thisRepN,trials_3.thisTrialN,trials_3.thisN,trials_3.thisIndex,instr_text.started,instr_text.stopped,instr_resp.keys,instr_resp.rt,polygon.started,polygon.stopped,arrow1_.started,arrow1_.stopped,arrow2_.started,arrow2_.stopped,arrow3_.started,arrow3_.stopped,target_p.started,target_p.stopped,arrow5_.started,arrow5_.stopped,arrow6_.started,arrow6_.stopped,arrow7_.started,arrow7_.stopped,key_resp_P.keys,key_resp_P.corr,key_resp_P.rt,key_resp_P.started,key_resp_P.stopped,text_2.started,text_2.stopped,text_3.started,text_3.stopped,text_4.started,text_4.stopped,key_resp_2.keys,key_resp_2.rt,key_resp_2.started,key_resp_2.stopped,arrow1.started,arrow1.stopped,arrow2.started,arrow2.stopped,arrow3.started,arrow3.stopped,target_t.started,target_t.stopped,arrow5.started,arrow5.stopped,arrow6.started,arrow6.stopped,arrow7.started,arrow7.stopped,key_resp.keys,key_resp.corr,key_resp.rt,key_resp.started,key_resp.stopped,text_5.started,text_5.stopped,key_resp_3.keys,key_resp_3.rt,key_resp_3.started,key_resp_3.stopped,text_6.started,text_6.stopped,key_resp_4.keys,key_resp_4.rt,key_resp_4.started,key_resp_4.stopped,participant,session,date,expName,psychopyVersion,frameRate,
,,,,,,,,,,,,,,,,,,,,,,,,,,14.467908699999953,None,space,15.52344660000017,,,,,,,,,,,,,,,,,,,,,,,,,,,,,,,,,,,,,,,,,,,,,,,,,,,,,,,,,,,,,,,10,001,2022_Oct_06_1539,Flanker,2021.2.0,239.43436026588327,
congruent-right.jpg,1,k,right_arrow.png,right_arrow.png,right_arrow.png,right_arrow.png,right_arrow.png,right_arrow.png,right_arrow.png,0,0,0,2,,,,,,,,,,,,,,,,,30.030241999999816,None,31.035160599999926,None,31.035160599999926,None,31.035160599999926,None,31.035160599999926,None,31.035160599999926,None,31.035160599999926,None,31.035160599999926,None,k,1,1.3482006999997793,31.035160599999926,None,32.40371640000012,None,,,,,,,,,,,,,,,,,,,,,,,,,,,,,,,,,,,,,,,,10,001,2022_Oct_06_1539,Flanker,2021.2.0,239.43436026588327,
neutral left,0,a,neutral.png,neutral.png,neutral.png,left_arrow.png,neutral.png,neutral.png,neutral.png,0,1,1,4,,,,,,,,,,,,,,,,,33.90094270000009,None,34.9267605,None,34.9267605,None,34.9267605,None,34.9267605,None,34.9267605,None,34.9267605,None,34.9267605,None,a,1,0.5050160000000687,34.9267605,None,35.444062199999735,None,,,,,,,,,,,,,,,,,,,,,,,,,,,,,,,,,,,,,,,,10,001,2022_Oct_06_1539,Flanker,2021.2.0,239.43436026588327,
congruent-right.jpg,1,k,right_arrow.png,right_arrow.png,right_arrow.png,right_arrow.png,right_arrow.png,right_arrow.png,right_arrow.png,0,2,2,2,,,,,,,,,,,,,,,,,36.945583499999884,None,37.95914559999983,None,37.95914559999983,None,37.95914559999983,None,37.95914559999983,None,37.95914559999983,None,37.95914559999983,None,37.95914559999983,None,k,1,0.5451327000000674,37.95914559999983,None,38.5184049999998,None,,,,,,,,,,,,,,,,,,,,,,,,,,,,,,,,,,,,,,,,10,001,2022_Oct_06_1539,Flanker,2021.2.0,239.43436026588327,
congruent-left.jpg,1,a,left_arrow.png,left_arrow.png,left_arrow.png,left_arrow.png,left_arrow.png,left_arrow.png,left_arrow.png,0,3,3,0,,,,,,,,,,,,,,,,,40.02384889999985,None,41.029081700000006,None,41.029081700000006,None,41.029081700000006,None,41.029081700000006,None,41.029081700000006,None,41.029081700000006,None,41.029081700000006,None,a,1,0.5158952000001591,41.029081700000006,None,41.562979799999994,None,,,,,,,,,,,,,,,,,,,,,,,,,,,,,,,,,,,,,,,,10,001,2022_Oct_06_1539,Flanker,2021.2.0,239.43436026588327,
neutral right,0,k,neutral.png,neutral.png,neutral.png,right_arrow.png,neutral.png,neutral.png,neutral.png,0,4,4,5,,,,,,,,,,,,,,,,,43.068867800000135,None,44.073944799999936,None,44.073944799999936,None,44.073944799999936,None,44.073944799999936,None,44.073944799999936,None,44.073944799999936,None,44.073944799999936,None,k,1,0.4390757000001031,44.073944799999936,None,44.52480259999993,None,,,,,,,,,,,,,,,,,,,,,,,,,,,,,,,,,,,,,,,,10,001,2022_Oct_06_1539,Flanker,2021.2.0,239.43436026588327,
incongruent-left.jpg,0,a,right_arrow.png,right_arrow.png,right_arrow.png,left_arrow.png,right_arrow.png,right_arrow.png,right_arrow.png,0,5,5,1,,,,,,,,,,,,,,,,,46.030177099999946,None,47.039608300000054,None,47.039608300000054,None,47.039608300000054,None,47.039608300000054,None,47.039608300000054,None,47.039608300000054,None,47.039608300000054,None,k,0,2.994447200000195,47.039608300000054,None,50.05530409999983,None,,,,,,,,,,,,,,,,,,,,,,,,,,,,,,,,,,,,,,,,10,001,2022_Oct_06_1539,Flanker,2021.2.0,239.43436026588327,
incongruent-right.jpg,0,k,left_arrow.png,left_arrow.png,left_arrow.png,right_arrow.png,left_arrow.png,left_arrow.png,left_arrow.png,1,0,6,3,,,,,,,,,,,,,,,,,51.55689230000007,None,52.56631930000003,None,52.56631930000003,None,52.56631930000003,None,52.56631930000003,None,52.56631930000003,None,52.56631930000003,None,52.56631930000003,None,k,1,0.9719774999998663,52.56631930000003,None,53.5550545000001,None,,,,,,,,,,,,,,,,,,,,,,,,,,,,,,,,,,,,,,,,10,001,2022_Oct_06_1539,Flanker,2021.2.0,239.43436026588327,
congruent-left.jpg,1,a,left_arrow.png,left_arrow.png,left_arrow.png,left_arrow.png,left_arrow.png,left_arrow.png,left_arrow.png,1,1,7,0,,,,,,,,,,,,,,,,,55.05240969999977,None,56.06192359999977,None,56.06192359999977,None,56.06192359999977,None,56.06192359999977,None,56.06192359999977,None,56.06192359999977,None,56.06192359999977,None,a,1,0.46100150000029316,56.06192359999977,None,56.537444199999754,None,,,,,,,,,,,,,,,,,,,,,,,,,,,,,,,,,,,,,,,,10,001,2022_Oct_06_1539,Flanker,2021.2.0,239.43436026588327,
neutral left,0,a,neutral.png,neutral.png,neutral.png,left_arrow.png,neutral.png,neutral.png,neutral.png,1,2,8,4,,,,,,,,,,,,,,,,,58.04292119999991,None,59.052306000000044,None,59.052306000000044,None,59.052306000000044,None,59.052306000000044,None,59.052306000000044,None,59.052306000000044,None,59.052306000000044,None,a,1,0.542758799999774,59.052306000000044,None,59.61124179999979,None,,,,,,,,,,,,,,,,,,,,,,,,,,,,,,,,,,,,,,,,10,001,2022_Oct_06_1539,Flanker,2021.2.0,239.43436026588327,
incongruent-right.jpg,0,k,left_arrow.png,left_arrow.png,left_arrow.png,right_arrow.png,left_arrow.png,left_arrow.png,left_arrow.png,1,3,9,3,,,,,,,,,,,,,,,,,61.117364499999894,None,62.122222500000134,None,62.122222500000134,None,62.122222500000134,None,62.122222500000134,None,62.122222500000134,None,62.122222500000134,None,62.122222500000134,None,k,1,0.5212473999999929,62.122222500000134,None,62.656272499999886,None,,,,,,,,,,,,,,,,,,,,,,,,,,,,,,,,,,,,,,,,10,001,2022_Oct_06_1539,Flanker,2021.2.0,239.43436026588327,
incongruent-left.jpg,0,a,right_arrow.png,right_arrow.png,right_arrow.png,left_arrow.png,right_arrow.png,right_arrow.png,right_arrow.png,1,4,10,1,,,,,,,,,,,,,,,,,64.16211519999979,None,65.16736029999993,None,65.16736029999993,None,65.16736029999993,None,65.16736029999993,None,65.16736029999993,None,65.16736029999993,None,65.16736029999993,None,a,1,0.4605061000002024,65.16736029999993,None,65.64264679999997,None,,,,,,,,,,,,,,,,,,,,,,,,,,,,,,,,,,,,,,,,10,001,2022_Oct_06_1539,Flanker,2021.2.0,239.43436026588327,
incongruent-right.jpg,0,k,left_arrow.png,left_arrow.png,left_arrow.png,right_arrow.png,left_arrow.png,left_arrow.png,left_arrow.png,1,5,11,3,,,,,,,,,,,,,,,,,67.14457029999994,None,68.15778439999985,None,68.15778439999985,None,68.15778439999985,None,68.15778439999985,None,68.15778439999985,None,68.15778439999985,None,68.15778439999985,None,k,1,0.41447550000020783,68.15778439999985,None,68.59159679999993,None,,,,,,,,,,,,,,,,,,,,,,,,,,,,,,,,,,,,,,,,10,001,2022_Oct_06_1539,Flanker,2021.2.0,239.43436026588327,
congruent-right.jpg,1,k,right_arrow.png,right_arrow.png,right_arrow.png,right_arrow.png,right_arrow.png,right_arrow.png,right_arrow.png,2,0,12,2,,,,,,,,,,,,,,,,,70.09740580000016,None,71.10278960000005,None,71.10278960000005,None,71.10278960000005,None,71.10278960000005,None,71.10278960000005,None,71.10278960000005,None,71.10278960000005,None,k,1,0.4938971000001402,71.10278960000005,None,71.61144909999985,None,,,,,,,,,,,,,,,,,,,,,,,,,,,,,,,,,,,,,,,,10,001,2022_Oct_06_1539,Flanker,2021.2.0,239.43436026588327,
congruent-right.jpg,1,k,right_arrow.png,right_arrow.png,right_arrow.png,right_arrow.png,right_arrow.png,right_arrow.png,right_arrow.png,2,1,13,2,,,,,,,,,,,,,,,,,73.11333890000014,None,74.12246649999997,None,74.12246649999997,None,74.12246649999997,None,74.12246649999997,None,74.12246649999997,None,74.12246649999997,None,74.12246649999997,None,k,1,0.4506722000000991,74.12246649999997,None,74.58961139999974,None,,,,,,,,,,,,,,,,,,,,,,,,,,,,,,,,,,,,,,,,10,001,2022_Oct_06_1539,Flanker,2021.2.0,239.43436026588327,
neutral right,0,k,neutral.png,neutral.png,neutral.png,right_arrow.png,neutral.png,neutral.png,neutral.png,2,2,14,5,,,,,,,,,,,,,,,,,76.09537640000008,None,77.1047709999998,None,77.1047709999998,None,77.1047709999998,None,77.1047709999998,None,77.1047709999998,None,77.1047709999998,None,77.1047709999998,None,k,1,0.46873219999997673,77.1047709999998,None,77.58861709999974,None,,,,,,,,,,,,,,,,,,,,,,,,,,,,,,,,,,,,,,,,10,001,2022_Oct_06_1539,Flanker,2021.2.0,239.43436026588327,
neutral left,0,a,neutral.png,neutral.png,neutral.png,left_arrow.png,neutral.png,neutral.png,neutral.png,2,3,15,4,,,,,,,,,,,,,,,,,79.09020740000005,None,80.10379319999993,None,80.10379319999993,None,80.10379319999993,None,80.10379319999993,None,80.10379319999993,None,80.10379319999993,None,80.10379319999993,None,a,1,0.4861531000001378,80.10379319999993,None,80.60431169999993,None,,,,,,,,,,,,,,,,,,,,,,,,,,,,,,,,,,,,,,,,10,001,2022_Oct_06_1539,Flanker,2021.2.0,239.43436026588327,
incongruent-left.jpg,0,a,right_arrow.png,right_arrow.png,right_arrow.png,left_arrow.png,right_arrow.png,right_arrow.png,right_arrow.png,2,4,16,1,,,,,,,,,,,,,,,,,82.1100851000001,None,83.11947980000014,None,83.11947980000014,None,83.11947980000014,None,83.11947980000014,None,83.11947980000014,None,83.11947980000014,None,83.11947980000014,None,a,1,0.5508626999999251,83.11947980000014,None,83.68675690000009,None,,,,,,,,,,,,,,,,,,,,,,,,,,,,,,,,,,,,,,,,10,001,2022_Oct_06_1539,Flanker,2021.2.0,239.43436026588327,
incongruent-left.jpg,0,a,right_arrow.png,right_arrow.png,right_arrow.png,left_arrow.png,right_arrow.png,right_arrow.png,right_arrow.png,2,5,17,1,,,,,,,,,,,,,,,,,85.1883413999999,None,86.1980896,None,86.1980896,None,86.1980896,None,86.1980896,None,86.1980896,None,86.1980896,None,86.1980896,None,a,1,0.5846528000001854,86.1980896,None,86.79839519999996,None,,,,,,,,,,,,,,,,,,,,,,,,,,,,,,,,,,,,,,,,10,001,2022_Oct_06_1539,Flanker,2021.2.0,239.43436026588327,
neutral right,0,k,neutral.png,neutral.png,neutral.png,right_arrow.png,neutral.png,neutral.png,neutral.png,3,0,18,5,,,,,,,,,,,,,,,,,88.30413999999973,None,89.31353739999986,None,89.31353739999986,None,89.31353739999986,None,89.31353739999986,None,89.31353739999986,None,89.31353739999986,None,89.31353739999986,None,k,1,0.41356790000008914,89.31353739999986,None,89.73901100000012,None,,,,,,,,,,,,,,,,,,,,,,,,,,,,,,,,,,,,,,,,10,001,2022_Oct_06_1539,Flanker,2021.2.0,239.43436026588327,
congruent-left.jpg,1,a,left_arrow.png,left_arrow.png,left_arrow.png,left_arrow.png,left_arrow.png,left_arrow.png,left_arrow.png,3,1,19,0,,,,,,,,,,,,,,,,,91.24474759999976,None,92.2499856999998,None,92.2499856999998,None,92.2499856999998,None,92.2499856999998,None,92.2499856999998,None,92.2499856999998,None,92.2499856999998,None,a,1,0.4535504000000401,92.2499856999998,None,92.7172227000001,None,,,,,,,,,,,,,,,,,,,,,,,,,,,,,,,,,,,,,,,,10,001,2022_Oct_06_1539,Flanker,2021.2.0,239.43436026588327,
neutral left,0,a,neutral.png,neutral.png,neutral.png,left_arrow.png,neutral.png,neutral.png,neutral.png,3,2,20,4,,,,,,,,,,,,,,,,,94.22315320000007,None,95.23231709999982,None,95.23231709999982,None,95.23231709999982,None,95.23231709999982,None,95.23231709999982,None,95.23231709999982,None,95.23231709999982,None,a,1,0.4316180999999233,95.23231709999982,None,95.68278259999988,None,,,,,,,,,,,,,,,,,,,,,,,,,,,,,,,,,,,,,,,,10,001,2022_Oct_06_1539,Flanker,2021.2.0,239.43436026588327,
incongruent-right.jpg,0,k,left_arrow.png,left_arrow.png,left_arrow.png,right_arrow.png,left_arrow.png,left_arrow.png,left_arrow.png,3,3,21,3,,,,,,,,,,,,,,,,,97.18863620000002,None,98.19796919999999,None,98.19796919999999,None,98.19796919999999,None,98.19796919999999,None,98.19796919999999,None,98.19796919999999,None,98.19796919999999,None,k,1,0.41835189999983413,98.19796919999999,None,98.63175390000015,None,,,,,,,,,,,,,,,,,,,,,,,,,,,,,,,,,,,,,,,,10,001,2022_Oct_06_1539,Flanker,2021.2.0,239.43436026588327,
congruent-left.jpg,1,a,left_arrow.png,left_arrow.png,left_arrow.png,left_arrow.png,left_arrow.png,left_arrow.png,left_arrow.png,3,4,22,0,,,,,,,,,,,,,,,,,100.13365130000011,None,101.14274569999998,None,101.14274569999998,None,101.14274569999998,None,101.14274569999998,None,101.14274569999998,None,101.14274569999998,None,101.14274569999998,None,a,1,0.41798789999984365,101.14274569999998,None,101.57654509999975,None,,,,,,,,,,,,,,,,,,,,,,,,,,,,,,,,,,,,,,,,10,001,2022_Oct_06_1539,Flanker,2021.2.0,239.43436026588327,
neutral right,0,k,neutral.png,neutral.png,neutral.png,right_arrow.png,neutral.png,neutral.png,neutral.png,3,5,23,5,,,,,,,,,,,,,,,,,103.08229789999996,None,104.08753500000012,None,104.08753500000012,None,104.08753500000012,None,104.08753500000012,None,104.08753500000012,None,104.08753500000012,None,104.08753500000012,None,k,1,0.4096331000000646,104.08753500000012,None,104.51295540000001,None,,,,,,,,,,,,,,,,,,,,,,,,,,,,,,,,,,,,,,,,10,001,2022_Oct_06_1539,Flanker,2021.2.0,239.43436026588327,
,,,,,,,,,,,,,,,,,,,,,,,,,,,,,,,,,,,,,,,,,,,,,,,,,,,,,106.03125009999985,None,108.01694950000001,None,space,2.6330274000001737,108.01694950000001,None,,,,,,,,,,,,,,,,,,,,,,,,,,,,,,,,10,001,2022_Oct_06_1539,Flanker,2021.2.0,239.43436026588327,
incongruent-left.jpg,0,a,right_arrow.png,right_arrow.png,right_arrow.png,left_arrow.png,right_arrow.png,right_arrow.png,right_arrow.png,,,,,0,0,0,1,,,,,,,,,,,,,110.66978299999982,None,,,,,,,,,,,,,,,,,,,,,,,,,,,,,,111.6749206999998,None,111.6749206999998,None,111.6749206999998,None,111.6749206999998,None,111.6749206999998,None,111.6749206999998,None,111.6749206999998,None,a,1,0.48726940000005925,111.6749206999998,None,,,,,,,,,,,,,10,001,2022_Oct_06_1539,Flanker,2021.2.0,239.43436026588327,
congruent-left.jpg,1,a,left_arrow.png,left_arrow.png,left_arrow.png,left_arrow.png,left_arrow.png,left_arrow.png,left_arrow.png,,,,,0,1,1,0,,,,,,,,,,,,,112.17527359999985,None,,,,,,,,,,,,,,,,,,,,,,,,,,,,,,113.18913310000016,None,113.18913310000016,None,113.18913310000016,None,113.18913310000016,None,113.18913310000016,None,113.18913310000016,None,113.18913310000016,None,a,1,0.43726409999999305,113.18913310000016,None,,,,,,,,,,,,,10,001,2022_Oct_06_1539,Flanker,2021.2.0,239.43436026588327,
congruent-left.jpg,1,a,left_arrow.png,left_arrow.png,left_arrow.png,left_arrow.png,left_arrow.png,left_arrow.png,left_arrow.png,,,,,0,2,2,0,,,,,,,,,,,,,113.63931629999979,None,,,,,,,,,,,,,,,,,,,,,,,,,,,,,,114.6528973999998,None,114.6528973999998,None,114.6528973999998,None,114.6528973999998,None,114.6528973999998,None,114.6528973999998,None,114.6528973999998,None,a,1,0.41363230000024487,114.6528973999998,None,,,,,,,,,,,,,10,001,2022_Oct_06_1539,Flanker,2021.2.0,239.43436026588327,
neutral right,0,k,neutral.png,neutral.png,neutral.png,right_arrow.png,neutral.png,neutral.png,neutral.png,,,,,0,3,3,5,,,,,,,,,,,,,115.07875849999982,None,,,,,,,,,,,,,,,,,,,,,,,,,,,,,,116.09192929999972,None,116.09192929999972,None,116.09192929999972,None,116.09192929999972,None,116.09192929999972,None,116.09192929999972,None,116.09192929999972,None,k,1,0.39109689999986585,116.09192929999972,None,,,,,,,,,,,,,10,001,2022_Oct_06_1539,Flanker,2021.2.0,239.43436026588327,
congruent-left.jpg,1,a,left_arrow.png,left_arrow.png,left_arrow.png,left_arrow.png,left_arrow.png,left_arrow.png,left_arrow.png,,,,,0,4,4,0,,,,,,,,,,,,,116.50068370000008,None,,,,,,,,,,,,,,,,,,,,,,,,,,,,,,117.5142608000001,None,117.5142608000001,None,117.5142608000001,None,117.5142608000001,None,117.5142608000001,None,117.5142608000001,None,117.5142608000001,None,a,1,0.3606686999996782,117.5142608000001,None,,,,,,,,,,,,,10,001,2022_Oct_06_1539,Flanker,2021.2.0,239.43436026588327,
neutral right,0,k,neutral.png,neutral.png,neutral.png,right_arrow.png,neutral.png,neutral.png,neutral.png,,,,,0,5,5,5,,,,,,,,,,,,,117.89000499999975,None,,,,,,,,,,,,,,,,,,,,,,,,,,,,,,118.89907140000014,None,118.89907140000014,None,118.89907140000014,None,118.89907140000014,None,118.89907140000014,None,118.89907140000014,None,118.89907140000014,None,k,1,0.3920914000000266,118.89907140000014,None,,,,,,,,,,,,,10,001,2022_Oct_06_1539,Flanker,2021.2.0,239.43436026588327,
neutral left,0,a,neutral.png,neutral.png,neutral.png,left_arrow.png,neutral.png,neutral.png,neutral.png,,,,,1,0,6,4,,,,,,,,,,,,,119.30783070000007,None,,,,,,,,,,,,,,,,,,,,,,,,,,,,,,120.31722679999984,None,120.31722679999984,None,120.31722679999984,None,120.31722679999984,None,120.31722679999984,None,120.31722679999984,None,120.31722679999984,None,a,1,0.38208639999993466,120.31722679999984,None,,,,,,,,,,,,,10,001,2022_Oct_06_1539,Flanker,2021.2.0,239.43436026588327,
congruent-right.jpg,1,k,right_arrow.png,right_arrow.png,right_arrow.png,right_arrow.png,right_arrow.png,right_arrow.png,right_arrow.png,,,,,1,1,7,2,,,,,,,,,,,,,120.71765629999982,None,,,,,,,,,,,,,,,,,,,,,,,,,,,,,,121.73122329999978,None,121.73122329999978,None,121.73122329999978,None,121.73122329999978,None,121.73122329999978,None,121.73122329999978,None,121.73122329999978,None,k,1,0.40034930000001623,121.73122329999978,None,,,,,,,,,,,,,10,001,2022_Oct_06_1539,Flanker,2021.2.0,239.43436026588327,
neutral right,0,k,neutral.png,neutral.png,neutral.png,right_arrow.png,neutral.png,neutral.png,neutral.png,,,,,1,2,8,5,,,,,,,,,,,,,122.14833559999988,None,,,,,,,,,,,,,,,,,,,,,,,,,,,,,,123.15800790000003,None,123.15800790000003,None,123.15800790000003,None,123.15800790000003,None,123.15800790000003,None,123.15800790000003,None,123.15800790000003,None,k,1,0.4699916999998095,123.15800790000003,None,,,,,,,,,,,,,10,001,2022_Oct_06_1539,Flanker,2021.2.0,239.43436026588327,
neutral right,0,k,neutral.png,neutral.png,neutral.png,right_arrow.png,neutral.png,neutral.png,neutral.png,,,,,1,3,9,5,,,,,,,,,,,,,123.64185039999984,None,,,,,,,,,,,,,,,,,,,,,,,,,,,,,,124.65515180000011,None,124.65515180000011,None,124.65515180000011,None,124.65515180000011,None,124.65515180000011,None,124.65515180000011,None,124.65515180000011,None,k,1,0.4211216999997305,124.65515180000011,None,,,,,,,,,,,,,10,001,2022_Oct_06_1539,Flanker,2021.2.0,239.43436026588327,
incongruent-right.jpg,0,k,left_arrow.png,left_arrow.png,left_arrow.png,right_arrow.png,left_arrow.png,left_arrow.png,left_arrow.png,,,,,1,4,10,3,,,,,,,,,,,,,125.08924969999998,None,,,,,,,,,,,,,,,,,,,,,,,,,,,,,,126.10285780000004,None,126.10285780000004,None,126.10285780000004,None,126.10285780000004,None,126.10285780000004,None,126.10285780000004,None,126.10285780000004,None,k,1,0.7255629999999655,126.10285780000004,None,,,,,,,,,,,,,10,001,2022_Oct_06_1539,Flanker,2021.2.0,239.43436026588327,
congruent-left.jpg,1,a,left_arrow.png,left_arrow.png,left_arrow.png,left_arrow.png,left_arrow.png,left_arrow.png,left_arrow.png,,,,,1,5,11,0,,,,,,,,,,,,,126.84526030000006,None,,,,,,,,,,,,,,,,,,,,,,,,,,,,,,127.85441859999992,None,127.85441859999992,None,127.85441859999992,None,127.85441859999992,None,127.85441859999992,None,127.85441859999992,None,127.85441859999992,None,a,1,0.38991249999980937,127.85441859999992,None,,,,,,,,,,,,,10,001,2022_Oct_06_1539,Flanker,2021.2.0,239.43436026588327,
congruent-left.jpg,1,a,left_arrow.png,left_arrow.png,left_arrow.png,left_arrow.png,left_arrow.png,left_arrow.png,left_arrow.png,,,,,2,0,12,0,,,,,,,,,,,,,128.2634435,None,,,,,,,,,,,,,,,,,,,,,,,,,,,,,,129.2770144000001,None,129.2770144000001,None,129.2770144000001,None,129.2770144000001,None,129.2770144000001,None,129.2770144000001,None,129.2770144000001,None,a,1,0.43950290000020686,129.2770144000001,None,,,,,,,,,,,,,10,001,2022_Oct_06_1539,Flanker,2021.2.0,239.43436026588327,
incongruent-right.jpg,0,k,left_arrow.png,left_arrow.png,left_arrow.png,right_arrow.png,left_arrow.png,left_arrow.png,left_arrow.png,,,,,2,1,13,3,,,,,,,,,,,,,129.7358417999999,None,,,,,,,,,,,,,,,,,,,,,,,,,,,,,,130.74911969999994,None,130.74911969999994,None,130.74911969999994,None,130.74911969999994,None,130.74911969999994,None,130.74911969999994,None,130.74911969999994,None,k,1,0.42360480000024836,130.74911969999994,None,,,,,,,,,,,,,10,001,2022_Oct_06_1539,Flanker,2021.2.0,239.43436026588327,
neutral left,0,a,neutral.png,neutral.png,neutral.png,left_arrow.png,neutral.png,neutral.png,neutral.png,,,,,2,2,14,4,,,,,,,,,,,,,131.19169439999996,None,,,,,,,,,,,,,,,,,,,,,,,,,,,,,,132.20511409999972,None,132.20511409999972,None,132.20511409999972,None,132.20511409999972,None,132.20511409999972,None,132.20511409999972,None,132.20511409999972,None,a,1,0.4083252000000357,132.20511409999972,None,,,,,,,,,,,,,10,001,2022_Oct_06_1539,Flanker,2021.2.0,239.43436026588327,
congruent-right.jpg,1,k,right_arrow.png,right_arrow.png,right_arrow.png,right_arrow.png,right_arrow.png,right_arrow.png,right_arrow.png,,,,,2,3,15,2,,,,,,,,,,,,,132.63050669999984,None,,,,,,,,,,,,,,,,,,,,,,,,,,,,,,133.64385579999998,None,133.64385579999998,None,133.64385579999998,None,133.64385579999998,None,133.64385579999998,None,133.64385579999998,None,133.64385579999998,None,k,1,0.39325670000016544,133.64385579999998,None,,,,,,,,,,,,,10,001,2022_Oct_06_1539,Flanker,2021.2.0,239.43436026588327,
neutral left,0,a,neutral.png,neutral.png,neutral.png,left_arrow.png,neutral.png,neutral.png,neutral.png,,,,,2,4,16,4,,,,,,,,,,,,,134.0526077999998,None,,,,,,,,,,,,,,,,,,,,,,,,,,,,,,135.0624945999998,None,135.0624945999998,None,135.0624945999998,None,135.0624945999998,None,135.0624945999998,None,135.0624945999998,None,135.0624945999998,None,a,1,0.3908191999998962,135.0624945999998,None,,,,,,,,,,,,,10,001,2022_Oct_06_1539,Flanker,2021.2.0,239.43436026588327,
incongruent-right.jpg,0,k,left_arrow.png,left_arrow.png,left_arrow.png,right_arrow.png,left_arrow.png,left_arrow.png,left_arrow.png,,,,,2,5,17,3,,,,,,,,,,,,,135.47120799999993,None,,,,,,,,,,,,,,,,,,,,,,,,,,,,,,136.48435999999992,None,136.48435999999992,None,136.48435999999992,None,136.48435999999992,None,136.48435999999992,None,136.48435999999992,None,136.48435999999992,None,k,1,0.41718849999961094,136.48435999999992,None,,,,,,,,,,,,,10,001,2022_Oct_06_1539,Flanker,2021.2.0,239.43436026588327,
incongruent-left.jpg,0,a,right_arrow.png,right_arrow.png,right_arrow.png,left_arrow.png,right_arrow.png,right_arrow.png,right_arrow.png,,,,,3,0,18,1,,,,,,,,,,,,,136.9181427999997,None,,,,,,,,,,,,,,,,,,,,,,,,,,,,,,137.9317286999999,None,137.9317286999999,None,137.9317286999999,None,137.9317286999999,None,137.9317286999999,None,137.9317286999999,None,137.9317286999999,None,a,1,0.39398099999971237,137.9317286999999,None,,,,,,,,,,,,,10,001,2022_Oct_06_1539,Flanker,2021.2.0,239.43436026588327,
incongruent-right.jpg,0,k,left_arrow.png,left_arrow.png,left_arrow.png,right_arrow.png,left_arrow.png,left_arrow.png,left_arrow.png,,,,,3,1,19,3,,,,,,,,,,,,,138.3405687999998,None,,,,,,,,,,,,,,,,,,,,,,,,,,,,,,139.35010639999973,None,139.35010639999973,None,139.35010639999973,None,139.35010639999973,None,139.35010639999973,None,139.35010639999973,None,139.35010639999973,None,k,1,0.4397871999999552,139.35010639999973,None,,,,,,,,,,,,,10,001,2022_Oct_06_1539,Flanker,2021.2.0,239.43436026588327,
neutral right,0,k,neutral.png,neutral.png,neutral.png,right_arrow.png,neutral.png,neutral.png,neutral.png,,,,,3,2,20,5,,,,,,,,,,,,,139.8087231999998,None,,,,,,,,,,,,,,,,,,,,,,,,,,,,,,140.81811900000002,None,140.81811900000002,None,140.81811900000002,None,140.81811900000002,None,140.81811900000002,None,140.81811900000002,None,140.81811900000002,None,k,1,0.41995959999985644,140.81811900000002,None,,,,,,,,,,,,,10,001,2022_Oct_06_1539,Flanker,2021.2.0,239.43436026588327,
incongruent-right.jpg,0,k,left_arrow.png,left_arrow.png,left_arrow.png,right_arrow.png,left_arrow.png,left_arrow.png,left_arrow.png,,,,,3,3,21,3,,,,,,,,,,,,,141.25191110000014,None,,,,,,,,,,,,,,,,,,,,,,,,,,,,,,142.2654834,None,142.2654834,None,142.2654834,None,142.2654834,None,142.2654834,None,142.2654834,None,142.2654834,None,k,1,0.5169593000000532,142.2654834,None,,,,,,,,,,,,,10,001,2022_Oct_06_1539,Flanker,2021.2.0,239.43436026588327,
neutral left,0,a,neutral.png,neutral.png,neutral.png,left_arrow.png,neutral.png,neutral.png,neutral.png,,,,,3,4,22,4,,,,,,,,,,,,,142.7993935999998,None,,,,,,,,,,,,,,,,,,,,,,,,,,,,,,143.8171382999999,None,143.8171382999999,None,143.8171382999999,None,143.8171382999999,None,143.8171382999999,None,143.8171382999999,None,143.8171382999999,None,a,1,0.4373598000001948,143.8171382999999,None,,,,,,,,,,,,,10,001,2022_Oct_06_1539,Flanker,2021.2.0,239.43436026588327,
neutral right,0,k,neutral.png,neutral.png,neutral.png,right_arrow.png,neutral.png,neutral.png,neutral.png,,,,,3,5,23,5,,,,,,,,,,,,,144.26758019999988,None,,,,,,,,,,,,,,,,,,,,,,,,,,,,,,145.27730759999986,None,145.27730759999986,None,145.27730759999986,None,145.27730759999986,None,145.27730759999986,None,145.27730759999986,None,145.27730759999986,None,k,1,0.44960820000005697,145.27730759999986,None,,,,,,,,,,,,,10,001,2022_Oct_06_1539,Flanker,2021.2.0,239.43436026588327,
congruent-right.jpg,1,k,right_arrow.png,right_arrow.png,right_arrow.png,right_arrow.png,right_arrow.png,right_arrow.png,right_arrow.png,,,,,4,0,24,2,,,,,,,,,,,,,145.74454960000003,None,,,,,,,,,,,,,,,,,,,,,,,,,,,,,,146.7536055999999,None,146.7536055999999,None,146.7536055999999,None,146.7536055999999,None,146.7536055999999,None,146.7536055999999,None,146.7536055999999,None,k,1,0.46131259999992835,146.7536055999999,None,,,,,,,,,,,,,10,001,2022_Oct_06_1539,Flanker,2021.2.0,239.43436026588327,
incongruent-left.jpg,0,a,right_arrow.png,right_arrow.png,right_arrow.png,left_arrow.png,right_arrow.png,right_arrow.png,right_arrow.png,,,,,4,1,25,1,,,,,,,,,,,,,147.22924299999977,None,,,,,,,,,,,,,,,,,,,,,,,,,,,,,,148.23855760000015,None,148.23855760000015,None,148.23855760000015,None,148.23855760000015,None,148.23855760000015,None,148.23855760000015,None,148.23855760000015,None,a,1,0.44053589999975884,148.23855760000015,None,,,,,,,,,,,,,10,001,2022_Oct_06_1539,Flanker,2021.2.0,239.43436026588327,
congruent-right.jpg,1,k,right_arrow.png,right_arrow.png,right_arrow.png,right_arrow.png,right_arrow.png,right_arrow.png,right_arrow.png,,,,,4,2,26,2,,,,,,,,,,,,,148.69749249999995,None,,,,,,,,,,,,,,,,,,,,,,,,,,,,,,149.71111109999993,None,149.71111109999993,None,149.71111109999993,None,149.71111109999993,None,149.71111109999993,None,149.71111109999993,None,149.71111109999993,None,k,1,0.4082410000000891,149.71111109999993,None,,,,,,,,,,,,,10,001,2022_Oct_06_1539,Flanker,2021.2.0,239.43436026588327,
neutral right,0,k,neutral.png,neutral.png,neutral.png,right_arrow.png,neutral.png,neutral.png,neutral.png,,,,,4,3,27,5,,,,,,,,,,,,,150.1363606,None,,,,,,,,,,,,,,,,,,,,,,,,,,,,,,151.14992099999972,None,151.14992099999972,None,151.14992099999972,None,151.14992099999972,None,151.14992099999972,None,151.14992099999972,None,151.14992099999972,None,k,1,0.489602399999967,151.14992099999972,None,,,,,,,,,,,,,10,001,2022_Oct_06_1539,Flanker,2021.2.0,239.43436026588327,
incongruent-left.jpg,0,a,right_arrow.png,right_arrow.png,right_arrow.png,left_arrow.png,right_arrow.png,right_arrow.png,right_arrow.png,,,,,4,4,28,1,,,,,,,,,,,,,151.65055440000015,None,,,,,,,,,,,,,,,,,,,,,,,,,,,,,,152.66404009999997,None,152.66404009999997,None,152.66404009999997,None,152.66404009999997,None,152.66404009999997,None,152.66404009999997,None,152.66404009999997,None,a,1,0.44768329999988055,152.66404009999997,None,,,,,,,,,,,,,10,001,2022_Oct_06_1539,Flanker,2021.2.0,239.43436026588327,
congruent-right.jpg,1,k,right_arrow.png,right_arrow.png,right_arrow.png,right_arrow.png,right_arrow.png,right_arrow.png,right_arrow.png,,,,,4,5,29,2,,,,,,,,,,,,,153.12283919999982,None,,,,,,,,,,,,,,,,,,,,,,,,,,,,,,154.13239299999987,None,154.13239299999987,None,154.13239299999987,None,154.13239299999987,None,154.13239299999987,None,154.13239299999987,None,154.13239299999987,None,k,1,0.37951840000005177,154.13239299999987,None,,,,,,,,,,,,,10,001,2022_Oct_06_1539,Flanker,2021.2.0,239.43436026588327,
neutral left,0,a,neutral.png,neutral.png,neutral.png,left_arrow.png,neutral.png,neutral.png,neutral.png,,,,,5,0,30,4,,,,,,,,,,,,,154.52440389999992,None,,,,,,,,,,,,,,,,,,,,,,,,,,,,,,155.53796729999976,None,155.53796729999976,None,155.53796729999976,None,155.53796729999976,None,155.53796729999976,None,155.53796729999976,None,155.53796729999976,None,a,1,0.40612359999977343,155.53796729999976,None,,,,,,,,,,,,,10,001,2022_Oct_06_1539,Flanker,2021.2.0,239.43436026588327,
incongruent-left.jpg,0,a,right_arrow.png,right_arrow.png,right_arrow.png,left_arrow.png,right_arrow.png,right_arrow.png,right_arrow.png,,,,,5,1,31,1,,,,,,,,,,,,,155.96343279999974,None,,,,,,,,,,,,,,,,,,,,,,,,,,,,,,156.97730439999987,None,156.97730439999987,None,156.97730439999987,None,156.97730439999987,None,156.97730439999987,None,156.97730439999987,None,156.97730439999987,None,a,1,0.543031400000018,156.97730439999987,None,,,,,,,,,,,,,10,001,2022_Oct_06_1539,Flanker,2021.2.0,239.43436026588327,
congruent-right.jpg,1,k,right_arrow.png,right_arrow.png,right_arrow.png,right_arrow.png,right_arrow.png,right_arrow.png,right_arrow.png,,,,,5,2,32,2,,,,,,,,,,,,,157.5358465999998,None,,,,,,,,,,,,,,,,,,,,,,,,,,,,,,158.5494359999998,None,158.5494359999998,None,158.5494359999998,None,158.5494359999998,None,158.5494359999998,None,158.5494359999998,None,158.5494359999998,None,k,1,0.3950859000001401,158.5494359999998,None,,,,,,,,,,,,,10,001,2022_Oct_06_1539,Flanker,2021.2.0,239.43436026588327,
neutral left,0,a,neutral.png,neutral.png,neutral.png,left_arrow.png,neutral.png,neutral.png,neutral.png,,,,,5,3,33,4,,,,,,,,,,,,,158.9581890999998,None,,,,,,,,,,,,,,,,,,,,,,,,,,,,,,159.97192199999972,None,159.97192199999972,None,159.97192199999972,None,159.97192199999972,None,159.97192199999972,None,159.97192199999972,None,159.97192199999972,None,a,1,0.3807529999999133,159.97192199999972,None,,,,,,,,,,,,,10,001,2022_Oct_06_1539,Flanker,2021.2.0,239.43436026588327,
congruent-left.jpg,1,a,left_arrow.png,left_arrow.png,left_arrow.png,left_arrow.png,left_arrow.png,left_arrow.png,left_arrow.png,,,,,5,4,34,0,,,,,,,,,,,,,160.3639122999998,None,,,,,,,,,,,,,,,,,,,,,,,,,,,,,,161.37334620000001,None,161.37334620000001,None,161.37334620000001,None,161.37334620000001,None,161.37334620000001,None,161.37334620000001,None,161.37334620000001,None,a,1,0.5078929999999673,161.37334620000001,None,,,,,,,,,,,,,10,001,2022_Oct_06_1539,Flanker,2021.2.0,239.43436026588327,
neutral left,0,a,neutral.png,neutral.png,neutral.png,left_arrow.png,neutral.png,neutral.png,neutral.png,,,,,5,5,35,4,,,,,,,,,,,,,161.89911959999972,None,,,,,,,,,,,,,,,,,,,,,,,,,,,,,,162.91239020000012,None,162.91239020000012,None,162.91239020000012,None,162.91239020000012,None,162.91239020000012,None,162.91239020000012,None,162.91239020000012,None,a,1,0.4166793000003963,162.91239020000012,None,,,,,,,,,,,,,10,001,2022_Oct_06_1539,Flanker,2021.2.0,239.43436026588327,
incongruent-right.jpg,0,k,left_arrow.png,left_arrow.png,left_arrow.png,right_arrow.png,left_arrow.png,left_arrow.png,left_arrow.png,,,,,6,0,36,3,,,,,,,,,,,,,163.34616389999974,None,,,,,,,,,,,,,,,,,,,,,,,,,,,,,,164.3597595000001,None,164.3597595000001,None,164.3597595000001,None,164.3597595000001,None,164.3597595000001,None,164.3597595000001,None,164.3597595000001,None,k,1,0.39353780000010374,164.3597595000001,None,,,,,,,,,,,,,10,001,2022_Oct_06_1539,Flanker,2021.2.0,239.43436026588327,
incongruent-right.jpg,0,k,left_arrow.png,left_arrow.png,left_arrow.png,right_arrow.png,left_arrow.png,left_arrow.png,left_arrow.png,,,,,6,1,37,3,,,,,,,,,,,,,164.76851880000004,None,,,,,,,,,,,,,,,,,,,,,,,,,,,,,,165.7782484999998,None,165.7782484999998,None,165.7782484999998,None,165.7782484999998,None,165.7782484999998,None,165.7782484999998,None,165.7782484999998,None,a,0,0.3752175000004172,165.7782484999998,None,,,,,,,,,,,,,10,001,2022_Oct_06_1539,Flanker,2021.2.0,239.43436026588327,
congruent-left.jpg,1,a,left_arrow.png,left_arrow.png,left_arrow.png,left_arrow.png,left_arrow.png,left_arrow.png,left_arrow.png,,,,,6,2,38,0,,,,,,,,,,,,,166.17000099999996,None,,,,,,,,,,,,,,,,,,,,,,,,,,,,,,167.18358609999996,None,167.18358609999996,None,167.18358609999996,None,167.18358609999996,None,167.18358609999996,None,167.18358609999996,None,167.18358609999996,None,a,1,0.5861242000000857,167.18358609999996,None,,,,,,,,,,,,,10,001,2022_Oct_06_1539,Flanker,2021.2.0,239.43436026588327,
congruent-right.jpg,1,k,right_arrow.png,right_arrow.png,right_arrow.png,right_arrow.png,right_arrow.png,right_arrow.png,right_arrow.png,,,,,6,3,39,2,,,,,,,,,,,,,167.78421530000014,None,,,,,,,,,,,,,,,,,,,,,,,,,,,,,,168.79394539999976,None,168.79394539999976,None,168.79394539999976,None,168.79394539999976,None,168.79394539999976,None,168.79394539999976,None,168.79394539999976,None,k,1,0.3599448999998458,168.79394539999976,None,,,,,,,,,,,,,10,001,2022_Oct_06_1539,Flanker,2021.2.0,239.43436026588327,
congruent-right.jpg,1,k,right_arrow.png,right_arrow.png,right_arrow.png,right_arrow.png,right_arrow.png,right_arrow.png,right_arrow.png,,,,,6,4,40,2,,,,,,,,,,,,,169.16901049999979,None,,,,,,,,,,,,,,,,,,,,,,,,,,,,,,170.18276519999972,None,170.18276519999972,None,170.18276519999972,None,170.18276519999972,None,170.18276519999972,None,170.18276519999972,None,170.18276519999972,None,k,1,0.37929659999963405,170.18276519999972,None,,,,,,,,,,,,,10,001,2022_Oct_06_1539,Flanker,2021.2.0,239.43436026588327,
neutral left,0,a,neutral.png,neutral.png,neutral.png,left_arrow.png,neutral.png,neutral.png,neutral.png,,,,,6,5,41,4,,,,,,,,,,,,,170.57468100000006,None,,,,,,,,,,,,,,,,,,,,,,,,,,,,,,171.5883960000001,None,171.5883960000001,None,171.5883960000001,None,171.5883960000001,None,171.5883960000001,None,171.5883960000001,None,171.5883960000001,None,a,1,0.4298383999998805,171.5883960000001,None,,,,,,,,,,,,,10,001,2022_Oct_06_1539,Flanker,2021.2.0,239.43436026588327,
incongruent-left.jpg,0,a,right_arrow.png,right_arrow.png,right_arrow.png,left_arrow.png,right_arrow.png,right_arrow.png,right_arrow.png,,,,,7,0,42,1,,,,,,,,,,,,,172.0304511999998,None,,,,,,,,,,,,,,,,,,,,,,,,,,,,,,173.0440239999998,None,173.0440239999998,None,173.0440239999998,None,173.0440239999998,None,173.0440239999998,None,173.0440239999998,None,173.0440239999998,None,a,1,0.47846750000007887,173.0440239999998,None,,,,,,,,,,,,,10,001,2022_Oct_06_1539,Flanker,2021.2.0,239.43436026588327,
incongruent-right.jpg,0,k,left_arrow.png,left_arrow.png,left_arrow.png,right_arrow.png,left_arrow.png,left_arrow.png,left_arrow.png,,,,,7,1,43,3,,,,,,,,,,,,,173.5362814,None,,,,,,,,,,,,,,,,,,,,,,,,,,,,,,174.54581610000014,None,174.54581610000014,None,174.54581610000014,None,174.54581610000014,None,174.54581610000014,None,174.54581610000014,None,174.54581610000014,None,k,1,0.43316150000009657,174.54581610000014,None,,,,,,,,,,,,,10,001,2022_Oct_06_1539,Flanker,2021.2.0,239.43436026588327,
incongruent-left.jpg,0,a,right_arrow.png,right_arrow.png,right_arrow.png,left_arrow.png,right_arrow.png,right_arrow.png,right_arrow.png,,,,,7,2,44,1,,,,,,,,,,,,,174.99610010000015,None,,,,,,,,,,,,,,,,,,,,,,,,,,,,,,176.0097520999998,None,176.0097520999998,None,176.0097520999998,None,176.0097520999998,None,176.0097520999998,None,176.0097520999998,None,176.0097520999998,None,a,1,0.4171206999999413,176.0097520999998,None,,,,,,,,,,,,,10,001,2022_Oct_06_1539,Flanker,2021.2.0,239.43436026588327,
incongruent-left.jpg,0,a,right_arrow.png,right_arrow.png,right_arrow.png,left_arrow.png,right_arrow.png,right_arrow.png,right_arrow.png,,,,,7,3,45,1,,,,,,,,,,,,,176.44338169999992,None,,,,,,,,,,,,,,,,,,,,,,,,,,,,,,177.45721270000013,None,177.45721270000013,None,177.45721270000013,None,177.45721270000013,None,177.45721270000013,None,177.45721270000013,None,177.45721270000013,None,a,1,0.5138415999999779,177.45721270000013,None,,,,,,,,,,,,,10,001,2022_Oct_06_1539,Flanker,2021.2.0,239.43436026588327,
neutral right,0,k,neutral.png,neutral.png,neutral.png,right_arrow.png,neutral.png,neutral.png,neutral.png,,,,,7,4,46,5,,,,,,,,,,,,,177.9825224000001,None,,,,,,,,,,,,,,,,,,,,,,,,,,,,,,178.9921721999999,None,178.9921721999999,None,178.9921721999999,None,178.9921721999999,None,178.9921721999999,None,178.9921721999999,None,178.9921721999999,None,k,1,0.41911409999966054,178.9921721999999,None,,,,,,,,,,,,,10,001,2022_Oct_06_1539,Flanker,2021.2.0,239.43436026588327,
congruent-left.jpg,1,a,left_arrow.png,left_arrow.png,left_arrow.png,left_arrow.png,left_arrow.png,left_arrow.png,left_arrow.png,,,,,7,5,47,0,,,,,,,,,,,,,179.42599109999992,None,,,,,,,,,,,,,,,,,,,,,,,,,,,,,,180.43929389999994,None,180.43929389999994,None,180.43929389999994,None,180.43929389999994,None,180.43929389999994,None,180.43929389999994,None,180.43929389999994,None,a,1,0.39616890000024796,180.43929389999994,None,,,,,,,,,,,,,10,001,2022_Oct_06_1539,Flanker,2021.2.0,239.43436026588327,
,,,,,,,,,,,,,,,,,,,,,,,,,,,,,,,,,,,,,,,,,,,,,,,,,,,,,,,,,,,,,,,,,,,,,,,,,,,,,,,,180.86058120000007,None,space,8.208350999999766,180.86058120000007,None,,,,,,,10,001,2022_Oct_06_1539,Flanker,2021.2.0,239.43436026588327,
neutral right,0,k,neutral.png,neutral.png,neutral.png,right_arrow.png,neutral.png,neutral.png,neutral.png,,,,,,,,,0,0,0,5,,,,,,,,,189.09462369999983,None,,,,,,,,,,,,,,,,,,,,,,,,,,,,,,190.10395659999995,None,190.10395659999995,None,190.10395659999995,None,190.10395659999995,None,190.10395659999995,None,190.10395659999995,None,190.10395659999995,None,k,1,0.46881440000015573,190.10395659999995,None,,,,,,,,,,,,,10,001,2022_Oct_06_1539,Flanker,2021.2.0,239.43436026588327,
incongruent-left.jpg,0,a,right_arrow.png,right_arrow.png,right_arrow.png,left_arrow.png,right_arrow.png,right_arrow.png,right_arrow.png,,,,,,,,,0,1,1,1,,,,,,,,,190.5879071999998,None,,,,,,,,,,,,,,,,,,,,,,,,,,,,,,191.6055581999999,None,191.6055581999999,None,191.6055581999999,None,191.6055581999999,None,191.6055581999999,None,191.6055581999999,None,191.6055581999999,None,a,1,0.47139210000023013,191.6055581999999,None,,,,,,,,,,,,,10,001,2022_Oct_06_1539,Flanker,2021.2.0,239.43436026588327,
incongruent-right.jpg,0,k,left_arrow.png,left_arrow.png,left_arrow.png,right_arrow.png,left_arrow.png,left_arrow.png,left_arrow.png,,,,,,,,,0,2,2,3,,,,,,,,,192.08938039999975,None,,,,,,,,,,,,,,,,,,,,,,,,,,,,,,193.09879929999988,None,193.09879929999988,None,193.09879929999988,None,193.09879929999988,None,193.09879929999988,None,193.09879929999988,None,193.09879929999988,None,k,1,0.39435379999986253,193.09879929999988,None,,,,,,,,,,,,,10,001,2022_Oct_06_1539,Flanker,2021.2.0,239.43436026588327,
incongruent-left.jpg,0,a,right_arrow.png,right_arrow.png,right_arrow.png,left_arrow.png,right_arrow.png,right_arrow.png,right_arrow.png,,,,,,,,,0,3,3,1,,,,,,,,,193.50769230000014,None,,,,,,,,,,,,,,,,,,,,,,,,,,,,,,194.5250332999999,None,194.5250332999999,None,194.5250332999999,None,194.5250332999999,None,194.5250332999999,None,194.5250332999999,None,194.5250332999999,None,a,1,0.3843234000000848,194.5250332999999,None,,,,,,,,,,,,,10,001,2022_Oct_06_1539,Flanker,2021.2.0,239.43436026588327,
congruent-left.jpg,1,a,left_arrow.png,left_arrow.png,left_arrow.png,left_arrow.png,left_arrow.png,left_arrow.png,left_arrow.png,,,,,,,,,0,4,4,0,,,,,,,,,194.92547190000005,None,,,,,,,,,,,,,,,,,,,,,,,,,,,,,,195.9393157999998,None,195.9393157999998,None,195.9393157999998,None,195.9393157999998,None,195.9393157999998,None,195.9393157999998,None,195.9393157999998,None,a,1,0.43426159999989977,195.9393157999998,None,,,,,,,,,,,,,10,001,2022_Oct_06_1539,Flanker,2021.2.0,239.43436026588327,
congruent-left.jpg,1,a,left_arrow.png,left_arrow.png,left_arrow.png,left_arrow.png,left_arrow.png,left_arrow.png,left_arrow.png,,,,,,,,,0,5,5,0,,,,,,,,,196.38951270000007,None,,,,,,,,,,,,,,,,,,,,,,,,,,,,,,197.40310379999983,None,197.40310379999983,None,197.40310379999983,None,197.40310379999983,None,197.40310379999983,None,197.40310379999983,None,197.40310379999983,None,a,1,0.40263580000009824,197.40310379999983,None,,,,,,,,,,,,,10,001,2022_Oct_06_1539,Flanker,2021.2.0,239.43436026588327,
congruent-right.jpg,1,k,right_arrow.png,right_arrow.png,right_arrow.png,right_arrow.png,right_arrow.png,right_arrow.png,right_arrow.png,,,,,,,,,1,0,6,2,,,,,,,,,197.8202621999999,None,,,,,,,,,,,,,,,,,,,,,,,,,,,,,,198.8295917999999,None,198.8295917999999,None,198.8295917999999,None,198.8295917999999,None,198.8295917999999,None,198.8295917999999,None,198.8295917999999,None,k,1,0.4003787999999986,198.8295917999999,None,,,,,,,,,,,,,10,001,2022_Oct_06_1539,Flanker,2021.2.0,239.43436026588327,
incongruent-right.jpg,0,k,left_arrow.png,left_arrow.png,left_arrow.png,right_arrow.png,left_arrow.png,left_arrow.png,left_arrow.png,,,,,,,,,1,1,7,3,,,,,,,,,199.2466940999998,None,,,,,,,,,,,,,,,,,,,,,,,,,,,,,,200.26057319999973,None,200.26057319999973,None,200.26057319999973,None,200.26057319999973,None,200.26057319999973,None,200.26057319999973,None,200.26057319999973,None,k,1,0.5455670000001192,200.26057319999973,None,,,,,,,,,,,,,10,001,2022_Oct_06_1539,Flanker,2021.2.0,239.43436026588327,
incongruent-left.jpg,0,a,right_arrow.png,right_arrow.png,right_arrow.png,left_arrow.png,right_arrow.png,right_arrow.png,right_arrow.png,,,,,,,,,1,2,8,1,,,,,,,,,200.81927730000007,None,,,,,,,,,,,,,,,,,,,,,,,,,,,,,,201.82891160000008,None,201.82891160000008,None,201.82891160000008,None,201.82891160000008,None,201.82891160000008,None,201.82891160000008,None,201.82891160000008,None,a,1,0.5054122000001371,201.82891160000008,None,,,,,,,,,,,,,10,001,2022_Oct_06_1539,Flanker,2021.2.0,239.43436026588327,
incongruent-left.jpg,0,a,right_arrow.png,right_arrow.png,right_arrow.png,left_arrow.png,right_arrow.png,right_arrow.png,right_arrow.png,,,,,,,,,1,3,9,1,,,,,,,,,202.3458185999998,None,,,,,,,,,,,,,,,,,,,,,,,,,,,,,,203.35542739999983,None,203.35542739999983,None,203.35542739999983,None,203.35542739999983,None,203.35542739999983,None,203.35542739999983,None,203.35542739999983,None,a,1,0.4271145000002434,203.35542739999983,None,,,,,,,,,,,,,10,001,2022_Oct_06_1539,Flanker,2021.2.0,239.43436026588327,
congruent-right.jpg,1,k,right_arrow.png,right_arrow.png,right_arrow.png,right_arrow.png,right_arrow.png,right_arrow.png,right_arrow.png,,,,,,,,,1,4,10,2,,,,,,,,,203.79735589999973,None,,,,,,,,,,,,,,,,,,,,,,,,,,,,,,204.8071018999999,None,204.8071018999999,None,204.8071018999999,None,204.8071018999999,None,204.8071018999999,None,204.8071018999999,None,204.8071018999999,None,k,1,0.43162619999975504,204.8071018999999,None,,,,,,,,,,,,,10,001,2022_Oct_06_1539,Flanker,2021.2.0,239.43436026588327,
congruent-right.jpg,1,k,right_arrow.png,right_arrow.png,right_arrow.png,right_arrow.png,right_arrow.png,right_arrow.png,right_arrow.png,,,,,,,,,1,5,11,2,,,,,,,,,205.25730759999988,None,,,,,,,,,,,,,,,,,,,,,,,,,,,,,,206.26692520000006,None,206.26692520000006,None,206.26692520000006,None,206.26692520000006,None,206.26692520000006,None,206.26692520000006,None,206.26692520000006,None,k,1,0.4280042999998841,206.26692520000006,None,,,,,,,,,,,,,10,001,2022_Oct_06_1539,Flanker,2021.2.0,239.43436026588327,
neutral right,0,k,neutral.png,neutral.png,neutral.png,right_arrow.png,neutral.png,neutral.png,neutral.png,,,,,,,,,2,0,12,5,,,,,,,,,206.7087719000001,None,,,,,,,,,,,,,,,,,,,,,,,,,,,,,,207.71818040000016,None,207.71818040000016,None,207.71818040000016,None,207.71818040000016,None,207.71818040000016,None,207.71818040000016,None,207.71818040000016,None,k,1,0.3529527999999118,207.71818040000016,None,,,,,,,,,,,,,10,001,2022_Oct_06_1539,Flanker,2021.2.0,239.43436026588327,
neutral right,0,k,neutral.png,neutral.png,neutral.png,right_arrow.png,neutral.png,neutral.png,neutral.png,,,,,,,,,2,1,13,5,,,,,,,,,208.08522689999972,None,,,,,,,,,,,,,,,,,,,,,,,,,,,,,,209.09495719999995,None,209.09495719999995,None,209.09495719999995,None,209.09495719999995,None,209.09495719999995,None,209.09495719999995,None,209.09495719999995,None,k,1,0.3603568000003179,209.09495719999995,None,,,,,,,,,,,,,10,001,2022_Oct_06_1539,Flanker,2021.2.0,239.43436026588327,
neutral left,0,a,neutral.png,neutral.png,neutral.png,left_arrow.png,neutral.png,neutral.png,neutral.png,,,,,,,,,2,2,14,4,,,,,,,,,209.47003670000004,None,,,,,,,,,,,,,,,,,,,,,,,,,,,,,,210.47914820000005,None,210.47914820000005,None,210.47914820000005,None,210.47914820000005,None,210.47914820000005,None,210.47914820000005,None,210.47914820000005,None,a,1,0.4087741000003007,210.47914820000005,None,,,,,,,,,,,,,10,001,2022_Oct_06_1539,Flanker,2021.2.0,239.43436026588327,
congruent-right.jpg,1,k,right_arrow.png,right_arrow.png,right_arrow.png,right_arrow.png,right_arrow.png,right_arrow.png,right_arrow.png,,,,,,,,,2,3,15,2,,,,,,,,,210.90497079999977,None,,,,,,,,,,,,,,,,,,,,,,,,,,,,,,211.9143042999999,None,211.9143042999999,None,211.9143042999999,None,211.9143042999999,None,211.9143042999999,None,211.9143042999999,None,211.9143042999999,None,k,1,0.3253946999998334,211.9143042999999,None,,,,,,,,,,,,,10,001,2022_Oct_06_1539,Flanker,2021.2.0,239.43436026588327,
neutral left,0,a,neutral.png,neutral.png,neutral.png,left_arrow.png,neutral.png,neutral.png,neutral.png,,,,,,,,,2,4,16,4,,,,,,,,,212.2566099999999,None,,,,,,,,,,,,,,,,,,,,,,,,,,,,,,213.2660366,None,213.2660366,None,213.2660366,None,213.2660366,None,213.2660366,None,213.2660366,None,213.2660366,None,a,1,0.38983220000000074,213.2660366,None,,,,,,,,,,,,,10,001,2022_Oct_06_1539,Flanker,2021.2.0,239.43436026588327,
incongruent-left.jpg,0,a,right_arrow.png,right_arrow.png,right_arrow.png,left_arrow.png,right_arrow.png,right_arrow.png,right_arrow.png,,,,,,,,,2,5,17,1,,,,,,,,,213.67469849999998,None,,,,,,,,,,,,,,,,,,,,,,,,,,,,,,214.68807049999987,None,214.68807049999987,None,214.68807049999987,None,214.68807049999987,None,214.68807049999987,None,214.68807049999987,None,214.68807049999987,None,a,1,0.45601189999979397,214.68807049999987,None,,,,,,,,,,,,,10,001,2022_Oct_06_1539,Flanker,2021.2.0,239.43436026588327,
incongruent-right.jpg,0,k,left_arrow.png,left_arrow.png,left_arrow.png,right_arrow.png,left_arrow.png,left_arrow.png,left_arrow.png,,,,,,,,,3,0,18,3,,,,,,,,,215.1554925999999,None,,,,,,,,,,,,,,,,,,,,,,,,,,,,,,216.16462279999996,None,216.16462279999996,None,216.16462279999996,None,216.16462279999996,None,216.16462279999996,None,216.16462279999996,None,216.16462279999996,None,k,1,0.44365109999989727,216.16462279999996,None,,,,,,,,,,,,,10,001,2022_Oct_06_1539,Flanker,2021.2.0,239.43436026588327,
neutral left,0,a,neutral.png,neutral.png,neutral.png,left_arrow.png,neutral.png,neutral.png,neutral.png,,,,,,,,,3,1,19,4,,,,,,,,,216.62353649999977,None,,,,,,,,,,,,,,,,,,,,,,,,,,,,,,217.63314850000006,None,217.63314850000006,None,217.63314850000006,None,217.63314850000006,None,217.63314850000006,None,217.63314850000006,None,217.63314850000006,None,a,1,0.34330369999997856,217.63314850000006,None,,,,,,,,,,,,,10,001,2022_Oct_06_1539,Flanker,2021.2.0,239.43436026588327,
incongruent-right.jpg,0,k,left_arrow.png,left_arrow.png,left_arrow.png,right_arrow.png,left_arrow.png,left_arrow.png,left_arrow.png,,,,,,,,,3,2,20,3,,,,,,,,,217.9915857000001,None,,,,,,,,,,,,,,,,,,,,,,,,,,,,,,219.00097559999995,None,219.00097559999995,None,219.00097559999995,None,219.00097559999995,None,219.00097559999995,None,219.00097559999995,None,219.00097559999995,None,k,1,0.5437047000000348,219.00097559999995,None,,,,,,,,,,,,,10,001,2022_Oct_06_1539,Flanker,2021.2.0,239.43436026588327,
neutral left,0,a,neutral.png,neutral.png,neutral.png,left_arrow.png,neutral.png,neutral.png,neutral.png,,,,,,,,,3,3,21,4,,,,,,,,,219.5598990999997,None,,,,,,,,,,,,,,,,,,,,,,,,,,,,,,220.57376029999978,None,220.57376029999978,None,220.57376029999978,None,220.57376029999978,None,220.57376029999978,None,220.57376029999978,None,220.57376029999978,None,a,1,0.4992867999999362,220.57376029999978,None,,,,,,,,,,,,,10,001,2022_Oct_06_1539,Flanker,2021.2.0,239.43436026588327,
neutral right,0,k,neutral.png,neutral.png,neutral.png,right_arrow.png,neutral.png,neutral.png,neutral.png,,,,,,,,,3,4,22,5,,,,,,,,,221.0907016000001,None,,,,,,,,,,,,,,,,,,,,,,,,,,,,,,222.10031649999974,None,222.10031649999974,None,222.10031649999974,None,222.10031649999974,None,222.10031649999974,None,222.10031649999974,None,222.10031649999974,None,k,1,0.47706760000028225,222.10031649999974,None,,,,,,,,,,,,,10,001,2022_Oct_06_1539,Flanker,2021.2.0,239.43436026588327,
incongruent-right.jpg,0,k,left_arrow.png,left_arrow.png,left_arrow.png,right_arrow.png,left_arrow.png,left_arrow.png,left_arrow.png,,,,,,,,,3,5,23,3,,,,,,,,,222.59256689999984,None,,,,,,,,,,,,,,,,,,,,,,,,,,,,,,223.60614869999972,None,223.60614869999972,None,223.60614869999972,None,223.60614869999972,None,223.60614869999972,None,223.60614869999972,None,223.60614869999972,None,k,1,1.5393459000001712,223.60614869999972,None,,,,,,,,,,,,,10,001,2022_Oct_06_1539,Flanker,2021.2.0,239.43436026588327,
congruent-left.jpg,1,a,left_arrow.png,left_arrow.png,left_arrow.png,left_arrow.png,left_arrow.png,left_arrow.png,left_arrow.png,,,,,,,,,4,0,24,0,,,,,,,,,225.15777780000008,None,,,,,,,,,,,,,,,,,,,,,,,,,,,,,,226.1712232,None,226.1712232,None,226.1712232,None,226.1712232,None,226.1712232,None,226.1712232,None,226.1712232,None,a,1,0.48670599999968545,226.1712232,None,,,,,,,,,,,,,10,001,2022_Oct_06_1539,Flanker,2021.2.0,239.43436026588327,
neutral right,0,k,neutral.png,neutral.png,neutral.png,right_arrow.png,neutral.png,neutral.png,neutral.png,,,,,,,,,4,1,25,5,,,,,,,,,226.67188989999977,None,,,,,,,,,,,,,,,,,,,,,,,,,,,,,,227.68139440000004,None,227.68139440000004,None,227.68139440000004,None,227.68139440000004,None,227.68139440000004,None,227.68139440000004,None,227.68139440000004,None,k,1,0.35251709999965897,227.68139440000004,None,,,,,,,,,,,,,10,001,2022_Oct_06_1539,Flanker,2021.2.0,239.43436026588327,
neutral left,0,a,neutral.png,neutral.png,neutral.png,left_arrow.png,neutral.png,neutral.png,neutral.png,,,,,,,,,4,2,26,4,,,,,,,,,228.04834630000005,None,,,,,,,,,,,,,,,,,,,,,,,,,,,,,,229.05780950000008,None,229.05780950000008,None,229.05780950000008,None,229.05780950000008,None,229.05780950000008,None,229.05780950000008,None,229.05780950000008,None,a,1,0.4482062999995833,229.05780950000008,None,,,,,,,,,,,,,10,001,2022_Oct_06_1539,Flanker,2021.2.0,239.43436026588327,
congruent-right.jpg,1,k,right_arrow.png,right_arrow.png,right_arrow.png,right_arrow.png,right_arrow.png,right_arrow.png,right_arrow.png,,,,,,,,,4,3,27,2,,,,,,,,,229.5250034999999,None,,,,,,,,,,,,,,,,,,,,,,,,,,,,,,230.53422929999988,None,230.53422929999988,None,230.53422929999988,None,230.53422929999988,None,230.53422929999988,None,230.53422929999988,None,230.53422929999988,None,k,1,0.41235020000021905,230.53422929999988,None,,,,,,,,,,,,,10,001,2022_Oct_06_1539,Flanker,2021.2.0,239.43436026588327,
incongruent-right.jpg,0,k,left_arrow.png,left_arrow.png,left_arrow.png,right_arrow.png,left_arrow.png,left_arrow.png,left_arrow.png,,,,,,,,,4,4,28,3,,,,,,,,,230.95975120000003,None,,,,,,,,,,,,,,,,,,,,,,,,,,,,,,231.9691171999998,None,231.9691171999998,None,231.9691171999998,None,231.9691171999998,None,231.9691171999998,None,231.9691171999998,None,231.9691171999998,None,k,1,0.4732923999999912,231.9691171999998,None,,,,,,,,,,,,,10,001,2022_Oct_06_1539,Flanker,2021.2.0,239.43436026588327,
congruent-right.jpg,1,k,right_arrow.png,right_arrow.png,right_arrow.png,right_arrow.png,right_arrow.png,right_arrow.png,right_arrow.png,,,,,,,,,4,5,29,2,,,,,,,,,232.45269980000012,None,,,,,,,,,,,,,,,,,,,,,,,,,,,,,,233.4665740999999,None,233.4665740999999,None,233.4665740999999,None,233.4665740999999,None,233.4665740999999,None,233.4665740999999,None,233.4665740999999,None,k,1,0.43206559999998717,233.4665740999999,None,,,,,,,,,,,,,10,001,2022_Oct_06_1539,Flanker,2021.2.0,239.43436026588327,
neutral left,0,a,neutral.png,neutral.png,neutral.png,left_arrow.png,neutral.png,neutral.png,neutral.png,,,,,,,,,5,0,30,4,,,,,,,,,233.91706190000014,None,,,,,,,,,,,,,,,,,,,,,,,,,,,,,,234.93051639999976,None,234.93051639999976,None,234.93051639999976,None,234.93051639999976,None,234.93051639999976,None,234.93051639999976,None,234.93051639999976,None,k,0,0.3606798000000708,234.93051639999976,None,,,,,,,,,,,,,10,001,2022_Oct_06_1539,Flanker,2021.2.0,239.43436026588327,
incongruent-left.jpg,0,a,right_arrow.png,right_arrow.png,right_arrow.png,left_arrow.png,right_arrow.png,right_arrow.png,right_arrow.png,,,,,,,,,5,1,31,1,,,,,,,,,235.3061174999998,None,,,,,,,,,,,,,,,,,,,,,,,,,,,,,,236.31960029999982,None,236.31960029999982,None,236.31960029999982,None,236.31960029999982,None,236.31960029999982,None,236.31960029999982,None,236.31960029999982,None,a,1,0.44367979999969975,236.31960029999982,None,,,,,,,,,,,,,10,001,2022_Oct_06_1539,Flanker,2021.2.0,239.43436026588327,
incongruent-right.jpg,0,k,left_arrow.png,left_arrow.png,left_arrow.png,right_arrow.png,left_arrow.png,left_arrow.png,left_arrow.png,,,,,,,,,5,2,32,3,,,,,,,,,236.7784376999998,None,,,,,,,,,,,,,,,,,,,,,,,,,,,,,,237.79188579999982,None,237.79188579999982,None,237.79188579999982,None,237.79188579999982,None,237.79188579999982,None,237.79188579999982,None,237.79188579999982,None,k,1,0.42760390000012194,237.79188579999982,None,,,,,,,,,,,,,10,001,2022_Oct_06_1539,Flanker,2021.2.0,239.43436026588327,
congruent-left.jpg,1,a,left_arrow.png,left_arrow.png,left_arrow.png,left_arrow.png,left_arrow.png,left_arrow.png,left_arrow.png,,,,,,,,,5,3,33,0,,,,,,,,,238.2342165,None,,,,,,,,,,,,,,,,,,,,,,,,,,,,,,239.2476133,None,239.2476133,None,239.2476133,None,239.2476133,None,239.2476133,None,239.2476133,None,239.2476133,None,a,1,0.3637582999999722,239.2476133,None,,,,,,,,,,,,,10,001,2022_Oct_06_1539,Flanker,2021.2.0,239.43436026588327,
congruent-left.jpg,1,a,left_arrow.png,left_arrow.png,left_arrow.png,left_arrow.png,left_arrow.png,left_arrow.png,left_arrow.png,,,,,,,,,5,4,34,0,,,,,,,,,239.62282649999997,None,,,,,,,,,,,,,,,,,,,,,,,,,,,,,,240.62837869999976,None,240.62837869999976,None,240.62837869999976,None,240.62837869999976,None,240.62837869999976,None,240.62837869999976,None,240.62837869999976,None,a,1,0.4392109000000346,240.62837869999976,None,,,,,,,,,,,,,10,001,2022_Oct_06_1539,Flanker,2021.2.0,239.43436026588327,
neutral left,0,a,neutral.png,neutral.png,neutral.png,left_arrow.png,neutral.png,neutral.png,neutral.png,,,,,,,,,5,5,35,4,,,,,,,,,241.08710130000009,None,,,,,,,,,,,,,,,,,,,,,,,,,,,,,,242.0965538999999,None,242.0965538999999,None,242.0965538999999,None,242.0965538999999,None,242.0965538999999,None,242.0965538999999,None,242.0965538999999,None,a,1,0.47540899999967223,242.0965538999999,None,,,,,,,,,,,,,10,001,2022_Oct_06_1539,Flanker,2021.2.0,239.43436026588327,
incongruent-right.jpg,0,k,left_arrow.png,left_arrow.png,left_arrow.png,right_arrow.png,left_arrow.png,left_arrow.png,left_arrow.png,,,,,,,,,6,0,36,3,,,,,,,,,242.5887560000001,None,,,,,,,,,,,,,,,,,,,,,,,,,,,,,,243.60232399999995,None,243.60232399999995,None,243.60232399999995,None,243.60232399999995,None,243.60232399999995,None,243.60232399999995,None,243.60232399999995,None,k,1,0.3779475999999704,243.60232399999995,None,,,,,,,,,,,,,10,001,2022_Oct_06_1539,Flanker,2021.2.0,239.43436026588327,
congruent-right.jpg,1,k,right_arrow.png,right_arrow.png,right_arrow.png,right_arrow.png,right_arrow.png,right_arrow.png,right_arrow.png,,,,,,,,,6,1,37,2,,,,,,,,,243.99446480000006,None,,,,,,,,,,,,,,,,,,,,,,,,,,,,,,245.00787050000008,None,245.00787050000008,None,245.00787050000008,None,245.00787050000008,None,245.00787050000008,None,245.00787050000008,None,245.00787050000008,None,k,1,1.1006212000002051,245.00787050000008,None,,,,,,,,,,,,,10,001,2022_Oct_06_1539,Flanker,2021.2.0,239.43436026588327,
incongruent-left.jpg,0,a,right_arrow.png,right_arrow.png,right_arrow.png,left_arrow.png,right_arrow.png,right_arrow.png,right_arrow.png,,,,,,,,,6,2,38,1,,,,,,,,,246.12569230000008,None,,,,,,,,,,,,,,,,,,,,,,,,,,,,,,247.1391126999997,None,247.1391126999997,None,247.1391126999997,None,247.1391126999997,None,247.1391126999997,None,247.1391126999997,None,247.1391126999997,None,a,1,0.37768999999980224,247.1391126999997,None,,,,,,,,,,,,,10,001,2022_Oct_06_1539,Flanker,2021.2.0,239.43436026588327,
incongruent-left.jpg,0,a,right_arrow.png,right_arrow.png,right_arrow.png,left_arrow.png,right_arrow.png,right_arrow.png,right_arrow.png,,,,,,,,,6,3,39,1,,,,,,,,,247.5313517999998,None,,,,,,,,,,,,,,,,,,,,,,,,,,,,,,248.54060619999973,None,248.54060619999973,None,248.54060619999973,None,248.54060619999973,None,248.54060619999973,None,248.54060619999973,None,248.54060619999973,None,a,1,0.3843148000000838,248.54060619999973,None,,,,,,,,,,,,,10,001,2022_Oct_06_1539,Flanker,2021.2.0,239.43436026588327,
congruent-left.jpg,1,a,left_arrow.png,left_arrow.png,left_arrow.png,left_arrow.png,left_arrow.png,left_arrow.png,left_arrow.png,,,,,,,,,6,4,40,0,,,,,,,,,248.94139799999994,None,,,,,,,,,,,,,,,,,,,,,,,,,,,,,,249.95065399999976,None,249.95065399999976,None,249.95065399999976,None,249.95065399999976,None,249.95065399999976,None,249.95065399999976,None,249.95065399999976,None,a,1,0.39818849999983286,249.95065399999976,None,,,,,,,,,,,,,10,001,2022_Oct_06_1539,Flanker,2021.2.0,239.43436026588327,
congruent-left.jpg,1,a,left_arrow.png,left_arrow.png,left_arrow.png,left_arrow.png,left_arrow.png,left_arrow.png,left_arrow.png,,,,,,,,,6,5,41,0,,,,,,,,,250.36768970000003,None,,,,,,,,,,,,,,,,,,,,,,,,,,,,,,251.3813455999998,None,251.3813455999998,None,251.3813455999998,None,251.3813455999998,None,251.3813455999998,None,251.3813455999998,None,251.3813455999998,None,a,1,0.3679612000000816,251.3813455999998,None,,,,,,,,,,,,,10,001,2022_Oct_06_1539,Flanker,2021.2.0,239.43436026588327,
neutral right,0,k,neutral.png,neutral.png,neutral.png,right_arrow.png,neutral.png,neutral.png,neutral.png,,,,,,,,,7,0,42,5,,,,,,,,,251.76520329999994,None,,,,,,,,,,,,,,,,,,,,,,,,,,,,,,252.7784354999999,None,252.7784354999999,None,252.7784354999999,None,252.7784354999999,None,252.7784354999999,None,252.7784354999999,None,252.7784354999999,None,k,1,0.3951534000002539,252.7784354999999,None,,,,,,,,,,,,,10,001,2022_Oct_06_1539,Flanker,2021.2.0,239.43436026588327,
neutral right,0,k,neutral.png,neutral.png,neutral.png,right_arrow.png,neutral.png,neutral.png,neutral.png,,,,,,,,,7,1,43,5,,,,,,,,,253.18748030000006,None,,,,,,,,,,,,,,,,,,,,,,,,,,,,,,254.20077630000014,None,254.20077630000014,None,254.20077630000014,None,254.20077630000014,None,254.20077630000014,None,254.20077630000014,None,254.20077630000014,None,k,1,0.4127814000003127,254.20077630000014,None,,,,,,,,,,,,,10,001,2022_Oct_06_1539,Flanker,2021.2.0,239.43436026588327,
neutral right,0,k,neutral.png,neutral.png,neutral.png,right_arrow.png,neutral.png,neutral.png,neutral.png,,,,,,,,,7,2,44,5,,,,,,,,,254.62660379999988,None,,,,,,,,,,,,,,,,,,,,,,,,,,,,,,255.6316941,None,255.6316941,None,255.6316941,None,255.6316941,None,255.6316941,None,255.6316941,None,255.6316941,None,k,1,0.4218878000001496,255.6316941,None,,,,,,,,,,,,,10,001,2022_Oct_06_1539,Flanker,2021.2.0,239.43436026588327,
congruent-left.jpg,1,a,left_arrow.png,left_arrow.png,left_arrow.png,left_arrow.png,left_arrow.png,left_arrow.png,left_arrow.png,,,,,,,,,7,3,45,0,,,,,,,,,256.06554529999994,None,,,,,,,,,,,,,,,,,,,,,,,,,,,,,,257.0833898000001,None,257.0833898000001,None,257.0833898000001,None,257.0833898000001,None,257.0833898000001,None,257.0833898000001,None,257.0833898000001,None,a,1,0.4347117000002072,257.0833898000001,None,,,,,,,,,,,,,10,001,2022_Oct_06_1539,Flanker,2021.2.0,239.43436026588327,
neutral left,0,a,neutral.png,neutral.png,neutral.png,left_arrow.png,neutral.png,neutral.png,neutral.png,,,,,,,,,7,4,46,4,,,,,,,,,257.53376679999974,None,,,,,,,,,,,,,,,,,,,,,,,,,,,,,,258.54719909999994,None,258.54719909999994,None,258.54719909999994,None,258.54719909999994,None,258.54719909999994,None,258.54719909999994,None,258.54719909999994,None,a,1,1.0269044000001486,258.54719909999994,None,,,,,,,,,,,,,10,001,2022_Oct_06_1539,Flanker,2021.2.0,239.43436026588327,
congruent-right.jpg,1,k,right_arrow.png,right_arrow.png,right_arrow.png,right_arrow.png,right_arrow.png,right_arrow.png,right_arrow.png,,,,,,,,,7,5,47,2,,,,,,,,,259.5900044,None,,,,,,,,,,,,,,,,,,,,,,,,,,,,,,260.60793280000007,None,260.60793280000007,None,260.60793280000007,None,260.60793280000007,None,260.60793280000007,None,260.60793280000007,None,260.60793280000007,None,k,1,0.4625218999999561,260.60793280000007,None,,,,,,,,,,,,,10,001,2022_Oct_06_1539,Flanker,2021.2.0,239.43436026588327,
,,,,,,,,,,,,,,,,,,,,,,,,,,,,,,,,,,,,,,,,,,,,,,,,,,,,,,,,,,,,,,,,,,,,,,,,,,,,,,,,261.09167100000013,None,space,1.6430176000003485,261.09167100000013,None,,,,,,,10,001,2022_Oct_06_1539,Flanker,2021.2.0,239.43436026588327,
neutral left,0,a,neutral.png,neutral.png,neutral.png,left_arrow.png,neutral.png,neutral.png,neutral.png,,,,,,,,,,,,,0,0,0,4,,,,,262.7600287999999,None,,,,,,,,,,,,,,,,,,,,,,,,,,,,,,263.7654327,None,263.7654327,None,263.7654327,None,263.7654327,None,263.7654327,None,263.7654327,None,263.7654327,None,a,1,0.465297499999906,263.7654327,None,,,,,,,,,,,,,10,001,2022_Oct_06_1539,Flanker,2021.2.0,239.43436026588327,
incongruent-left.jpg,0,a,right_arrow.png,right_arrow.png,right_arrow.png,left_arrow.png,right_arrow.png,right_arrow.png,right_arrow.png,,,,,,,,,,,,,0,1,1,1,,,,,264.2491958999999,None,,,,,,,,,,,,,,,,,,,,,,,,,,,,,,265.26271719999977,None,265.26271719999977,None,265.26271719999977,None,265.26271719999977,None,265.26271719999977,None,265.26271719999977,None,265.26271719999977,None,a,1,0.4641808999999739,265.26271719999977,None,,,,,,,,,,,,,10,001,2022_Oct_06_1539,Flanker,2021.2.0,239.43436026588327,
congruent-right.jpg,1,k,right_arrow.png,right_arrow.png,right_arrow.png,right_arrow.png,right_arrow.png,right_arrow.png,right_arrow.png,,,,,,,,,,,,,0,2,2,2,,,,,265.7380247000001,None,,,,,,,,,,,,,,,,,,,,,,,,,,,,,,266.7473989,None,266.7473989,None,266.7473989,None,266.7473989,None,266.7473989,None,266.7473989,None,266.7473989,None,k,1,0.4437266999998428,266.7473989,None,,,,,,,,,,,,,10,001,2022_Oct_06_1539,Flanker,2021.2.0,239.43436026588327,
congruent-left.jpg,1,a,left_arrow.png,left_arrow.png,left_arrow.png,left_arrow.png,left_arrow.png,left_arrow.png,left_arrow.png,,,,,,,,,,,,,0,3,3,0,,,,,267.2066399999999,None,,,,,,,,,,,,,,,,,,,,,,,,,,,,,,268.21585270000014,None,268.21585270000014,None,268.21585270000014,None,268.21585270000014,None,268.21585270000014,None,268.21585270000014,None,268.21585270000014,None,a,1,0.39983970000002955,268.21585270000014,None,,,,,,,,,,,,,10,001,2022_Oct_06_1539,Flanker,2021.2.0,239.43436026588327,
congruent-right.jpg,1,k,right_arrow.png,right_arrow.png,right_arrow.png,right_arrow.png,right_arrow.png,right_arrow.png,right_arrow.png,,,,,,,,,,,,,0,4,4,2,,,,,268.6327492999999,None,,,,,,,,,,,,,,,,,,,,,,,,,,,,,,269.64645459999974,None,269.64645459999974,None,269.64645459999974,None,269.64645459999974,None,269.64645459999974,None,269.64645459999974,None,269.64645459999974,None,k,1,0.3610452000002624,269.64645459999974,None,,,,,,,,,,,,,10,001,2022_Oct_06_1539,Flanker,2021.2.0,239.43436026588327,
incongruent-left.jpg,0,a,right_arrow.png,right_arrow.png,right_arrow.png,left_arrow.png,right_arrow.png,right_arrow.png,right_arrow.png,,,,,,,,,,,,,0,5,5,1,,,,,270.02172530000007,None,,,,,,,,,,,,,,,,,,,,,,,,,,,,,,271.03530090000004,None,271.03530090000004,None,271.03530090000004,None,271.03530090000004,None,271.03530090000004,None,271.03530090000004,None,271.03530090000004,None,a,1,0.6284427999999025,271.03530090000004,None,,,,,,,,,,,,,10,001,2022_Oct_06_1539,Flanker,2021.2.0,239.43436026588327,
congruent-left.jpg,1,a,left_arrow.png,left_arrow.png,left_arrow.png,left_arrow.png,left_arrow.png,left_arrow.png,left_arrow.png,,,,,,,,,,,,,1,0,6,0,,,,,271.67764769999985,None,,,,,,,,,,,,,,,,,,,,,,,,,,,,,,272.6870531999998,None,272.6870531999998,None,272.6870531999998,None,272.6870531999998,None,272.6870531999998,None,272.6870531999998,None,272.6870531999998,None,a,1,0.5528977999997551,272.6870531999998,None,,,,,,,,,,,,,10,001,2022_Oct_06_1539,Flanker,2021.2.0,239.43436026588327,
incongruent-left.jpg,0,a,right_arrow.png,right_arrow.png,right_arrow.png,left_arrow.png,right_arrow.png,right_arrow.png,right_arrow.png,,,,,,,,,,,,,1,1,7,1,,,,,273.25430800000004,None,,,,,,,,,,,,,,,,,,,,,,,,,,,,,,274.26813159999983,None,274.26813159999983,None,274.26813159999983,None,274.26813159999983,None,274.26813159999983,None,274.26813159999983,None,274.26813159999983,None,a,1,0.5082628999998633,274.26813159999983,None,,,,,,,,,,,,,10,001,2022_Oct_06_1539,Flanker,2021.2.0,239.43436026588327,
neutral right,0,k,neutral.png,neutral.png,neutral.png,right_arrow.png,neutral.png,neutral.png,neutral.png,,,,,,,,,,,,,1,2,8,5,,,,,274.7934537000001,None,,,,,,,,,,,,,,,,,,,,,,,,,,,,,,275.8070180999998,None,275.8070180999998,None,275.8070180999998,None,275.8070180999998,None,275.8070180999998,None,275.8070180999998,None,275.8070180999998,None,k,1,0.6013508000000911,275.8070180999998,None,,,,,,,,,,,,,10,001,2022_Oct_06_1539,Flanker,2021.2.0,239.43436026588327,
neutral right,0,k,neutral.png,neutral.png,neutral.png,right_arrow.png,neutral.png,neutral.png,neutral.png,,,,,,,,,,,,,1,3,9,5,,,,,276.4243415000001,None,,,,,,,,,,,,,,,,,,,,,,,,,,,,,,277.4296694999998,None,277.4296694999998,None,277.4296694999998,None,277.4296694999998,None,277.4296694999998,None,277.4296694999998,None,277.4296694999998,None,k,1,0.47517519999973956,277.4296694999998,None,,,,,,,,,,,,,10,001,2022_Oct_06_1539,Flanker,2021.2.0,239.43436026588327,
congruent-left.jpg,1,a,left_arrow.png,left_arrow.png,left_arrow.png,left_arrow.png,left_arrow.png,left_arrow.png,left_arrow.png,,,,,,,,,,,,,1,4,10,0,,,,,277.92175,None,,,,,,,,,,,,,,,,,,,,,,,,,,,,,,278.9353446,None,278.9353446,None,278.9353446,None,278.9353446,None,278.9353446,None,278.9353446,None,278.9353446,None,a,1,0.4174319999997351,278.9353446,None,,,,,,,,,,,,,10,001,2022_Oct_06_1539,Flanker,2021.2.0,239.43436026588327,
congruent-right.jpg,1,k,right_arrow.png,right_arrow.png,right_arrow.png,right_arrow.png,right_arrow.png,right_arrow.png,right_arrow.png,,,,,,,,,,,,,1,5,11,2,,,,,279.36942120000003,None,,,,,,,,,,,,,,,,,,,,,,,,,,,,,,280.3828558,None,280.3828558,None,280.3828558,None,280.3828558,None,280.3828558,None,280.3828558,None,280.3828558,None,k,1,0.4341250000002219,280.3828558,None,,,,,,,,,,,,,10,001,2022_Oct_06_1539,Flanker,2021.2.0,239.43436026588327,
incongruent-right.jpg,0,k,left_arrow.png,left_arrow.png,left_arrow.png,right_arrow.png,left_arrow.png,left_arrow.png,left_arrow.png,,,,,,,,,,,,,2,0,12,3,,,,,280.8332144000001,None,,,,,,,,,,,,,,,,,,,,,,,,,,,,,,281.8468416999999,None,281.8468416999999,None,281.8468416999999,None,281.8468416999999,None,281.8468416999999,None,281.8468416999999,None,281.8468416999999,None,k,1,0.4745909000002939,281.8468416999999,None,,,,,,,,,,,,,10,001,2022_Oct_06_1539,Flanker,2021.2.0,239.43436026588327,
congruent-right.jpg,1,k,right_arrow.png,right_arrow.png,right_arrow.png,right_arrow.png,right_arrow.png,right_arrow.png,right_arrow.png,,,,,,,,,,,,,2,1,13,2,,,,,282.3389403000001,None,,,,,,,,,,,,,,,,,,,,,,,,,,,,,,283.35669659999985,None,283.35669659999985,None,283.35669659999985,None,283.35669659999985,None,283.35669659999985,None,283.35669659999985,None,283.35669659999985,None,k,1,0.4046471000001475,283.35669659999985,None,,,,,,,,,,,,,10,001,2022_Oct_06_1539,Flanker,2021.2.0,239.43436026588327,
neutral right,0,k,neutral.png,neutral.png,neutral.png,right_arrow.png,neutral.png,neutral.png,neutral.png,,,,,,,,,,,,,2,2,14,5,,,,,283.7737889,None,,,,,,,,,,,,,,,,,,,,,,,,,,,,,,284.7873614,None,284.7873614,None,284.7873614,None,284.7873614,None,284.7873614,None,284.7873614,None,284.7873614,None,k,1,0.3584928000000218,284.7873614,None,,,,,,,,,,,,,10,001,2022_Oct_06_1539,Flanker,2021.2.0,239.43436026588327,
neutral right,0,k,neutral.png,neutral.png,neutral.png,right_arrow.png,neutral.png,neutral.png,neutral.png,,,,,,,,,,,,,2,3,15,5,,,,,285.1627717000001,None,,,,,,,,,,,,,,,,,,,,,,,,,,,,,,286.1764887999998,None,286.1764887999998,None,286.1764887999998,None,286.1764887999998,None,286.1764887999998,None,286.1764887999998,None,286.1764887999998,None,k,1,0.3772423999998864,286.1764887999998,None,,,,,,,,,,,,,10,001,2022_Oct_06_1539,Flanker,2021.2.0,239.43436026588327,
incongruent-right.jpg,0,k,left_arrow.png,left_arrow.png,left_arrow.png,right_arrow.png,left_arrow.png,left_arrow.png,left_arrow.png,,,,,,,,,,,,,2,4,16,3,,,,,286.5684081999998,None,,,,,,,,,,,,,,,,,,,,,,,,,,,,,,287.58200209999995,None,287.58200209999995,None,287.58200209999995,None,287.58200209999995,None,287.58200209999995,None,287.58200209999995,None,287.58200209999995,None,k,1,0.508136899999954,287.58200209999995,None,,,,,,,,,,,,,10,001,2022_Oct_06_1539,Flanker,2021.2.0,239.43436026588327,
neutral right,0,k,neutral.png,neutral.png,neutral.png,right_arrow.png,neutral.png,neutral.png,neutral.png,,,,,,,,,,,,,2,5,17,5,,,,,288.10754659999975,None,,,,,,,,,,,,,,,,,,,,,,,,,,,,,,289.12113439999985,None,289.12113439999985,None,289.12113439999985,None,289.12113439999985,None,289.12113439999985,None,289.12113439999985,None,289.12113439999985,None,k,1,0.3930169999998725,289.12113439999985,None,,,,,,,,,,,,,10,001,2022_Oct_06_1539,Flanker,2021.2.0,239.43436026588327,
neutral right,0,k,neutral.png,neutral.png,neutral.png,right_arrow.png,neutral.png,neutral.png,neutral.png,,,,,,,,,,,,,3,0,18,5,,,,,289.52987699999994,None,,,,,,,,,,,,,,,,,,,,,,,,,,,,,,290.5392671999998,None,290.5392671999998,None,290.5392671999998,None,290.5392671999998,None,290.5392671999998,None,290.5392671999998,None,290.5392671999998,None,k,1,0.3912207000003036,290.5392671999998,None,,,,,,,,,,,,,10,001,2022_Oct_06_1539,Flanker,2021.2.0,239.43436026588327,
neutral left,0,a,neutral.png,neutral.png,neutral.png,left_arrow.png,neutral.png,neutral.png,neutral.png,,,,,,,,,,,,,3,1,19,4,,,,,290.9480666999998,None,,,,,,,,,,,,,,,,,,,,,,,,,,,,,,291.96186450000005,None,291.96186450000005,None,291.96186450000005,None,291.96186450000005,None,291.96186450000005,None,291.96186450000005,None,291.96186450000005,None,a,1,0.3846822999998949,291.96186450000005,None,,,,,,,,,,,,,10,001,2022_Oct_06_1539,Flanker,2021.2.0,239.43436026588327,
neutral left,0,a,neutral.png,neutral.png,neutral.png,left_arrow.png,neutral.png,neutral.png,neutral.png,,,,,,,,,,,,,3,2,20,4,,,,,292.3620544999999,None,,,,,,,,,,,,,,,,,,,,,,,,,,,,,,293.3756315999999,None,293.3756315999999,None,293.3756315999999,None,293.3756315999999,None,293.3756315999999,None,293.3756315999999,None,293.3756315999999,None,a,1,0.4833002000000306,293.3756315999999,None,,,,,,,,,,,,,10,001,2022_Oct_06_1539,Flanker,2021.2.0,239.43436026588327,
incongruent-right.jpg,0,k,left_arrow.png,left_arrow.png,left_arrow.png,right_arrow.png,left_arrow.png,left_arrow.png,left_arrow.png,,,,,,,,,,,,,3,3,21,3,,,,,293.8764028999999,None,,,,,,,,,,,,,,,,,,,,,,,,,,,,,,294.8858719,None,294.8858719,None,294.8858719,None,294.8858719,None,294.8858719,None,294.8858719,None,294.8858719,None,k,1,0.42104890000018713,294.8858719,None,,,,,,,,,,,,,10,001,2022_Oct_06_1539,Flanker,2021.2.0,239.43436026588327,
congruent-left.jpg,1,a,left_arrow.png,left_arrow.png,left_arrow.png,left_arrow.png,left_arrow.png,left_arrow.png,left_arrow.png,,,,,,,,,,,,,3,4,22,0,,,,,295.3194131999999,None,,,,,,,,,,,,,,,,,,,,,,,,,,,,,,296.3331167000001,None,296.3331167000001,None,296.3331167000001,None,296.3331167000001,None,296.3331167000001,None,296.3331167000001,None,296.3331167000001,None,k,0,0.3819706000003862,296.3331167000001,None,,,,,,,,,,,,,10,001,2022_Oct_06_1539,Flanker,2021.2.0,239.43436026588327,
incongruent-left.jpg,0,a,right_arrow.png,right_arrow.png,right_arrow.png,left_arrow.png,right_arrow.png,right_arrow.png,right_arrow.png,,,,,,,,,,,,,3,5,23,1,,,,,296.7334753,None,,,,,,,,,,,,,,,,,,,,,,,,,,,,,,297.7470696999999,None,297.7470696999999,None,297.7470696999999,None,297.7470696999999,None,297.7470696999999,None,297.7470696999999,None,297.7470696999999,None,a,1,0.3842478999999912,297.7470696999999,None,,,,,,,,,,,,,10,001,2022_Oct_06_1539,Flanker,2021.2.0,239.43436026588327,
incongruent-left.jpg,0,a,right_arrow.png,right_arrow.png,right_arrow.png,left_arrow.png,right_arrow.png,right_arrow.png,right_arrow.png,,,,,,,,,,,,,4,0,24,1,,,,,298.14735919999976,None,,,,,,,,,,,,,,,,,,,,,,,,,,,,,,299.1610790999998,None,299.1610790999998,None,299.1610790999998,None,299.1610790999998,None,299.1610790999998,None,299.1610790999998,None,299.1610790999998,None,a,1,0.6668432000001303,299.1610790999998,None,,,,,,,,,,,,,10,001,2022_Oct_06_1539,Flanker,2021.2.0,239.43436026588327,
congruent-right.jpg,1,k,right_arrow.png,right_arrow.png,right_arrow.png,right_arrow.png,right_arrow.png,right_arrow.png,right_arrow.png,,,,,,,,,,,,,4,1,25,2,,,,,299.84506550000015,None,,,,,,,,,,,,,,,,,,,,,,,,,,,,,,300.85877690000007,None,300.85877690000007,None,300.85877690000007,None,300.85877690000007,None,300.85877690000007,None,300.85877690000007,None,300.85877690000007,None,k,1,0.385280800000146,300.85877690000007,None,,,,,,,,,,,,,10,001,2022_Oct_06_1539,Flanker,2021.2.0,239.43436026588327,
neutral left,0,a,neutral.png,neutral.png,neutral.png,left_arrow.png,neutral.png,neutral.png,neutral.png,,,,,,,,,,,,,4,2,26,4,,,,,301.25929210000004,None,,,,,,,,,,,,,,,,,,,,,,,,,,,,,,302.2686100000001,None,302.2686100000001,None,302.2686100000001,None,302.2686100000001,None,302.2686100000001,None,302.2686100000001,None,302.2686100000001,None,a,1,0.42354740000018865,302.2686100000001,None,,,,,,,,,,,,,10,001,2022_Oct_06_1539,Flanker,2021.2.0,239.43436026588327,
incongruent-right.jpg,0,k,left_arrow.png,left_arrow.png,left_arrow.png,right_arrow.png,left_arrow.png,left_arrow.png,left_arrow.png,,,,,,,,,,,,,4,3,27,3,,,,,302.7107885999999,None,,,,,,,,,,,,,,,,,,,,,,,,,,,,,,303.72022130000005,None,303.72022130000005,None,303.72022130000005,None,303.72022130000005,None,303.72022130000005,None,303.72022130000005,None,303.72022130000005,None,k,1,0.6679364000001442,303.72022130000005,None,,,,,,,,,,,,,10,001,2022_Oct_06_1539,Flanker,2021.2.0,239.43436026588327,
neutral right,0,k,neutral.png,neutral.png,neutral.png,right_arrow.png,neutral.png,neutral.png,neutral.png,,,,,,,,,,,,,4,4,28,5,,,,,304.4041357000001,None,,,,,,,,,,,,,,,,,,,,,,,,,,,,,,305.41353579999986,None,305.41353579999986,None,305.41353579999986,None,305.41353579999986,None,305.41353579999986,None,305.41353579999986,None,305.41353579999986,None,k,1,0.4467774999998255,305.41353579999986,None,,,,,,,,,,,,,10,001,2022_Oct_06_1539,Flanker,2021.2.0,239.43436026588327,
neutral right,0,k,neutral.png,neutral.png,neutral.png,right_arrow.png,neutral.png,neutral.png,neutral.png,,,,,,,,,,,,,4,5,29,5,,,,,305.87244439999995,None,,,,,,,,,,,,,,,,,,,,,,,,,,,,,,306.87741879999976,None,306.87741879999976,None,306.87741879999976,None,306.87741879999976,None,306.87741879999976,None,306.87741879999976,None,306.87741879999976,None,k,1,0.3912751000002572,306.87741879999976,None,,,,,,,,,,,,,10,001,2022_Oct_06_1539,Flanker,2021.2.0,239.43436026588327,
neutral left,0,a,neutral.png,neutral.png,neutral.png,left_arrow.png,neutral.png,neutral.png,neutral.png,,,,,,,,,,,,,5,0,30,4,,,,,307.28620999999976,None,,,,,,,,,,,,,,,,,,,,,,,,,,,,,,308.2958134999999,None,308.2958134999999,None,308.2958134999999,None,308.2958134999999,None,308.2958134999999,None,308.2958134999999,None,308.2958134999999,None,a,1,0.5809479999998075,308.2958134999999,None,,,,,,,,,,,,,10,001,2022_Oct_06_1539,Flanker,2021.2.0,239.43436026588327,
congruent-left.jpg,1,a,left_arrow.png,left_arrow.png,left_arrow.png,left_arrow.png,left_arrow.png,left_arrow.png,left_arrow.png,,,,,,,,,,,,,5,1,31,0,,,,,308.8881827,None,,,,,,,,,,,,,,,,,,,,,,,,,,,,,,309.89732460000005,None,309.89732460000005,None,309.89732460000005,None,309.89732460000005,None,309.89732460000005,None,309.89732460000005,None,309.89732460000005,None,k,0,0.44365149999975984,309.89732460000005,None,,,,,,,,,,,,,10,001,2022_Oct_06_1539,Flanker,2021.2.0,239.43436026588327,
congruent-left.jpg,1,a,left_arrow.png,left_arrow.png,left_arrow.png,left_arrow.png,left_arrow.png,left_arrow.png,left_arrow.png,,,,,,,,,,,,,5,2,32,0,,,,,310.3561215,None,,,,,,,,,,,,,,,,,,,,,,,,,,,,,,311.3657675999998,None,311.3657675999998,None,311.3657675999998,None,311.3657675999998,None,311.3657675999998,None,311.3657675999998,None,311.3657675999998,None,a,1,0.4075563000001239,311.3657675999998,None,,,,,,,,,,,,,10,001,2022_Oct_06_1539,Flanker,2021.2.0,239.43436026588327,
congruent-right.jpg,1,k,right_arrow.png,right_arrow.png,right_arrow.png,right_arrow.png,right_arrow.png,right_arrow.png,right_arrow.png,,,,,,,,,,,,,5,3,33,2,,,,,311.79097619999993,None,,,,,,,,,,,,,,,,,,,,,,,,,,,,,,312.8046988000001,None,312.8046988000001,None,312.8046988000001,None,312.8046988000001,None,312.8046988000001,None,312.8046988000001,None,312.8046988000001,None,k,1,0.3766716999998607,312.8046988000001,None,,,,,,,,,,,,,10,001,2022_Oct_06_1539,Flanker,2021.2.0,239.43436026588327,
congruent-right.jpg,1,k,right_arrow.png,right_arrow.png,right_arrow.png,right_arrow.png,right_arrow.png,right_arrow.png,right_arrow.png,,,,,,,,,,,,,5,4,34,2,,,,,313.19663679999985,None,,,,,,,,,,,,,,,,,,,,,,,,,,,,,,314.21041590000004,None,314.21041590000004,None,314.21041590000004,None,314.21041590000004,None,314.21041590000004,None,314.21041590000004,None,314.21041590000004,None,k,1,0.6431591999999,314.21041590000004,None,,,,,,,,,,,,,10,001,2022_Oct_06_1539,Flanker,2021.2.0,239.43436026588327,
incongruent-right.jpg,0,k,left_arrow.png,left_arrow.png,left_arrow.png,right_arrow.png,left_arrow.png,left_arrow.png,left_arrow.png,,,,,,,,,,,,,5,5,35,3,,,,,314.86945620000006,None,,,,,,,,,,,,,,,,,,,,,,,,,,,,,,315.8789047999999,None,315.8789047999999,None,315.8789047999999,None,315.8789047999999,None,315.8789047999999,None,315.8789047999999,None,315.8789047999999,None,k,1,0.5271428000000924,315.8789047999999,None,,,,,,,,,,,,,10,001,2022_Oct_06_1539,Flanker,2021.2.0,239.43436026588327,
incongruent-right.jpg,0,k,left_arrow.png,left_arrow.png,left_arrow.png,right_arrow.png,left_arrow.png,left_arrow.png,left_arrow.png,,,,,,,,,,,,,6,0,36,3,,,,,316.42124809999996,None,,,,,,,,,,,,,,,,,,,,,,,,,,,,,,317.43053469999995,None,317.43053469999995,None,317.43053469999995,None,317.43053469999995,None,317.43053469999995,None,317.43053469999995,None,317.43053469999995,None,k,1,0.5357087000002139,317.43053469999995,None,,,,,,,,,,,,,10,001,2022_Oct_06_1539,Flanker,2021.2.0,239.43436026588327,
neutral left,0,a,neutral.png,neutral.png,neutral.png,left_arrow.png,neutral.png,neutral.png,neutral.png,,,,,,,,,,,,,6,1,37,4,,,,,317.98129849999987,None,,,,,,,,,,,,,,,,,,,,,,,,,,,,,,318.9902511999999,None,318.9902511999999,None,318.9902511999999,None,318.9902511999999,None,318.9902511999999,None,318.9902511999999,None,318.9902511999999,None,a,1,0.7282473000000209,318.9902511999999,None,,,,,,,,,,,,,10,001,2022_Oct_06_1539,Flanker,2021.2.0,239.43436026588327,
neutral left,0,a,neutral.png,neutral.png,neutral.png,left_arrow.png,neutral.png,neutral.png,neutral.png,,,,,,,,,,,,,6,2,38,4,,,,,319.7329777,None,,,,,,,,,,,,,,,,,,,,,,,,,,,,,,320.738257,None,320.738257,None,320.738257,None,320.738257,None,320.738257,None,320.738257,None,320.738257,None,a,1,0.5081391999997322,320.738257,None,,,,,,,,,,,,,10,001,2022_Oct_06_1539,Flanker,2021.2.0,239.43436026588327,
congruent-left.jpg,1,a,left_arrow.png,left_arrow.png,left_arrow.png,left_arrow.png,left_arrow.png,left_arrow.png,left_arrow.png,,,,,,,,,,,,,6,3,39,0,,,,,321.2635707999998,None,,,,,,,,,,,,,,,,,,,,,,,,,,,,,,322.27743409999994,None,322.27743409999994,None,322.27743409999994,None,322.27743409999994,None,322.27743409999994,None,322.27743409999994,None,322.27743409999994,None,a,1,0.5292640000002393,322.27743409999994,None,,,,,,,,,,,,,10,001,2022_Oct_06_1539,Flanker,2021.2.0,239.43436026588327,
congruent-left.jpg,1,a,left_arrow.png,left_arrow.png,left_arrow.png,left_arrow.png,left_arrow.png,left_arrow.png,left_arrow.png,,,,,,,,,,,,,6,4,40,0,,,,,322.81960630000003,None,,,,,,,,,,,,,,,,,,,,,,,,,,,,,,323.82457320000003,None,323.82457320000003,None,323.82457320000003,None,323.82457320000003,None,323.82457320000003,None,323.82457320000003,None,323.82457320000003,None,a,1,0.5422649000001911,323.82457320000003,None,,,,,,,,,,,,,10,001,2022_Oct_06_1539,Flanker,2021.2.0,239.43436026588327,
incongruent-left.jpg,0,a,right_arrow.png,right_arrow.png,right_arrow.png,left_arrow.png,right_arrow.png,right_arrow.png,right_arrow.png,,,,,,,,,,,,,6,5,41,1,,,,,324.3835481000001,None,,,,,,,,,,,,,,,,,,,,,,,,,,,,,,325.3972168999999,None,325.3972168999999,None,325.3972168999999,None,325.3972168999999,None,325.3972168999999,None,325.3972168999999,None,325.3972168999999,None,a,1,0.5698497000003044,325.3972168999999,None,,,,,,,,,,,,,10,001,2022_Oct_06_1539,Flanker,2021.2.0,239.43436026588327,
neutral left,0,a,neutral.png,neutral.png,neutral.png,left_arrow.png,neutral.png,neutral.png,neutral.png,,,,,,,,,,,,,7,0,42,4,,,,,325.98119339999994,None,,,,,,,,,,,,,,,,,,,,,,,,,,,,,,326.99062589999994,None,326.99062589999994,None,326.99062589999994,None,326.99062589999994,None,326.99062589999994,None,326.99062589999994,None,326.99062589999994,None,a,1,0.5690144000000146,326.99062589999994,None,,,,,,,,,,,,,10,001,2022_Oct_06_1539,Flanker,2021.2.0,239.43436026588327,
incongruent-right.jpg,0,k,left_arrow.png,left_arrow.png,left_arrow.png,right_arrow.png,left_arrow.png,left_arrow.png,left_arrow.png,,,,,,,,,,,,,7,1,43,3,,,,,327.5746138999998,None,,,,,,,,,,,,,,,,,,,,,,,,,,,,,,328.58393339999975,None,328.58393339999975,None,328.58393339999975,None,328.58393339999975,None,328.58393339999975,None,328.58393339999975,None,328.58393339999975,None,k,1,1.6477384999998321,328.58393339999975,None,,,,,,,,,,,,,10,001,2022_Oct_06_1539,Flanker,2021.2.0,239.43436026588327,
congruent-right.jpg,1,k,right_arrow.png,right_arrow.png,right_arrow.png,right_arrow.png,right_arrow.png,right_arrow.png,right_arrow.png,,,,,,,,,,,,,7,2,44,2,,,,,330.2442197999999,None,,,,,,,,,,,,,,,,,,,,,,,,,,,,,,331.25350679999974,None,331.25350679999974,None,331.25350679999974,None,331.25350679999974,None,331.25350679999974,None,331.25350679999974,None,331.25350679999974,None,k,1,0.5223117999998976,331.25350679999974,None,,,,,,,,,,,,,10,001,2022_Oct_06_1539,Flanker,2021.2.0,239.43436026588327,
incongruent-right.jpg,0,k,left_arrow.png,left_arrow.png,left_arrow.png,right_arrow.png,left_arrow.png,left_arrow.png,left_arrow.png,,,,,,,,,,,,,7,3,45,3,,,,,331.7874489000001,None,,,,,,,,,,,,,,,,,,,,,,,,,,,,,,332.79671229999985,None,332.79671229999985,None,332.79671229999985,None,332.79671229999985,None,332.79671229999985,None,332.79671229999985,None,332.79671229999985,None,k,1,0.5313296999997874,332.79671229999985,None,,,,,,,,,,,,,10,001,2022_Oct_06_1539,Flanker,2021.2.0,239.43436026588327,
incongruent-left.jpg,0,a,right_arrow.png,right_arrow.png,right_arrow.png,left_arrow.png,right_arrow.png,right_arrow.png,right_arrow.png,,,,,,,,,,,,,7,4,46,1,,,,,333.3391610999997,None,,,,,,,,,,,,,,,,,,,,,,,,,,,,,,334.3486127000001,None,334.3486127000001,None,334.3486127000001,None,334.3486127000001,None,334.3486127000001,None,334.3486127000001,None,334.3486127000001,None,a,1,0.69182869999986,334.3486127000001,None,,,,,,,,,,,,,10,001,2022_Oct_06_1539,Flanker,2021.2.0,239.43436026588327,
incongruent-left.jpg,0,a,right_arrow.png,right_arrow.png,right_arrow.png,left_arrow.png,right_arrow.png,right_arrow.png,right_arrow.png,,,,,,,,,,,,,7,5,47,1,,,,,335.05743440000015,None,,,,,,,,,,,,,,,,,,,,,,,,,,,,,,336.07519809999985,None,336.07519809999985,None,336.07519809999985,None,336.07519809999985,None,336.07519809999985,None,336.07519809999985,None,336.07519809999985,None,a,1,0.7335901999999805,336.07519809999985,None,,,,,,,,,,,,,10,001,2022_Oct_06_1539,Flanker,2021.2.0,239.43436026588327,
,,,,,,,,,,,,,,,,,,,,,,,,,,,,,,,,,,,,,,,,,,,,,,,,,,,,,,,,,,,,,,,,,,,,,,,,,,,,,,,,336.83443799999986,None,space,1.6223129999998491,336.83443799999986,None,,,,,,,10,001,2022_Oct_06_1539,Flanker,2021.2.0,239.43436026588327,
,,,,,,,,,,,,,,,,,,,,,,,,,,,,,,,,,,,,,,,,,,,,,,,,,,,,,,,,,,,,,,,,,,,,,,,,,,,,,,,,,,,,,,338.4695220999997,None,space,11.924844199999825,338.4695220999997,None,10,001,2022_Oct_06_1539,Flanker,2021.2.0,239.43436026588327,
