images,congruentcy,corrAns,arrow_1,arrow_2,arrow_3,target,arrow_5,arrow_6,arrow_7,practice.thisRepN,practice.thisTrialN,practice.thisN,practice.thisIndex,trials.thisRepN,trials.thisTrialN,trials.thisN,trials.thisIndex,trials_2.thisRepN,trials_2.thisTrialN,trials_2.thisN,trials_2.thisIndex,trials_3.thisRepN,trials_3.thisTrialN,trials_3.thisN,trials_3.thisIndex,instr_text.started,instr_text.stopped,instr_resp.keys,instr_resp.rt,polygon.started,polygon.stopped,arrow1_.started,arrow1_.stopped,arrow2_.started,arrow2_.stopped,arrow3_.started,arrow3_.stopped,target_p.started,target_p.stopped,arrow5_.started,arrow5_.stopped,arrow6_.started,arrow6_.stopped,arrow7_.started,arrow7_.stopped,key_resp_P.keys,key_resp_P.corr,key_resp_P.rt,key_resp_P.started,key_resp_P.stopped,text_2.started,text_2.stopped,text_3.started,text_3.stopped,text_4.started,text_4.stopped,key_resp_2.keys,key_resp_2.rt,key_resp_2.started,key_resp_2.stopped,arrow1.started,arrow1.stopped,arrow2.started,arrow2.stopped,arrow3.started,arrow3.stopped,target_t.started,target_t.stopped,arrow5.started,arrow5.stopped,arrow6.started,arrow6.stopped,arrow7.started,arrow7.stopped,key_resp.keys,key_resp.corr,key_resp.rt,key_resp.started,key_resp.stopped,text_5.started,text_5.stopped,key_resp_3.keys,key_resp_3.rt,key_resp_3.started,key_resp_3.stopped,text_6.started,text_6.stopped,key_resp_4.keys,key_resp_4.rt,key_resp_4.started,key_resp_4.stopped,participant,session,date,expName,psychopyVersion,frameRate,
,,,,,,,,,,,,,,,,,,,,,,,,,,18.72104330000002,None,space,12.7165418999939,,,,,,,,,,,,,,,,,,,,,,,,,,,,,,,,,,,,,,,,,,,,,,,,,,,,,,,,,,,,,,,11,001,2022_Oct_07_1723,Flanker,2021.2.0,239.78400254483947,
congruent-right.jpg,1,k,right_arrow.png,right_arrow.png,right_arrow.png,right_arrow.png,right_arrow.png,right_arrow.png,right_arrow.png,0,0,0,2,,,,,,,,,,,,,,,,,31.487547700002324,None,32.505439500004286,None,32.505439500004286,None,32.505439500004286,None,32.505439500004286,None,32.505439500004286,None,32.505439500004286,None,32.505439500004286,None,k,1,0.5663904000102775,32.505439500004286,None,33.09756340000604,None,,,,,,,,,,,,,,,,,,,,,,,,,,,,,,,,,,,,,,,,11,001,2022_Oct_07_1723,Flanker,2021.2.0,239.78400254483947,
congruent-left.jpg,1,a,left_arrow.png,left_arrow.png,left_arrow.png,left_arrow.png,left_arrow.png,left_arrow.png,left_arrow.png,0,1,1,0,,,,,,,,,,,,,,,,,34.59109289999469,None,35.604712400003336,None,35.604712400003336,None,35.604712400003336,None,35.604712400003336,None,35.604712400003336,None,35.604712400003336,None,35.604712400003336,None,a,1,0.5235798999929102,35.604712400003336,None,36.146839199995156,None,,,,,,,,,,,,,,,,,,,,,,,,,,,,,,,,,,,,,,,,11,001,2022_Oct_07_1723,Flanker,2021.2.0,239.78400254483947,
incongruent-left.jpg,0,a,right_arrow.png,right_arrow.png,right_arrow.png,left_arrow.png,right_arrow.png,right_arrow.png,right_arrow.png,0,2,2,1,,,,,,,,,,,,,,,,,37.6482440999971,None,38.66181789999246,None,38.66181789999246,None,38.66181789999246,None,38.66181789999246,None,38.66181789999246,None,38.66181789999246,None,38.66181789999246,None,k,0,1.5630135999963386,38.66181789999246,None,40.2426165999932,None,,,,,,,,,,,,,,,,,,,,,,,,,,,,,,,,,,,,,,,,11,001,2022_Oct_07_1723,Flanker,2021.2.0,239.78400254483947,
incongruent-left.jpg,0,a,right_arrow.png,right_arrow.png,right_arrow.png,left_arrow.png,right_arrow.png,right_arrow.png,right_arrow.png,0,3,3,1,,,,,,,,,,,,,,,,,41.74421400000574,None,42.75364070000069,None,42.75364070000069,None,42.75364070000069,None,42.75364070000069,None,42.75364070000069,None,42.75364070000069,None,42.75364070000069,None,a,1,1.5357412000012118,42.75364070000069,None,44.30539550000685,None,,,,,,,,,,,,,,,,,,,,,,,,,,,,,,,,,,,,,,,,11,001,2022_Oct_07_1723,Flanker,2021.2.0,239.78400254483947,
incongruent-right.jpg,0,k,left_arrow.png,left_arrow.png,left_arrow.png,right_arrow.png,left_arrow.png,left_arrow.png,left_arrow.png,0,4,4,3,,,,,,,,,,,,,,,,,45.81102779999492,None,46.81636840000283,None,46.81636840000283,None,46.81636840000283,None,46.81636840000283,None,46.81636840000283,None,46.81636840000283,None,46.81636840000283,None,k,1,0.6335324999963632,46.81636840000283,None,47.466962499995134,None,,,,,,,,,,,,,,,,,,,,,,,,,,,,,,,,,,,,,,,,11,001,2022_Oct_07_1723,Flanker,2021.2.0,239.78400254483947,
congruent-left.jpg,1,a,left_arrow.png,left_arrow.png,left_arrow.png,left_arrow.png,left_arrow.png,left_arrow.png,left_arrow.png,0,5,5,0,,,,,,,,,,,,,,,,,48.972729999994044,None,49.97796639999433,None,49.97796639999433,None,49.97796639999433,None,49.97796639999433,None,49.97796639999433,None,49.97796639999433,None,49.97796639999433,None,a,1,0.4083163000032073,49.97796639999433,None,50.40350450000551,None,,,,,,,,,,,,,,,,,,,,,,,,,,,,,,,,,,,,,,,,11,001,2022_Oct_07_1723,Flanker,2021.2.0,239.78400254483947,
incongruent-left.jpg,0,a,right_arrow.png,right_arrow.png,right_arrow.png,left_arrow.png,right_arrow.png,right_arrow.png,right_arrow.png,1,0,6,1,,,,,,,,,,,,,,,,,51.90917729999637,None,52.91857639999944,None,52.91857639999944,None,52.91857639999944,None,52.91857639999944,None,52.91857639999944,None,52.91857639999944,None,52.91857639999944,None,a,1,0.5880495000019437,52.91857639999944,None,53.51923340000212,None,,,,,,,,,,,,,,,,,,,,,,,,,,,,,,,,,,,,,,,,11,001,2022_Oct_07_1723,Flanker,2021.2.0,239.78400254483947,
incongruent-left.jpg,0,a,right_arrow.png,right_arrow.png,right_arrow.png,left_arrow.png,right_arrow.png,right_arrow.png,right_arrow.png,1,1,7,1,,,,,,,,,,,,,,,,,55.02081380000163,None,56.034399900003336,None,56.034399900003336,None,56.034399900003336,None,56.034399900003336,None,56.034399900003336,None,56.034399900003336,None,56.034399900003336,None,a,1,0.5286530000012135,56.034399900003336,None,56.57662170000549,None,,,,,,,,,,,,,,,,,,,,,,,,,,,,,,,,,,,,,,,,11,001,2022_Oct_07_1723,Flanker,2021.2.0,239.78400254483947,
neutral right,0,k,neutral.png,neutral.png,neutral.png,right_arrow.png,neutral.png,neutral.png,neutral.png,1,2,8,5,,,,,,,,,,,,,,,,,58.07823080000526,None,59.09601730000577,None,59.09601730000577,None,59.09601730000577,None,59.09601730000577,None,59.09601730000577,None,59.09601730000577,None,59.09601730000577,None,k,1,0.36341859999811277,59.09601730000577,None,59.47137030000158,None,,,,,,,,,,,,,,,,,,,,,,,,,,,,,,,,,,,,,,,,11,001,2022_Oct_07_1723,Flanker,2021.2.0,239.78400254483947,
congruent-right.jpg,1,k,right_arrow.png,right_arrow.png,right_arrow.png,right_arrow.png,right_arrow.png,right_arrow.png,right_arrow.png,1,3,9,2,,,,,,,,,,,,,,,,,60.97299419999763,None,61.982342999996035,None,61.982342999996035,None,61.982342999996035,None,61.982342999996035,None,61.982342999996035,None,61.982342999996035,None,61.982342999996035,None,k,1,0.5495231999957468,61.982342999996035,None,62.549852900003316,None,,,,,,,,,,,,,,,,,,,,,,,,,,,,,,,,,,,,,,,,11,001,2022_Oct_07_1723,Flanker,2021.2.0,239.78400254483947,
neutral right,0,k,neutral.png,neutral.png,neutral.png,right_arrow.png,neutral.png,neutral.png,neutral.png,1,4,10,5,,,,,,,,,,,,,,,,,64.0512321999995,None,65.06063469999935,None,65.06063469999935,None,65.06063469999935,None,65.06063469999935,None,65.06063469999935,None,65.06063469999935,None,65.06063469999935,None,k,1,0.4156434999895282,65.06063469999935,None,65.4944228999957,None,,,,,,,,,,,,,,,,,,,,,,,,,,,,,,,,,,,,,,,,11,001,2022_Oct_07_1723,Flanker,2021.2.0,239.78400254483947,
neutral left,0,a,neutral.png,neutral.png,neutral.png,left_arrow.png,neutral.png,neutral.png,neutral.png,1,5,11,4,,,,,,,,,,,,,,,,,66.9960155000008,None,68.00544749999244,None,68.00544749999244,None,68.00544749999244,None,68.00544749999244,None,68.00544749999244,None,68.00544749999244,None,68.00544749999244,None,a,1,0.43122300000686664,68.00544749999244,None,68.45592720000423,None,,,,,,,,,,,,,,,,,,,,,,,,,,,,,,,,,,,,,,,,11,001,2022_Oct_07_1723,Flanker,2021.2.0,239.78400254483947,
congruent-left.jpg,1,a,left_arrow.png,left_arrow.png,left_arrow.png,left_arrow.png,left_arrow.png,left_arrow.png,left_arrow.png,2,0,12,0,,,,,,,,,,,,,,,,,69.95752169999469,None,70.96688370000629,None,70.96688370000629,None,70.96688370000629,None,70.96688370000629,None,70.96688370000629,None,70.96688370000629,None,70.96688370000629,None,a,1,0.42219240000122227,70.96688370000629,None,71.40071739999985,None,,,,,,,,,,,,,,,,,,,,,,,,,,,,,,,,,,,,,,,,11,001,2022_Oct_07_1723,Flanker,2021.2.0,239.78400254483947,
neutral right,0,k,neutral.png,neutral.png,neutral.png,right_arrow.png,neutral.png,neutral.png,neutral.png,2,1,13,5,,,,,,,,,,,,,,,,,72.90648639999563,None,73.91179739999643,None,73.91179739999643,None,73.91179739999643,None,73.91179739999643,None,73.91179739999643,None,73.91179739999643,None,73.91179739999643,None,k,1,0.3819906999997329,73.91179739999643,None,74.31212669999513,None,,,,,,,,,,,,,,,,,,,,,,,,,,,,,,,,,,,,,,,,11,001,2022_Oct_07_1723,Flanker,2021.2.0,239.78400254483947,
congruent-right.jpg,1,k,right_arrow.png,right_arrow.png,right_arrow.png,right_arrow.png,right_arrow.png,right_arrow.png,right_arrow.png,2,2,14,2,,,,,,,,,,,,,,,,,75.81372310000006,None,76.82727850000083,None,76.82727850000083,None,76.82727850000083,None,76.82727850000083,None,76.82727850000083,None,76.82727850000083,None,76.82727850000083,None,k,1,0.3866194000001997,76.82727850000083,None,77.22772640000039,None,,,,,,,,,,,,,,,,,,,,,,,,,,,,,,,,,,,,,,,,11,001,2022_Oct_07_1723,Flanker,2021.2.0,239.78400254483947,
congruent-right.jpg,1,k,right_arrow.png,right_arrow.png,right_arrow.png,right_arrow.png,right_arrow.png,right_arrow.png,right_arrow.png,2,3,15,2,,,,,,,,,,,,,,,,,78.73347960000683,None,79.7428743000055,None,79.7428743000055,None,79.7428743000055,None,79.7428743000055,None,79.7428743000055,None,79.7428743000055,None,79.7428743000055,None,k,1,0.42340040000271983,79.7428743000055,None,80.1850029000052,None,,,,,,,,,,,,,,,,,,,,,,,,,,,,,,,,,,,,,,,,11,001,2022_Oct_07_1723,Flanker,2021.2.0,239.78400254483947,
neutral right,0,k,neutral.png,neutral.png,neutral.png,right_arrow.png,neutral.png,neutral.png,neutral.png,2,4,16,5,,,,,,,,,,,,,,,,,81.69078699999955,None,82.70017110000481,None,82.70017110000481,None,82.70017110000481,None,82.70017110000481,None,82.70017110000481,None,82.70017110000481,None,82.70017110000481,None,k,1,0.4105146999936551,82.70017110000481,None,83.12563120000414,None,,,,,,,,,,,,,,,,,,,,,,,,,,,,,,,,,,,,,,,,11,001,2022_Oct_07_1723,Flanker,2021.2.0,239.78400254483947,
incongruent-right.jpg,0,k,left_arrow.png,left_arrow.png,left_arrow.png,right_arrow.png,left_arrow.png,left_arrow.png,left_arrow.png,2,5,17,3,,,,,,,,,,,,,,,,,84.63156120000349,None,85.63663160000579,None,85.63663160000579,None,85.63663160000579,None,85.63663160000579,None,85.63663160000579,None,85.63663160000579,None,85.63663160000579,None,k,1,0.4584603999974206,85.63663160000579,None,86.11214680000558,None,,,,,,,,,,,,,,,,,,,,,,,,,,,,,,,,,,,,,,,,11,001,2022_Oct_07_1723,Flanker,2021.2.0,239.78400254483947,
incongruent-right.jpg,0,k,left_arrow.png,left_arrow.png,left_arrow.png,right_arrow.png,left_arrow.png,left_arrow.png,left_arrow.png,3,0,18,3,,,,,,,,,,,,,,,,,87.61792049999349,None,88.62733069999376,None,88.62733069999376,None,88.62733069999376,None,88.62733069999376,None,88.62733069999376,None,88.62733069999376,None,88.62733069999376,None,k,1,0.5002549999917392,88.62733069999376,None,89.14454039999691,None,,,,,,,,,,,,,,,,,,,,,,,,,,,,,,,,,,,,,,,,11,001,2022_Oct_07_1723,Flanker,2021.2.0,239.78400254483947,
incongruent-right.jpg,0,k,left_arrow.png,left_arrow.png,left_arrow.png,right_arrow.png,left_arrow.png,left_arrow.png,left_arrow.png,3,1,19,3,,,,,,,,,,,,,,,,,90.64613579999423,None,91.65598809999938,None,91.65598809999938,None,91.65598809999938,None,91.65598809999938,None,91.65598809999938,None,91.65598809999938,None,91.65598809999938,None,k,1,0.4321634000079939,91.65598809999938,None,92.10600699999486,None,,,,,,,,,,,,,,,,,,,,,,,,,,,,,,,,,,,,,,,,11,001,2022_Oct_07_1723,Flanker,2021.2.0,239.78400254483947,
neutral left,0,a,neutral.png,neutral.png,neutral.png,left_arrow.png,neutral.png,neutral.png,neutral.png,3,2,20,4,,,,,,,,,,,,,,,,,93.61176519999572,None,94.62140580000414,None,94.62140580000414,None,94.62140580000414,None,94.62140580000414,None,94.62140580000414,None,94.62140580000414,None,94.62140580000414,None,a,1,0.39493499998934567,94.62140580000414,None,95.02995500000543,None,,,,,,,,,,,,,,,,,,,,,,,,,,,,,,,,,,,,,,,,11,001,2022_Oct_07_1723,Flanker,2021.2.0,239.78400254483947,
congruent-left.jpg,1,a,left_arrow.png,left_arrow.png,left_arrow.png,left_arrow.png,left_arrow.png,left_arrow.png,left_arrow.png,3,3,21,0,,,,,,,,,,,,,,,,,96.53153209999437,None,97.54092020000098,None,97.54092020000098,None,97.54092020000098,None,97.54092020000098,None,97.54092020000098,None,97.54092020000098,None,97.54092020000098,None,a,1,0.46779399999650195,97.54092020000098,None,98.02487839999958,None,,,,,,,,,,,,,,,,,,,,,,,,,,,,,,,,,,,,,,,,11,001,2022_Oct_07_1723,Flanker,2021.2.0,239.78400254483947,
neutral left,0,a,neutral.png,neutral.png,neutral.png,left_arrow.png,neutral.png,neutral.png,neutral.png,3,4,22,4,,,,,,,,,,,,,,,,,99.53054779999366,None,100.54002539999783,None,100.54002539999783,None,100.54002539999783,None,100.54002539999783,None,100.54002539999783,None,100.54002539999783,None,100.54002539999783,None,a,1,0.4050941000023158,100.54002539999783,None,100.95753869999317,None,,,,,,,,,,,,,,,,,,,,,,,,,,,,,,,,,,,,,,,,11,001,2022_Oct_07_1723,Flanker,2021.2.0,239.78400254483947,
neutral left,0,a,neutral.png,neutral.png,neutral.png,left_arrow.png,neutral.png,neutral.png,neutral.png,3,5,23,4,,,,,,,,,,,,,,,,,102.46282800000336,None,103.46804320000228,None,103.46804320000228,None,103.46804320000228,None,103.46804320000228,None,103.46804320000228,None,103.46804320000228,None,103.46804320000228,None,a,1,0.3654627999931108,103.46804320000228,None,103.85179669999343,None,,,,,,,,,,,,,,,,,,,,,,,,,,,,,,,,,,,,,,,,11,001,2022_Oct_07_1723,Flanker,2021.2.0,239.78400254483947,
,,,,,,,,,,,,,,,,,,,,,,,,,,,,,,,,,,,,,,,,,,,,,,,,,,,,,105.37421660000109,None,107.359704100003,None,space,1.7385348999960115,107.359704100003,None,,,,,,,,,,,,,,,,,,,,,,,,,,,,,,,,11,001,2022_Oct_07_1723,Flanker,2021.2.0,239.78400254483947,
congruent-left.jpg,1,a,left_arrow.png,left_arrow.png,left_arrow.png,left_arrow.png,left_arrow.png,left_arrow.png,left_arrow.png,,,,,0,0,0,0,,,,,,,,,,,,,109.11993030000303,None,,,,,,,,,,,,,,,,,,,,,,,,,,,,,,110.12510170000314,None,110.12510170000314,None,110.12510170000314,None,110.12510170000314,None,110.12510170000314,None,110.12510170000314,None,110.12510170000314,None,a,1,0.4693016999954125,110.12510170000314,None,,,,,,,,,,,,,11,001,2022_Oct_07_1723,Flanker,2021.2.0,239.78400254483947,
congruent-right.jpg,1,k,right_arrow.png,right_arrow.png,right_arrow.png,right_arrow.png,right_arrow.png,right_arrow.png,right_arrow.png,,,,,0,1,1,2,,,,,,,,,,,,,110.6089326999936,None,,,,,,,,,,,,,,,,,,,,,,,,,,,,,,111.6225165000069,None,111.6225165000069,None,111.6225165000069,None,111.6225165000069,None,111.6225165000069,None,111.6225165000069,None,111.6225165000069,None,k,1,0.4521398999931989,111.6225165000069,None,,,,,,,,,,,,,11,001,2022_Oct_07_1723,Flanker,2021.2.0,239.78400254483947,
congruent-right.jpg,1,k,right_arrow.png,right_arrow.png,right_arrow.png,right_arrow.png,right_arrow.png,right_arrow.png,right_arrow.png,,,,,0,2,2,2,,,,,,,,,,,,,112.08967719999782,None,,,,,,,,,,,,,,,,,,,,,,,,,,,,,,113.10325220000232,None,113.10325220000232,None,113.10325220000232,None,113.10325220000232,None,113.10325220000232,None,113.10325220000232,None,113.10325220000232,None,k,1,0.483587599999737,113.10325220000232,None,,,,,,,,,,,,,11,001,2022_Oct_07_1723,Flanker,2021.2.0,239.78400254483947,
incongruent-left.jpg,0,a,right_arrow.png,right_arrow.png,right_arrow.png,left_arrow.png,right_arrow.png,right_arrow.png,right_arrow.png,,,,,0,3,3,1,,,,,,,,,,,,,113.60378000000492,None,,,,,,,,,,,,,,,,,,,,,,,,,,,,,,114.62153999999282,None,114.62153999999282,None,114.62153999999282,None,114.62153999999282,None,114.62153999999282,None,114.62153999999282,None,114.62153999999282,None,a,1,0.3974836999987019,114.62153999999282,None,,,,,,,,,,,,,11,001,2022_Oct_07_1723,Flanker,2021.2.0,239.78400254483947,
congruent-left.jpg,1,a,left_arrow.png,left_arrow.png,left_arrow.png,left_arrow.png,left_arrow.png,left_arrow.png,left_arrow.png,,,,,0,4,4,0,,,,,,,,,,,,,115.03037449999829,None,,,,,,,,,,,,,,,,,,,,,,,,,,,,,,116.04388800000015,None,116.04388800000015,None,116.04388800000015,None,116.04388800000015,None,116.04388800000015,None,116.04388800000015,None,116.04388800000015,None,a,1,0.41532859999279026,116.04388800000015,None,,,,,,,,,,,,,11,001,2022_Oct_07_1723,Flanker,2021.2.0,239.78400254483947,
incongruent-left.jpg,0,a,right_arrow.png,right_arrow.png,right_arrow.png,left_arrow.png,right_arrow.png,right_arrow.png,right_arrow.png,,,,,0,5,5,1,,,,,,,,,,,,,116.47797700000228,None,,,,,,,,,,,,,,,,,,,,,,,,,,,,,,117.49122680000437,None,117.49122680000437,None,117.49122680000437,None,117.49122680000437,None,117.49122680000437,None,117.49122680000437,None,117.49122680000437,None,a,1,0.4482150000112597,117.49122680000437,None,,,,,,,,,,,,,11,001,2022_Oct_07_1723,Flanker,2021.2.0,239.78400254483947,
incongruent-left.jpg,0,a,right_arrow.png,right_arrow.png,right_arrow.png,left_arrow.png,right_arrow.png,right_arrow.png,right_arrow.png,,,,,1,0,6,1,,,,,,,,,,,,,117.9584712999931,None,,,,,,,,,,,,,,,,,,,,,,,,,,,,,,118.9678300999949,None,118.9678300999949,None,118.9678300999949,None,118.9678300999949,None,118.9678300999949,None,118.9678300999949,None,118.9678300999949,None,a,1,0.45181610000145156,118.9678300999949,None,,,,,,,,,,,,,11,001,2022_Oct_07_1723,Flanker,2021.2.0,239.78400254483947,
congruent-right.jpg,1,k,right_arrow.png,right_arrow.png,right_arrow.png,right_arrow.png,right_arrow.png,right_arrow.png,right_arrow.png,,,,,1,1,7,2,,,,,,,,,,,,,119.43512829999963,None,,,,,,,,,,,,,,,,,,,,,,,,,,,,,,120.44853989999683,None,120.44853989999683,None,120.44853989999683,None,120.44853989999683,None,120.44853989999683,None,120.44853989999683,None,120.44853989999683,None,k,1,0.419310500001302,120.44853989999683,None,,,,,,,,,,,,,11,001,2022_Oct_07_1723,Flanker,2021.2.0,239.78400254483947,
congruent-right.jpg,1,k,right_arrow.png,right_arrow.png,right_arrow.png,right_arrow.png,right_arrow.png,right_arrow.png,right_arrow.png,,,,,1,2,8,2,,,,,,,,,,,,,120.88234450000164,None,,,,,,,,,,,,,,,,,,,,,,,,,,,,,,121.90023780000047,None,121.90023780000047,None,121.90023780000047,None,121.90023780000047,None,121.90023780000047,None,121.90023780000047,None,121.90023780000047,None,k,1,0.4638044000021182,121.90023780000047,None,,,,,,,,,,,,,11,001,2022_Oct_07_1723,Flanker,2021.2.0,239.78400254483947,
congruent-left.jpg,1,a,left_arrow.png,left_arrow.png,left_arrow.png,left_arrow.png,left_arrow.png,left_arrow.png,left_arrow.png,,,,,1,3,9,0,,,,,,,,,,,,,122.37574220000533,None,,,,,,,,,,,,,,,,,,,,,,,,,,,,,,123.3850112999935,None,123.3850112999935,None,123.3850112999935,None,123.3850112999935,None,123.3850112999935,None,123.3850112999935,None,123.3850112999935,None,a,1,0.40322829999786336,123.3850112999935,None,,,,,,,,,,,,,11,001,2022_Oct_07_1723,Flanker,2021.2.0,239.78400254483947,
neutral right,0,k,neutral.png,neutral.png,neutral.png,right_arrow.png,neutral.png,neutral.png,neutral.png,,,,,1,4,10,5,,,,,,,,,,,,,123.80234670000209,None,,,,,,,,,,,,,,,,,,,,,,,,,,,,,,124.81992290000198,None,124.81992290000198,None,124.81992290000198,None,124.81992290000198,None,124.81992290000198,None,124.81992290000198,None,124.81992290000198,None,k,1,0.42469859999255277,124.81992290000198,None,,,,,,,,,,,,,11,001,2022_Oct_07_1723,Flanker,2021.2.0,239.78400254483947,
neutral right,0,k,neutral.png,neutral.png,neutral.png,right_arrow.png,neutral.png,neutral.png,neutral.png,,,,,1,5,11,5,,,,,,,,,,,,,125.2621255999984,None,,,,,,,,,,,,,,,,,,,,,,,,,,,,,,126.2757799999963,None,126.2757799999963,None,126.2757799999963,None,126.2757799999963,None,126.2757799999963,None,126.2757799999963,None,126.2757799999963,None,k,1,0.4169963000022108,126.2757799999963,None,,,,,,,,,,,,,11,001,2022_Oct_07_1723,Flanker,2021.2.0,239.78400254483947,
incongruent-right.jpg,0,k,left_arrow.png,left_arrow.png,left_arrow.png,right_arrow.png,left_arrow.png,left_arrow.png,left_arrow.png,,,,,2,0,12,3,,,,,,,,,,,,,126.70942719999584,None,,,,,,,,,,,,,,,,,,,,,,,,,,,,,,127.72722309999517,None,127.72722309999517,None,127.72722309999517,None,127.72722309999517,None,127.72722309999517,None,127.72722309999517,None,127.72722309999517,None,k,1,0.5258518999908119,127.72722309999517,None,,,,,,,,,,,,,11,001,2022_Oct_07_1723,Flanker,2021.2.0,239.78400254483947,
incongruent-left.jpg,0,a,right_arrow.png,right_arrow.png,right_arrow.png,left_arrow.png,right_arrow.png,right_arrow.png,right_arrow.png,,,,,2,1,13,1,,,,,,,,,,,,,128.26955409999937,None,,,,,,,,,,,,,,,,,,,,,,,,,,,,,,129.28305539999565,None,129.28305539999565,None,129.28305539999565,None,129.28305539999565,None,129.28305539999565,None,129.28305539999565,None,129.28305539999565,None,a,1,0.4021455000038259,129.28305539999565,None,,,,,,,,,,,,,11,001,2022_Oct_07_1723,Flanker,2021.2.0,239.78400254483947,
congruent-right.jpg,1,k,right_arrow.png,right_arrow.png,right_arrow.png,right_arrow.png,right_arrow.png,right_arrow.png,right_arrow.png,,,,,2,2,14,2,,,,,,,,,,,,,129.70023689999653,None,,,,,,,,,,,,,,,,,,,,,,,,,,,,,,130.7136693000066,None,130.7136693000066,None,130.7136693000066,None,130.7136693000066,None,130.7136693000066,None,130.7136693000066,None,130.7136693000066,None,k,1,0.3795715000014752,130.7136693000066,None,,,,,,,,,,,,,11,001,2022_Oct_07_1723,Flanker,2021.2.0,239.78400254483947,
neutral right,0,k,neutral.png,neutral.png,neutral.png,right_arrow.png,neutral.png,neutral.png,neutral.png,,,,,2,3,15,5,,,,,,,,,,,,,131.10590179999417,None,,,,,,,,,,,,,,,,,,,,,,,,,,,,,,132.11938390000432,None,132.11938390000432,None,132.11938390000432,None,132.11938390000432,None,132.11938390000432,None,132.11938390000432,None,132.11938390000432,None,k,1,0.3900547000084771,132.11938390000432,None,,,,,,,,,,,,,11,001,2022_Oct_07_1723,Flanker,2021.2.0,239.78400254483947,
congruent-right.jpg,1,k,right_arrow.png,right_arrow.png,right_arrow.png,right_arrow.png,right_arrow.png,right_arrow.png,right_arrow.png,,,,,2,4,16,2,,,,,,,,,,,,,132.5281876999943,None,,,,,,,,,,,,,,,,,,,,,,,,,,,,,,133.54173480000463,None,133.54173480000463,None,133.54173480000463,None,133.54173480000463,None,133.54173480000463,None,133.54173480000463,None,133.54173480000463,None,k,1,0.36805180000374094,133.54173480000463,None,,,,,,,,,,,,,11,001,2022_Oct_07_1723,Flanker,2021.2.0,239.78400254483947,
incongruent-right.jpg,0,k,left_arrow.png,left_arrow.png,left_arrow.png,right_arrow.png,left_arrow.png,left_arrow.png,left_arrow.png,,,,,2,5,17,3,,,,,,,,,,,,,133.9254890000011,None,,,,,,,,,,,,,,,,,,,,,,,,,,,,,,134.93910909999977,None,134.93910909999977,None,134.93910909999977,None,134.93910909999977,None,134.93910909999977,None,134.93910909999977,None,134.93910909999977,None,k,1,0.46687309999833815,134.93910909999977,None,,,,,,,,,,,,,11,001,2022_Oct_07_1723,Flanker,2021.2.0,239.78400254483947,
neutral left,0,a,neutral.png,neutral.png,neutral.png,left_arrow.png,neutral.png,neutral.png,neutral.png,,,,,3,0,18,4,,,,,,,,,,,,,135.42298040000605,None,,,,,,,,,,,,,,,,,,,,,,,,,,,,,,136.43238729999575,None,136.43238729999575,None,136.43238729999575,None,136.43238729999575,None,136.43238729999575,None,136.43238729999575,None,136.43238729999575,None,a,1,0.38162489999376703,136.43238729999575,None,,,,,,,,,,,,,11,001,2022_Oct_07_1723,Flanker,2021.2.0,239.78400254483947,
incongruent-right.jpg,0,k,left_arrow.png,left_arrow.png,left_arrow.png,right_arrow.png,left_arrow.png,left_arrow.png,left_arrow.png,,,,,3,1,19,3,,,,,,,,,,,,,136.83289890000015,None,,,,,,,,,,,,,,,,,,,,,,,,,,,,,,137.8421282000054,None,137.8421282000054,None,137.8421282000054,None,137.8421282000054,None,137.8421282000054,None,137.8421282000054,None,137.8421282000054,None,k,1,0.4441642000019783,137.8421282000054,None,,,,,,,,,,,,,11,001,2022_Oct_07_1723,Flanker,2021.2.0,239.78400254483947,
incongruent-right.jpg,0,k,left_arrow.png,left_arrow.png,left_arrow.png,right_arrow.png,left_arrow.png,left_arrow.png,left_arrow.png,,,,,3,2,20,3,,,,,,,,,,,,,138.30084250000073,None,,,,,,,,,,,,,,,,,,,,,,,,,,,,,,139.31038249999983,None,139.31038249999983,None,139.31038249999983,None,139.31038249999983,None,139.31038249999983,None,139.31038249999983,None,139.31038249999983,None,k,1,0.4320577000034973,139.31038249999983,None,,,,,,,,,,,,,11,001,2022_Oct_07_1723,Flanker,2021.2.0,239.78400254483947,
neutral left,0,a,neutral.png,neutral.png,neutral.png,left_arrow.png,neutral.png,neutral.png,neutral.png,,,,,3,3,21,4,,,,,,,,,,,,,139.76080150000053,None,,,,,,,,,,,,,,,,,,,,,,,,,,,,,,140.77012079999258,None,140.77012079999258,None,140.77012079999258,None,140.77012079999258,None,140.77012079999258,None,140.77012079999258,None,140.77012079999258,None,a,1,0.4044837999972515,140.77012079999258,None,,,,,,,,,,,,,11,001,2022_Oct_07_1723,Flanker,2021.2.0,239.78400254483947,
neutral right,0,k,neutral.png,neutral.png,neutral.png,right_arrow.png,neutral.png,neutral.png,neutral.png,,,,,3,4,22,5,,,,,,,,,,,,,141.18761360000644,None,,,,,,,,,,,,,,,,,,,,,,,,,,,,,,142.19676019999315,None,142.19676019999315,None,142.19676019999315,None,142.19676019999315,None,142.19676019999315,None,142.19676019999315,None,142.19676019999315,None,k,1,0.3700565000035567,142.19676019999315,None,,,,,,,,,,,,,11,001,2022_Oct_07_1723,Flanker,2021.2.0,239.78400254483947,
congruent-right.jpg,1,k,right_arrow.png,right_arrow.png,right_arrow.png,right_arrow.png,right_arrow.png,right_arrow.png,right_arrow.png,,,,,3,5,23,2,,,,,,,,,,,,,142.5803753999935,None,,,,,,,,,,,,,,,,,,,,,,,,,,,,,,143.59394750000502,None,143.59394750000502,None,143.59394750000502,None,143.59394750000502,None,143.59394750000502,None,143.59394750000502,None,143.59394750000502,None,k,1,0.40504840000357945,143.59394750000502,None,,,,,,,,,,,,,11,001,2022_Oct_07_1723,Flanker,2021.2.0,239.78400254483947,
congruent-left.jpg,1,a,left_arrow.png,left_arrow.png,left_arrow.png,left_arrow.png,left_arrow.png,left_arrow.png,left_arrow.png,,,,,4,0,24,0,,,,,,,,,,,,,144.01104810000106,None,,,,,,,,,,,,,,,,,,,,,,,,,,,,,,145.0247784999956,None,145.0247784999956,None,145.0247784999956,None,145.0247784999956,None,145.0247784999956,None,145.0247784999956,None,145.0247784999956,None,a,1,0.4544118000048911,145.0247784999956,None,,,,,,,,,,,,,11,001,2022_Oct_07_1723,Flanker,2021.2.0,239.78400254483947,
incongruent-right.jpg,0,k,left_arrow.png,left_arrow.png,left_arrow.png,right_arrow.png,left_arrow.png,left_arrow.png,left_arrow.png,,,,,4,1,25,3,,,,,,,,,,,,,145.49184770000284,None,,,,,,,,,,,,,,,,,,,,,,,,,,,,,,146.50118219999422,None,146.50118219999422,None,146.50118219999422,None,146.50118219999422,None,146.50118219999422,None,146.50118219999422,None,146.50118219999422,None,k,1,0.39421199999924283,146.50118219999422,None,,,,,,,,,,,,,11,001,2022_Oct_07_1723,Flanker,2021.2.0,239.78400254483947,
neutral left,0,a,neutral.png,neutral.png,neutral.png,left_arrow.png,neutral.png,neutral.png,neutral.png,,,,,4,2,26,4,,,,,,,,,,,,,146.9102642999933,None,,,,,,,,,,,,,,,,,,,,,,,,,,,,,,147.9193637999997,None,147.9193637999997,None,147.9193637999997,None,147.9193637999997,None,147.9193637999997,None,147.9193637999997,None,147.9193637999997,None,a,1,0.3682206000084989,147.9193637999997,None,,,,,,,,,,,,,11,001,2022_Oct_07_1723,Flanker,2021.2.0,239.78400254483947,
congruent-left.jpg,1,a,left_arrow.png,left_arrow.png,left_arrow.png,left_arrow.png,left_arrow.png,left_arrow.png,left_arrow.png,,,,,4,3,27,0,,,,,,,,,,,,,148.30309370000032,None,,,,,,,,,,,,,,,,,,,,,,,,,,,,,,149.31250410000212,None,149.31250410000212,None,149.31250410000212,None,149.31250410000212,None,149.31250410000212,None,149.31250410000212,None,149.31250410000212,None,a,1,0.3752838999935193,149.31250410000212,None,,,,,,,,,,,,,11,001,2022_Oct_07_1723,Flanker,2021.2.0,239.78400254483947,
congruent-left.jpg,1,a,left_arrow.png,left_arrow.png,left_arrow.png,left_arrow.png,left_arrow.png,left_arrow.png,left_arrow.png,,,,,4,4,28,0,,,,,,,,,,,,,149.70459700000356,None,,,,,,,,,,,,,,,,,,,,,,,,,,,,,,150.71831749999546,None,150.71831749999546,None,150.71831749999546,None,150.71831749999546,None,150.71831749999546,None,150.71831749999546,None,150.71831749999546,None,a,1,0.4016698999912478,150.71831749999546,None,,,,,,,,,,,,,11,001,2022_Oct_07_1723,Flanker,2021.2.0,239.78400254483947,
neutral left,0,a,neutral.png,neutral.png,neutral.png,left_arrow.png,neutral.png,neutral.png,neutral.png,,,,,4,5,29,4,,,,,,,,,,,,,151.13530749999336,None,,,,,,,,,,,,,,,,,,,,,,,,,,,,,,152.14887170000293,None,152.14887170000293,None,152.14887170000293,None,152.14887170000293,None,152.14887170000293,None,152.14887170000293,None,152.14887170000293,None,a,1,0.3713240999932168,152.14887170000293,None,,,,,,,,,,,,,11,001,2022_Oct_07_1723,Flanker,2021.2.0,239.78400254483947,
congruent-right.jpg,1,k,right_arrow.png,right_arrow.png,right_arrow.png,right_arrow.png,right_arrow.png,right_arrow.png,right_arrow.png,,,,,5,0,30,2,,,,,,,,,,,,,152.53275779999967,None,,,,,,,,,,,,,,,,,,,,,,,,,,,,,,153.54627849999815,None,153.54627849999815,None,153.54627849999815,None,153.54627849999815,None,153.54627849999815,None,153.54627849999815,None,153.54627849999815,None,k,1,0.3661082000035094,153.54627849999815,None,,,,,,,,,,,,,11,001,2022_Oct_07_1723,Flanker,2021.2.0,239.78400254483947,
neutral left,0,a,neutral.png,neutral.png,neutral.png,left_arrow.png,neutral.png,neutral.png,neutral.png,,,,,5,1,31,4,,,,,,,,,,,,,153.9301931999944,None,,,,,,,,,,,,,,,,,,,,,,,,,,,,,,154.94349210000655,None,154.94349210000655,None,154.94349210000655,None,154.94349210000655,None,154.94349210000655,None,154.94349210000655,None,154.94349210000655,None,a,1,0.3690777000010712,154.94349210000655,None,,,,,,,,,,,,,11,001,2022_Oct_07_1723,Flanker,2021.2.0,239.78400254483947,
neutral right,0,k,neutral.png,neutral.png,neutral.png,right_arrow.png,neutral.png,neutral.png,neutral.png,,,,,5,2,32,5,,,,,,,,,,,,,155.32721249999304,None,,,,,,,,,,,,,,,,,,,,,,,,,,,,,,156.3365776999999,None,156.3365776999999,None,156.3365776999999,None,156.3365776999999,None,156.3365776999999,None,156.3365776999999,None,156.3365776999999,None,k,1,0.4001746000139974,156.3365776999999,None,,,,,,,,,,,,,11,001,2022_Oct_07_1723,Flanker,2021.2.0,239.78400254483947,
neutral left,0,a,neutral.png,neutral.png,neutral.png,left_arrow.png,neutral.png,neutral.png,neutral.png,,,,,5,3,33,4,,,,,,,,,,,,,156.75373789999867,None,,,,,,,,,,,,,,,,,,,,,,,,,,,,,,157.7589469999948,None,157.7589469999948,None,157.7589469999948,None,157.7589469999948,None,157.7589469999948,None,157.7589469999948,None,157.7589469999948,None,a,1,0.42601809999905527,157.7589469999948,None,,,,,,,,,,,,,11,001,2022_Oct_07_1723,Flanker,2021.2.0,239.78400254483947,
incongruent-right.jpg,0,k,left_arrow.png,left_arrow.png,left_arrow.png,right_arrow.png,left_arrow.png,left_arrow.png,left_arrow.png,,,,,5,4,34,3,,,,,,,,,,,,,158.20110869999917,None,,,,,,,,,,,,,,,,,,,,,,,,,,,,,,159.21051960000477,None,159.21051960000477,None,159.21051960000477,None,159.21051960000477,None,159.21051960000477,None,159.21051960000477,None,159.21051960000477,None,k,1,0.48665449999680277,159.21051960000477,None,,,,,,,,,,,,,11,001,2022_Oct_07_1723,Flanker,2021.2.0,239.78400254483947,
incongruent-left.jpg,0,a,right_arrow.png,right_arrow.png,right_arrow.png,left_arrow.png,right_arrow.png,right_arrow.png,right_arrow.png,,,,,5,5,35,1,,,,,,,,,,,,,159.71102580000297,None,,,,,,,,,,,,,,,,,,,,,,,,,,,,,,160.72899309999775,None,160.72899309999775,None,160.72899309999775,None,160.72899309999775,None,160.72899309999775,None,160.72899309999775,None,160.72899309999775,None,a,1,0.37630869999702554,160.72899309999775,None,,,,,,,,,,,,,11,001,2022_Oct_07_1723,Flanker,2021.2.0,239.78400254483947,
incongruent-left.jpg,0,a,right_arrow.png,right_arrow.png,right_arrow.png,left_arrow.png,right_arrow.png,right_arrow.png,right_arrow.png,,,,,6,0,36,1,,,,,,,,,,,,,161.1209256000002,None,,,,,,,,,,,,,,,,,,,,,,,,,,,,,,162.13047829999414,None,162.13047829999414,None,162.13047829999414,None,162.13047829999414,None,162.13047829999414,None,162.13047829999414,None,162.13047829999414,None,a,1,0.38331859999743756,162.13047829999414,None,,,,,,,,,,,,,11,001,2022_Oct_07_1723,Flanker,2021.2.0,239.78400254483947,
incongruent-left.jpg,0,a,right_arrow.png,right_arrow.png,right_arrow.png,left_arrow.png,right_arrow.png,right_arrow.png,right_arrow.png,,,,,6,1,37,1,,,,,,,,,,,,,162.5308350999985,None,,,,,,,,,,,,,,,,,,,,,,,,,,,,,,163.54024299999583,None,163.54024299999583,None,163.54024299999583,None,163.54024299999583,None,163.54024299999583,None,163.54024299999583,None,163.54024299999583,None,a,1,0.3894583999936003,163.54024299999583,None,,,,,,,,,,,,,11,001,2022_Oct_07_1723,Flanker,2021.2.0,239.78400254483947,
neutral right,0,k,neutral.png,neutral.png,neutral.png,right_arrow.png,neutral.png,neutral.png,neutral.png,,,,,6,2,38,5,,,,,,,,,,,,,163.94906280000578,None,,,,,,,,,,,,,,,,,,,,,,,,,,,,,,164.96242870000424,None,164.96242870000424,None,164.96242870000424,None,164.96242870000424,None,164.96242870000424,None,164.96242870000424,None,164.96242870000424,None,k,1,0.39147699999739416,164.96242870000424,None,,,,,,,,,,,,,11,001,2022_Oct_07_1723,Flanker,2021.2.0,239.78400254483947,
incongruent-left.jpg,0,a,right_arrow.png,right_arrow.png,right_arrow.png,left_arrow.png,right_arrow.png,right_arrow.png,right_arrow.png,,,,,6,3,39,1,,,,,,,,,,,,,165.3715622000018,None,,,,,,,,,,,,,,,,,,,,,,,,,,,,,,166.38489760000084,None,166.38489760000084,None,166.38489760000084,None,166.38489760000084,None,166.38489760000084,None,166.38489760000084,None,166.38489760000084,None,a,1,0.35323890000290703,166.38489760000084,None,,,,,,,,,,,,,11,001,2022_Oct_07_1723,Flanker,2021.2.0,239.78400254483947,
incongruent-right.jpg,0,k,left_arrow.png,left_arrow.png,left_arrow.png,right_arrow.png,left_arrow.png,left_arrow.png,left_arrow.png,,,,,6,4,40,3,,,,,,,,,,,,,166.7518335000059,None,,,,,,,,,,,,,,,,,,,,,,,,,,,,,,167.7654104999965,None,167.7654104999965,None,167.7654104999965,None,167.7654104999965,None,167.7654104999965,None,167.7654104999965,None,167.7654104999965,None,k,1,0.4048597999935737,167.7654104999965,None,,,,,,,,,,,,,11,001,2022_Oct_07_1723,Flanker,2021.2.0,239.78400254483947,
congruent-left.jpg,1,a,left_arrow.png,left_arrow.png,left_arrow.png,left_arrow.png,left_arrow.png,left_arrow.png,left_arrow.png,,,,,6,5,41,0,,,,,,,,,,,,,168.1825053999928,None,,,,,,,,,,,,,,,,,,,,,,,,,,,,,,169.19622959999833,None,169.19622959999833,None,169.19622959999833,None,169.19622959999833,None,169.19622959999833,None,169.19622959999833,None,169.19622959999833,None,a,1,0.3502901999891037,169.19622959999833,None,,,,,,,,,,,,,11,001,2022_Oct_07_1723,Flanker,2021.2.0,239.78400254483947,
congruent-left.jpg,1,a,left_arrow.png,left_arrow.png,left_arrow.png,left_arrow.png,left_arrow.png,left_arrow.png,left_arrow.png,,,,,7,0,42,0,,,,,,,,,,,,,169.563390299998,None,,,,,,,,,,,,,,,,,,,,,,,,,,,,,,170.5725284999935,None,170.5725284999935,None,170.5725284999935,None,170.5725284999935,None,170.5725284999935,None,170.5725284999935,None,170.5725284999935,None,a,1,0.3501773000025423,170.5725284999935,None,,,,,,,,,,,,,11,001,2022_Oct_07_1723,Flanker,2021.2.0,239.78400254483947,
neutral right,0,k,neutral.png,neutral.png,neutral.png,right_arrow.png,neutral.png,neutral.png,neutral.png,,,,,7,1,43,5,,,,,,,,,,,,,170.93959680000262,None,,,,,,,,,,,,,,,,,,,,,,,,,,,,,,171.95345849999285,None,171.95345849999285,None,171.95345849999285,None,171.95345849999285,None,171.95345849999285,None,171.95345849999285,None,171.95345849999285,None,k,1,0.37747760000638664,171.95345849999285,None,,,,,,,,,,,,,11,001,2022_Oct_07_1723,Flanker,2021.2.0,239.78400254483947,
incongruent-right.jpg,0,k,left_arrow.png,left_arrow.png,left_arrow.png,right_arrow.png,left_arrow.png,left_arrow.png,left_arrow.png,,,,,7,2,44,3,,,,,,,,,,,,,172.3453090999974,None,,,,,,,,,,,,,,,,,,,,,,,,,,,,,,173.35465609999665,None,173.35465609999665,None,173.35465609999665,None,173.35465609999665,None,173.35465609999665,None,173.35465609999665,None,173.35465609999665,None,k,1,0.48045339999953285,173.35465609999665,None,,,,,,,,,,,,,11,001,2022_Oct_07_1723,Flanker,2021.2.0,239.78400254483947,
neutral left,0,a,neutral.png,neutral.png,neutral.png,left_arrow.png,neutral.png,neutral.png,neutral.png,,,,,7,3,45,4,,,,,,,,,,,,,173.85125409999455,None,,,,,,,,,,,,,,,,,,,,,,,,,,,,,,174.86491030000616,None,174.86491030000616,None,174.86491030000616,None,174.86491030000616,None,174.86491030000616,None,174.86491030000616,None,174.86491030000616,None,a,1,0.40235150000080466,174.86491030000616,None,,,,,,,,,,,,,11,001,2022_Oct_07_1723,Flanker,2021.2.0,239.78400254483947,
neutral right,0,k,neutral.png,neutral.png,neutral.png,right_arrow.png,neutral.png,neutral.png,neutral.png,,,,,7,4,46,5,,,,,,,,,,,,,175.28171169999405,None,,,,,,,,,,,,,,,,,,,,,,,,,,,,,,176.2911618999933,None,176.2911618999933,None,176.2911618999933,None,176.2911618999933,None,176.2911618999933,None,176.2911618999933,None,176.2911618999933,None,k,1,0.4164623999968171,176.2911618999933,None,,,,,,,,,,,,,11,001,2022_Oct_07_1723,Flanker,2021.2.0,239.78400254483947,
neutral left,0,a,neutral.png,neutral.png,neutral.png,left_arrow.png,neutral.png,neutral.png,neutral.png,,,,,7,5,47,4,,,,,,,,,,,,,176.72518789999594,None,,,,,,,,,,,,,,,,,,,,,,,,,,,,,,177.7344543999934,None,177.7344543999934,None,177.7344543999934,None,177.7344543999934,None,177.7344543999934,None,177.7344543999934,None,177.7344543999934,None,a,1,0.4051896000019042,177.7344543999934,None,,,,,,,,,,,,,11,001,2022_Oct_07_1723,Flanker,2021.2.0,239.78400254483947,
,,,,,,,,,,,,,,,,,,,,,,,,,,,,,,,,,,,,,,,,,,,,,,,,,,,,,,,,,,,,,,,,,,,,,,,,,,,,,,,,178.1639295000059,None,space,47.75858380000864,178.1639295000059,None,,,,,,,11,001,2022_Oct_07_1723,Flanker,2021.2.0,239.78400254483947,
neutral left,0,a,neutral.png,neutral.png,neutral.png,left_arrow.png,neutral.png,neutral.png,neutral.png,,,,,,,,,0,0,0,4,,,,,,,,,225.94799620000413,None,,,,,,,,,,,,,,,,,,,,,,,,,,,,,,226.95315099999425,None,226.95315099999425,None,226.95315099999425,None,226.95315099999425,None,226.95315099999425,None,226.95315099999425,None,226.95315099999425,None,a,1,0.4652159999968717,226.95315099999425,None,,,,,,,,,,,,,11,001,2022_Oct_07_1723,Flanker,2021.2.0,239.78400254483947,
neutral left,0,a,neutral.png,neutral.png,neutral.png,left_arrow.png,neutral.png,neutral.png,neutral.png,,,,,,,,,0,1,1,4,,,,,,,,,227.4369902000035,None,,,,,,,,,,,,,,,,,,,,,,,,,,,,,,228.45064490000368,None,228.45064490000368,None,228.45064490000368,None,228.45064490000368,None,228.45064490000368,None,228.45064490000368,None,228.45064490000368,None,a,1,0.3759132999985013,228.45064490000368,None,,,,,,,,,,,,,11,001,2022_Oct_07_1723,Flanker,2021.2.0,239.78400254483947,
congruent-right.jpg,1,k,right_arrow.png,right_arrow.png,right_arrow.png,right_arrow.png,right_arrow.png,right_arrow.png,right_arrow.png,,,,,,,,,0,2,2,2,,,,,,,,,228.84265839999716,None,,,,,,,,,,,,,,,,,,,,,,,,,,,,,,229.86047749999852,None,229.86047749999852,None,229.86047749999852,None,229.86047749999852,None,229.86047749999852,None,229.86047749999852,None,229.86047749999852,None,k,1,0.4062584999919636,229.86047749999852,None,,,,,,,,,,,,,11,001,2022_Oct_07_1723,Flanker,2021.2.0,239.78400254483947,
incongruent-left.jpg,0,a,right_arrow.png,right_arrow.png,right_arrow.png,left_arrow.png,right_arrow.png,right_arrow.png,right_arrow.png,,,,,,,,,0,3,3,1,,,,,,,,,230.28586299999733,None,,,,,,,,,,,,,,,,,,,,,,,,,,,,,,231.29526610000175,None,231.29526610000175,None,231.29526610000175,None,231.29526610000175,None,231.29526610000175,None,231.29526610000175,None,231.29526610000175,None,a,1,0.41167780000250787,231.29526610000175,None,,,,,,,,,,,,,11,001,2022_Oct_07_1723,Flanker,2021.2.0,239.78400254483947,
incongruent-left.jpg,0,a,right_arrow.png,right_arrow.png,right_arrow.png,left_arrow.png,right_arrow.png,right_arrow.png,right_arrow.png,,,,,,,,,0,4,4,1,,,,,,,,,231.72070210000675,None,,,,,,,,,,,,,,,,,,,,,,,,,,,,,,232.73437479999848,None,232.73437479999848,None,232.73437479999848,None,232.73437479999848,None,232.73437479999848,None,232.73437479999848,None,232.73437479999848,None,a,1,0.4127621000079671,232.73437479999848,None,,,,,,,,,,,,,11,001,2022_Oct_07_1723,Flanker,2021.2.0,239.78400254483947,
neutral right,0,k,neutral.png,neutral.png,neutral.png,right_arrow.png,neutral.png,neutral.png,neutral.png,,,,,,,,,0,5,5,5,,,,,,,,,233.1597485999955,None,,,,,,,,,,,,,,,,,,,,,,,,,,,,,,234.17327400000067,None,234.17327400000067,None,234.17327400000067,None,234.17327400000067,None,234.17327400000067,None,234.17327400000067,None,234.17327400000067,None,k,1,0.3740840000100434,234.17327400000067,None,,,,,,,,,,,,,11,001,2022_Oct_07_1723,Flanker,2021.2.0,239.78400254483947,
congruent-left.jpg,1,a,left_arrow.png,left_arrow.png,left_arrow.png,left_arrow.png,left_arrow.png,left_arrow.png,left_arrow.png,,,,,,,,,1,0,6,0,,,,,,,,,234.56121749999875,None,,,,,,,,,,,,,,,,,,,,,,,,,,,,,,235.5747862999997,None,235.5747862999997,None,235.5747862999997,None,235.5747862999997,None,235.5747862999997,None,235.5747862999997,None,235.5747862999997,None,a,1,0.3490804000030039,235.5747862999997,None,,,,,,,,,,,,,11,001,2022_Oct_07_1723,Flanker,2021.2.0,239.78400254483947,
incongruent-right.jpg,0,k,left_arrow.png,left_arrow.png,left_arrow.png,right_arrow.png,left_arrow.png,left_arrow.png,left_arrow.png,,,,,,,,,1,1,7,3,,,,,,,,,235.94185560000187,None,,,,,,,,,,,,,,,,,,,,,,,,,,,,,,236.955589899997,None,236.955589899997,None,236.955589899997,None,236.955589899997,None,236.955589899997,None,236.955589899997,None,236.955589899997,None,k,1,0.4242884999985108,236.955589899997,None,,,,,,,,,,,,,11,001,2022_Oct_07_1723,Flanker,2021.2.0,239.78400254483947,
congruent-left.jpg,1,a,left_arrow.png,left_arrow.png,left_arrow.png,left_arrow.png,left_arrow.png,left_arrow.png,left_arrow.png,,,,,,,,,1,2,8,0,,,,,,,,,237.39754560000438,None,,,,,,,,,,,,,,,,,,,,,,,,,,,,,,238.41532400000142,None,238.41532400000142,None,238.41532400000142,None,238.41532400000142,None,238.41532400000142,None,238.41532400000142,None,238.41532400000142,None,a,1,0.47660750000795815,238.41532400000142,None,,,,,,,,,,,,,11,001,2022_Oct_07_1723,Flanker,2021.2.0,239.78400254483947,
incongruent-left.jpg,0,a,right_arrow.png,right_arrow.png,right_arrow.png,left_arrow.png,right_arrow.png,right_arrow.png,right_arrow.png,,,,,,,,,1,3,9,1,,,,,,,,,238.90754759999982,None,,,,,,,,,,,,,,,,,,,,,,,,,,,,,,239.91712060000282,None,239.91712060000282,None,239.91712060000282,None,239.91712060000282,None,239.91712060000282,None,239.91712060000282,None,239.91712060000282,None,a,1,0.44699620000028517,239.91712060000282,None,,,,,,,,,,,,,11,001,2022_Oct_07_1723,Flanker,2021.2.0,239.78400254483947,
congruent-left.jpg,1,a,left_arrow.png,left_arrow.png,left_arrow.png,left_arrow.png,left_arrow.png,left_arrow.png,left_arrow.png,,,,,,,,,1,4,10,0,,,,,,,,,240.3757256999961,None,,,,,,,,,,,,,,,,,,,,,,,,,,,,,,241.38093050000316,None,241.38093050000316,None,241.38093050000316,None,241.38093050000316,None,241.38093050000316,None,241.38093050000316,None,241.38093050000316,None,a,1,0.40736769999784883,241.38093050000316,None,,,,,,,,,,,,,11,001,2022_Oct_07_1723,Flanker,2021.2.0,239.78400254483947,
congruent-right.jpg,1,k,right_arrow.png,right_arrow.png,right_arrow.png,right_arrow.png,right_arrow.png,right_arrow.png,right_arrow.png,,,,,,,,,1,5,11,2,,,,,,,,,241.8023006000003,None,,,,,,,,,,,,,,,,,,,,,,,,,,,,,,242.81170000000566,None,242.81170000000566,None,242.81170000000566,None,242.81170000000566,None,242.81170000000566,None,242.81170000000566,None,242.81170000000566,None,k,1,0.4088250000058906,242.81170000000566,None,,,,,,,,,,,,,11,001,2022_Oct_07_1723,Flanker,2021.2.0,239.78400254483947,
neutral right,0,k,neutral.png,neutral.png,neutral.png,right_arrow.png,neutral.png,neutral.png,neutral.png,,,,,,,,,2,0,12,5,,,,,,,,,243.23708910000278,None,,,,,,,,,,,,,,,,,,,,,,,,,,,,,,244.2466490999941,None,244.2466490999941,None,244.2466490999941,None,244.2466490999941,None,244.2466490999941,None,244.2466490999941,None,244.2466490999941,None,k,1,0.3581529000075534,244.2466490999941,None,,,,,,,,,,,,,11,001,2022_Oct_07_1723,Flanker,2021.2.0,239.78400254483947,
incongruent-right.jpg,0,k,left_arrow.png,left_arrow.png,left_arrow.png,right_arrow.png,left_arrow.png,left_arrow.png,left_arrow.png,,,,,,,,,2,1,13,3,,,,,,,,,244.62195109999448,None,,,,,,,,,,,,,,,,,,,,,,,,,,,,,,245.63129029999254,None,245.63129029999254,None,245.63129029999254,None,245.63129029999254,None,245.63129029999254,None,245.63129029999254,None,245.63129029999254,None,k,1,0.4616442999977153,245.63129029999254,None,,,,,,,,,,,,,11,001,2022_Oct_07_1723,Flanker,2021.2.0,239.78400254483947,
congruent-right.jpg,1,k,right_arrow.png,right_arrow.png,right_arrow.png,right_arrow.png,right_arrow.png,right_arrow.png,right_arrow.png,,,,,,,,,2,2,14,2,,,,,,,,,246.10681840000325,None,,,,,,,,,,,,,,,,,,,,,,,,,,,,,,247.1205093000026,None,247.1205093000026,None,247.1205093000026,None,247.1205093000026,None,247.1205093000026,None,247.1205093000026,None,247.1205093000026,None,k,1,0.3327341000112938,247.1205093000026,None,,,,,,,,,,,,,11,001,2022_Oct_07_1723,Flanker,2021.2.0,239.78400254483947,
incongruent-left.jpg,0,a,right_arrow.png,right_arrow.png,right_arrow.png,left_arrow.png,right_arrow.png,right_arrow.png,right_arrow.png,,,,,,,,,2,3,15,1,,,,,,,,,247.47087289999763,None,,,,,,,,,,,,,,,,,,,,,,,,,,,,,,248.48017979999713,None,248.48017979999713,None,248.48017979999713,None,248.48017979999713,None,248.48017979999713,None,248.48017979999713,None,248.48017979999713,None,a,1,0.37308479999774136,248.48017979999713,None,,,,,,,,,,,,,11,001,2022_Oct_07_1723,Flanker,2021.2.0,239.78400254483947,
incongruent-right.jpg,0,k,left_arrow.png,left_arrow.png,left_arrow.png,right_arrow.png,left_arrow.png,left_arrow.png,left_arrow.png,,,,,,,,,2,4,16,3,,,,,,,,,248.87221679999493,None,,,,,,,,,,,,,,,,,,,,,,,,,,,,,,249.88162369999918,None,249.88162369999918,None,249.88162369999918,None,249.88162369999918,None,249.88162369999918,None,249.88162369999918,None,249.88162369999918,None,k,1,0.4198475999874063,249.88162369999918,None,,,,,,,,,,,,,11,001,2022_Oct_07_1723,Flanker,2021.2.0,239.78400254483947,
congruent-left.jpg,1,a,left_arrow.png,left_arrow.png,left_arrow.png,left_arrow.png,left_arrow.png,left_arrow.png,left_arrow.png,,,,,,,,,2,5,17,0,,,,,,,,,250.315428899994,None,,,,,,,,,,,,,,,,,,,,,,,,,,,,,,251.3248120000062,None,251.3248120000062,None,251.3248120000062,None,251.3248120000062,None,251.3248120000062,None,251.3248120000062,None,251.3248120000062,None,a,1,0.32084660000691656,251.3248120000062,None,,,,,,,,,,,,,11,001,2022_Oct_07_1723,Flanker,2021.2.0,239.78400254483947,
neutral left,0,a,neutral.png,neutral.png,neutral.png,left_arrow.png,neutral.png,neutral.png,neutral.png,,,,,,,,,3,0,18,4,,,,,,,,,251.6585960999946,None,,,,,,,,,,,,,,,,,,,,,,,,,,,,,,252.6679085999931,None,252.6679085999931,None,252.6679085999931,None,252.6679085999931,None,252.6679085999931,None,252.6679085999931,None,252.6679085999931,None,a,1,0.3939533999946434,252.6679085999931,None,,,,,,,,,,,,,11,001,2022_Oct_07_1723,Flanker,2021.2.0,239.78400254483947,
incongruent-left.jpg,0,a,right_arrow.png,right_arrow.png,right_arrow.png,left_arrow.png,right_arrow.png,right_arrow.png,right_arrow.png,,,,,,,,,3,1,19,1,,,,,,,,,253.0767737999995,None,,,,,,,,,,,,,,,,,,,,,,,,,,,,,,254.08608179999283,None,254.08608179999283,None,254.08608179999283,None,254.08608179999283,None,254.08608179999283,None,254.08608179999283,None,254.08608179999283,None,a,1,0.4242738000029931,254.08608179999283,None,,,,,,,,,,,,,11,001,2022_Oct_07_1723,Flanker,2021.2.0,239.78400254483947,
neutral left,0,a,neutral.png,neutral.png,neutral.png,left_arrow.png,neutral.png,neutral.png,neutral.png,,,,,,,,,3,2,20,4,,,,,,,,,254.5282281999971,None,,,,,,,,,,,,,,,,,,,,,,,,,,,,,,255.54179600000498,None,255.54179600000498,None,255.54179600000498,None,255.54179600000498,None,255.54179600000498,None,255.54179600000498,None,255.54179600000498,None,a,1,0.376482899999246,255.54179600000498,None,,,,,,,,,,,,,11,001,2022_Oct_07_1723,Flanker,2021.2.0,239.78400254483947,
congruent-left.jpg,1,a,left_arrow.png,left_arrow.png,left_arrow.png,left_arrow.png,left_arrow.png,left_arrow.png,left_arrow.png,,,,,,,,,3,3,21,0,,,,,,,,,255.93395669999882,None,,,,,,,,,,,,,,,,,,,,,,,,,,,,,,256.94751800000085,None,256.94751800000085,None,256.94751800000085,None,256.94751800000085,None,256.94751800000085,None,256.94751800000085,None,256.94751800000085,None,a,1,0.33889060000365134,256.94751800000085,None,,,,,,,,,,,,,11,001,2022_Oct_07_1723,Flanker,2021.2.0,239.78400254483947,
neutral left,0,a,neutral.png,neutral.png,neutral.png,left_arrow.png,neutral.png,neutral.png,neutral.png,,,,,,,,,3,4,22,4,,,,,,,,,257.2981202999945,None,,,,,,,,,,,,,,,,,,,,,,,,,,,,,,258.31140399999276,None,258.31140399999276,None,258.31140399999276,None,258.31140399999276,None,258.31140399999276,None,258.31140399999276,None,258.31140399999276,None,a,1,0.34320909999951255,258.31140399999276,None,,,,,,,,,,,,,11,001,2022_Oct_07_1723,Flanker,2021.2.0,239.78400254483947,
congruent-right.jpg,1,k,right_arrow.png,right_arrow.png,right_arrow.png,right_arrow.png,right_arrow.png,right_arrow.png,right_arrow.png,,,,,,,,,3,5,23,2,,,,,,,,,258.6701757999981,None,,,,,,,,,,,,,,,,,,,,,,,,,,,,,,259.67985020000197,None,259.67985020000197,None,259.67985020000197,None,259.67985020000197,None,259.67985020000197,None,259.67985020000197,None,259.67985020000197,None,k,1,0.35896080000384245,259.67985020000197,None,,,,,,,,,,,,,11,001,2022_Oct_07_1723,Flanker,2021.2.0,239.78400254483947,
incongruent-left.jpg,0,a,right_arrow.png,right_arrow.png,right_arrow.png,left_arrow.png,right_arrow.png,right_arrow.png,right_arrow.png,,,,,,,,,4,0,24,1,,,,,,,,,260.0549377999996,None,,,,,,,,,,,,,,,,,,,,,,,,,,,,,,261.06863090000115,None,261.06863090000115,None,261.06863090000115,None,261.06863090000115,None,261.06863090000115,None,261.06863090000115,None,261.06863090000115,None,a,1,0.3783793000038713,261.06863090000115,None,,,,,,,,,,,,,11,001,2022_Oct_07_1723,Flanker,2021.2.0,239.78400254483947,
incongruent-left.jpg,0,a,right_arrow.png,right_arrow.png,right_arrow.png,left_arrow.png,right_arrow.png,right_arrow.png,right_arrow.png,,,,,,,,,4,1,25,1,,,,,,,,,261.4605764000007,None,,,,,,,,,,,,,,,,,,,,,,,,,,,,,,262.47428650000074,None,262.47428650000074,None,262.47428650000074,None,262.47428650000074,None,262.47428650000074,None,262.47428650000074,None,262.47428650000074,None,a,1,0.39692520000971854,262.47428650000074,None,,,,,,,,,,,,,11,001,2022_Oct_07_1723,Flanker,2021.2.0,239.78400254483947,
incongruent-left.jpg,0,a,right_arrow.png,right_arrow.png,right_arrow.png,left_arrow.png,right_arrow.png,right_arrow.png,right_arrow.png,,,,,,,,,4,2,26,1,,,,,,,,,262.8829216000013,None,,,,,,,,,,,,,,,,,,,,,,,,,,,,,,263.89241319999564,None,263.89241319999564,None,263.89241319999564,None,263.89241319999564,None,263.89241319999564,None,263.89241319999564,None,263.89241319999564,None,a,1,0.4029809999919962,263.89241319999564,None,,,,,,,,,,,,,11,001,2022_Oct_07_1723,Flanker,2021.2.0,239.78400254483947,
congruent-right.jpg,1,k,right_arrow.png,right_arrow.png,right_arrow.png,right_arrow.png,right_arrow.png,right_arrow.png,right_arrow.png,,,,,,,,,4,3,27,2,,,,,,,,,264.3094360999967,None,,,,,,,,,,,,,,,,,,,,,,,,,,,,,,265.32321299999603,None,265.32321299999603,None,265.32321299999603,None,265.32321299999603,None,265.32321299999603,None,265.32321299999603,None,265.32321299999603,None,k,1,0.40435080000315793,265.32321299999603,None,,,,,,,,,,,,,11,001,2022_Oct_07_1723,Flanker,2021.2.0,239.78400254483947,
congruent-right.jpg,1,k,right_arrow.png,right_arrow.png,right_arrow.png,right_arrow.png,right_arrow.png,right_arrow.png,right_arrow.png,,,,,,,,,4,4,28,2,,,,,,,,,265.7401186000061,None,,,,,,,,,,,,,,,,,,,,,,,,,,,,,,266.7539667999954,None,266.7539667999954,None,266.7539667999954,None,266.7539667999954,None,266.7539667999954,None,266.7539667999954,None,266.7539667999954,None,k,1,0.34979029999522027,266.7539667999954,None,,,,,,,,,,,,,11,001,2022_Oct_07_1723,Flanker,2021.2.0,239.78400254483947,
neutral right,0,k,neutral.png,neutral.png,neutral.png,right_arrow.png,neutral.png,neutral.png,neutral.png,,,,,,,,,4,5,29,5,,,,,,,,,267.1208220999979,None,,,,,,,,,,,,,,,,,,,,,,,,,,,,,,268.1343887999974,None,268.1343887999974,None,268.1343887999974,None,268.1343887999974,None,268.1343887999974,None,268.1343887999974,None,268.1343887999974,None,k,1,0.3295955000066897,268.1343887999974,None,,,,,,,,,,,,,11,001,2022_Oct_07_1723,Flanker,2021.2.0,239.78400254483947,
neutral right,0,k,neutral.png,neutral.png,neutral.png,right_arrow.png,neutral.png,neutral.png,neutral.png,,,,,,,,,5,0,30,5,,,,,,,,,268.47642910000286,None,,,,,,,,,,,,,,,,,,,,,,,,,,,,,,269.4857367999939,None,269.4857367999939,None,269.4857367999939,None,269.4857367999939,None,269.4857367999939,None,269.4857367999939,None,269.4857367999939,None,k,1,0.3543971000035526,269.4857367999939,None,,,,,,,,,,,,,11,001,2022_Oct_07_1723,Flanker,2021.2.0,239.78400254483947,
neutral right,0,k,neutral.png,neutral.png,neutral.png,right_arrow.png,neutral.png,neutral.png,neutral.png,,,,,,,,,5,1,31,5,,,,,,,,,269.8529433999938,None,,,,,,,,,,,,,,,,,,,,,,,,,,,,,,270.8665550000005,None,270.8665550000005,None,270.8665550000005,None,270.8665550000005,None,270.8665550000005,None,270.8665550000005,None,270.8665550000005,None,k,1,0.32576829999743495,270.8665550000005,None,,,,,,,,,,,,,11,001,2022_Oct_07_1723,Flanker,2021.2.0,239.78400254483947,
neutral left,0,a,neutral.png,neutral.png,neutral.png,left_arrow.png,neutral.png,neutral.png,neutral.png,,,,,,,,,5,2,32,4,,,,,,,,,271.2084540999931,None,,,,,,,,,,,,,,,,,,,,,,,,,,,,,,272.21779559999413,None,272.21779559999413,None,272.21779559999413,None,272.21779559999413,None,272.21779559999413,None,272.21779559999413,None,272.21779559999413,None,a,1,0.3668061999924248,272.21779559999413,None,,,,,,,,,,,,,11,001,2022_Oct_07_1723,Flanker,2021.2.0,239.78400254483947,
neutral right,0,k,neutral.png,neutral.png,neutral.png,right_arrow.png,neutral.png,neutral.png,neutral.png,,,,,,,,,5,3,33,5,,,,,,,,,272.6015572000033,None,,,,,,,,,,,,,,,,,,,,,,,,,,,,,,273.6196033000015,None,273.6196033000015,None,273.6196033000015,None,273.6196033000015,None,273.6196033000015,None,273.6196033000015,None,273.6196033000015,None,k,1,0.3492614999995567,273.6196033000015,None,,,,,,,,,,,,,11,001,2022_Oct_07_1723,Flanker,2021.2.0,239.78400254483947,
neutral right,0,k,neutral.png,neutral.png,neutral.png,right_arrow.png,neutral.png,neutral.png,neutral.png,,,,,,,,,5,4,34,5,,,,,,,,,273.9863528999995,None,,,,,,,,,,,,,,,,,,,,,,,,,,,,,,275.00006200000644,None,275.00006200000644,None,275.00006200000644,None,275.00006200000644,None,275.00006200000644,None,275.00006200000644,None,275.00006200000644,None,k,1,0.36885340001026634,275.00006200000644,None,,,,,,,,,,,,,11,001,2022_Oct_07_1723,Flanker,2021.2.0,239.78400254483947,
incongruent-right.jpg,0,k,left_arrow.png,left_arrow.png,left_arrow.png,right_arrow.png,left_arrow.png,left_arrow.png,left_arrow.png,,,,,,,,,5,5,35,3,,,,,,,,,275.3836702999979,None,,,,,,,,,,,,,,,,,,,,,,,,,,,,,,276.39723620000586,None,276.39723620000586,None,276.39723620000586,None,276.39723620000586,None,276.39723620000586,None,276.39723620000586,None,276.39723620000586,None,a,0,0.36384499999985565,276.39723620000586,None,,,,,,,,,,,,,11,001,2022_Oct_07_1723,Flanker,2021.2.0,239.78400254483947,
incongruent-right.jpg,0,k,left_arrow.png,left_arrow.png,left_arrow.png,right_arrow.png,left_arrow.png,left_arrow.png,left_arrow.png,,,,,,,,,6,0,36,3,,,,,,,,,276.7726502000005,None,,,,,,,,,,,,,,,,,,,,,,,,,,,,,,277.78622480000195,None,277.78622480000195,None,277.78622480000195,None,277.78622480000195,None,277.78622480000195,None,277.78622480000195,None,277.78622480000195,None,k,1,0.4230563000019174,277.78622480000195,None,,,,,,,,,,,,,11,001,2022_Oct_07_1723,Flanker,2021.2.0,239.78400254483947,
incongruent-right.jpg,0,k,left_arrow.png,left_arrow.png,left_arrow.png,right_arrow.png,left_arrow.png,left_arrow.png,left_arrow.png,,,,,,,,,6,1,37,3,,,,,,,,,278.2200053999986,None,,,,,,,,,,,,,,,,,,,,,,,,,,,,,,279.23371460000635,None,279.23371460000635,None,279.23371460000635,None,279.23371460000635,None,279.23371460000635,None,279.23371460000635,None,279.23371460000635,None,k,1,0.4321104999980889,279.23371460000635,None,,,,,,,,,,,,,11,001,2022_Oct_07_1723,Flanker,2021.2.0,239.78400254483947,
congruent-right.jpg,1,k,right_arrow.png,right_arrow.png,right_arrow.png,right_arrow.png,right_arrow.png,right_arrow.png,right_arrow.png,,,,,,,,,6,2,38,2,,,,,,,,,279.68427850000444,None,,,,,,,,,,,,,,,,,,,,,,,,,,,,,,280.70180779999646,None,280.70180779999646,None,280.70180779999646,None,280.70180779999646,None,280.70180779999646,None,280.70180779999646,None,280.70180779999646,None,k,1,0.3638686000049347,280.70180779999646,None,,,,,,,,,,,,,11,001,2022_Oct_07_1723,Flanker,2021.2.0,239.78400254483947,
neutral right,0,k,neutral.png,neutral.png,neutral.png,right_arrow.png,neutral.png,neutral.png,neutral.png,,,,,,,,,6,3,39,5,,,,,,,,,281.08137230000284,None,,,,,,,,,,,,,,,,,,,,,,,,,,,,,,282.0991933000041,None,282.0991933000041,None,282.0991933000041,None,282.0991933000041,None,282.0991933000041,None,282.0991933000041,None,282.0991933000041,None,k,1,0.35867689999577124,282.0991933000041,None,,,,,,,,,,,,,11,001,2022_Oct_07_1723,Flanker,2021.2.0,239.78400254483947,
neutral left,0,a,neutral.png,neutral.png,neutral.png,left_arrow.png,neutral.png,neutral.png,neutral.png,,,,,,,,,6,4,40,4,,,,,,,,,282.47463110000535,None,,,,,,,,,,,,,,,,,,,,,,,,,,,,,,283.48406740000064,None,283.48406740000064,None,283.48406740000064,None,283.48406740000064,None,283.48406740000064,None,283.48406740000064,None,283.48406740000064,None,a,1,0.3741320000117412,283.48406740000064,None,,,,,,,,,,,,,11,001,2022_Oct_07_1723,Flanker,2021.2.0,239.78400254483947,
congruent-left.jpg,1,a,left_arrow.png,left_arrow.png,left_arrow.png,left_arrow.png,left_arrow.png,left_arrow.png,left_arrow.png,,,,,,,,,6,5,41,0,,,,,,,,,283.87601399999403,None,,,,,,,,,,,,,,,,,,,,,,,,,,,,,,284.88956670000334,None,284.88956670000334,None,284.88956670000334,None,284.88956670000334,None,284.88956670000334,None,284.88956670000334,None,284.88956670000334,None,a,1,0.36868510000931565,284.88956670000334,None,,,,,,,,,,,,,11,001,2022_Oct_07_1723,Flanker,2021.2.0,239.78400254483947,
congruent-left.jpg,1,a,left_arrow.png,left_arrow.png,left_arrow.png,left_arrow.png,left_arrow.png,left_arrow.png,left_arrow.png,,,,,,,,,7,0,42,0,,,,,,,,,285.27332269999897,None,,,,,,,,,,,,,,,,,,,,,,,,,,,,,,286.2870380999957,None,286.2870380999957,None,286.2870380999957,None,286.2870380999957,None,286.2870380999957,None,286.2870380999957,None,286.2870380999957,None,a,1,0.3393814000010025,286.2870380999957,None,,,,,,,,,,,,,11,001,2022_Oct_07_1723,Flanker,2021.2.0,239.78400254483947,
neutral left,0,a,neutral.png,neutral.png,neutral.png,left_arrow.png,neutral.png,neutral.png,neutral.png,,,,,,,,,7,1,43,4,,,,,,,,,286.6457529000036,None,,,,,,,,,,,,,,,,,,,,,,,,,,,,,,287.6594014000002,None,287.6594014000002,None,287.6594014000002,None,287.6594014000002,None,287.6594014000002,None,287.6594014000002,None,287.6594014000002,None,a,1,0.3192142999905627,287.6594014000002,None,,,,,,,,,,,,,11,001,2022_Oct_07_1723,Flanker,2021.2.0,239.78400254483947,
congruent-left.jpg,1,a,left_arrow.png,left_arrow.png,left_arrow.png,left_arrow.png,left_arrow.png,left_arrow.png,left_arrow.png,,,,,,,,,7,2,44,0,,,,,,,,,287.9930841000023,None,,,,,,,,,,,,,,,,,,,,,,,,,,,,,,289.00234409999393,None,289.00234409999393,None,289.00234409999393,None,289.00234409999393,None,289.00234409999393,None,289.00234409999393,None,289.00234409999393,None,a,1,0.3044249999948079,289.00234409999393,None,,,,,,,,,,,,,11,001,2022_Oct_07_1723,Flanker,2021.2.0,239.78400254483947,
incongruent-right.jpg,0,k,left_arrow.png,left_arrow.png,left_arrow.png,right_arrow.png,left_arrow.png,left_arrow.png,left_arrow.png,,,,,,,,,7,3,45,3,,,,,,,,,289.3196716999955,None,,,,,,,,,,,,,,,,,,,,,,,,,,,,,,290.33702779999294,None,290.33702779999294,None,290.33702779999294,None,290.33702779999294,None,290.33702779999294,None,290.33702779999294,None,290.33702779999294,None,k,1,0.425915800005896,290.33702779999294,None,,,,,,,,,,,,,11,001,2022_Oct_07_1723,Flanker,2021.2.0,239.78400254483947,
congruent-right.jpg,1,k,right_arrow.png,right_arrow.png,right_arrow.png,right_arrow.png,right_arrow.png,right_arrow.png,right_arrow.png,,,,,,,,,7,4,46,2,,,,,,,,,290.77499979999266,None,,,,,,,,,,,,,,,,,,,,,,,,,,,,,,291.7846814999939,None,291.7846814999939,None,291.7846814999939,None,291.7846814999939,None,291.7846814999939,None,291.7846814999939,None,291.7846814999939,None,k,1,0.32249120000051335,291.7846814999939,None,,,,,,,,,,,,,11,001,2022_Oct_07_1723,Flanker,2021.2.0,239.78400254483947,
incongruent-right.jpg,0,k,left_arrow.png,left_arrow.png,left_arrow.png,right_arrow.png,left_arrow.png,left_arrow.png,left_arrow.png,,,,,,,,,7,5,47,3,,,,,,,,,292.1180744000012,None,,,,,,,,,,,,,,,,,,,,,,,,,,,,,,293.1317803999991,None,293.1317803999991,None,293.1317803999991,None,293.1317803999991,None,293.1317803999991,None,293.1317803999991,None,293.1317803999991,None,k,1,0.4315816000016639,293.1317803999991,None,,,,,,,,,,,,,11,001,2022_Oct_07_1723,Flanker,2021.2.0,239.78400254483947,
,,,,,,,,,,,,,,,,,,,,,,,,,,,,,,,,,,,,,,,,,,,,,,,,,,,,,,,,,,,,,,,,,,,,,,,,,,,,,,,,293.59463989999495,None,space,32.26928979999502,293.59463989999495,None,,,,,,,11,001,2022_Oct_07_1723,Flanker,2021.2.0,239.78400254483947,
congruent-left.jpg,1,a,left_arrow.png,left_arrow.png,left_arrow.png,left_arrow.png,left_arrow.png,left_arrow.png,left_arrow.png,,,,,,,,,,,,,0,0,0,0,,,,,325.8872865000012,None,,,,,,,,,,,,,,,,,,,,,,,,,,,,,,326.89241899999615,None,326.89241899999615,None,326.89241899999615,None,326.89241899999615,None,326.89241899999615,None,326.89241899999615,None,326.89241899999615,None,a,1,0.4116848999983631,326.89241899999615,None,,,,,,,,,,,,,11,001,2022_Oct_07_1723,Flanker,2021.2.0,239.78400254483947,
incongruent-left.jpg,0,a,right_arrow.png,right_arrow.png,right_arrow.png,left_arrow.png,right_arrow.png,right_arrow.png,right_arrow.png,,,,,,,,,,,,,0,1,1,1,,,,,327.3180882000015,None,,,,,,,,,,,,,,,,,,,,,,,,,,,,,,328.3315891999955,None,328.3315891999955,None,328.3315891999955,None,328.3315891999955,None,328.3315891999955,None,328.3315891999955,None,328.3315891999955,None,a,1,0.4287181999970926,328.3315891999955,None,,,,,,,,,,,,,11,001,2022_Oct_07_1723,Flanker,2021.2.0,239.78400254483947,
incongruent-right.jpg,0,k,left_arrow.png,left_arrow.png,left_arrow.png,right_arrow.png,left_arrow.png,left_arrow.png,left_arrow.png,,,,,,,,,,,,,0,2,2,3,,,,,328.77374180000334,None,,,,,,,,,,,,,,,,,,,,,,,,,,,,,,329.7873366999993,None,329.7873366999993,None,329.7873366999993,None,329.7873366999993,None,329.7873366999993,None,329.7873366999993,None,329.7873366999993,None,k,1,0.3969998999964446,329.7873366999993,None,,,,,,,,,,,,,11,001,2022_Oct_07_1723,Flanker,2021.2.0,239.78400254483947,
congruent-right.jpg,1,k,right_arrow.png,right_arrow.png,right_arrow.png,right_arrow.png,right_arrow.png,right_arrow.png,right_arrow.png,,,,,,,,,,,,,0,3,3,2,,,,,330.1959541999968,None,,,,,,,,,,,,,,,,,,,,,,,,,,,,,,331.2096687000012,None,331.2096687000012,None,331.2096687000012,None,331.2096687000012,None,331.2096687000012,None,331.2096687000012,None,331.2096687000012,None,k,1,0.3509126999997534,331.2096687000012,None,,,,,,,,,,,,,11,001,2022_Oct_07_1723,Flanker,2021.2.0,239.78400254483947,
congruent-right.jpg,1,k,right_arrow.png,right_arrow.png,right_arrow.png,right_arrow.png,right_arrow.png,right_arrow.png,right_arrow.png,,,,,,,,,,,,,0,4,4,2,,,,,331.57658550000633,None,,,,,,,,,,,,,,,,,,,,,,,,,,,,,,332.5901134000014,None,332.5901134000014,None,332.5901134000014,None,332.5901134000014,None,332.5901134000014,None,332.5901134000014,None,332.5901134000014,None,k,1,0.3226051999954507,332.5901134000014,None,,,,,,,,,,,,,11,001,2022_Oct_07_1723,Flanker,2021.2.0,239.78400254483947,
neutral right,0,k,neutral.png,neutral.png,neutral.png,right_arrow.png,neutral.png,neutral.png,neutral.png,,,,,,,,,,,,,0,5,5,5,,,,,332.92382070000167,None,,,,,,,,,,,,,,,,,,,,,,,,,,,,,,333.93330600000627,None,333.93330600000627,None,333.93330600000627,None,333.93330600000627,None,333.93330600000627,None,333.93330600000627,None,333.93330600000627,None,k,1,0.32396130000415724,333.93330600000627,None,,,,,,,,,,,,,11,001,2022_Oct_07_1723,Flanker,2021.2.0,239.78400254483947,
neutral right,0,k,neutral.png,neutral.png,neutral.png,right_arrow.png,neutral.png,neutral.png,neutral.png,,,,,,,,,,,,,1,0,6,5,,,,,334.27526029999717,None,,,,,,,,,,,,,,,,,,,,,,,,,,,,,,335.2846664999961,None,335.2846664999961,None,335.2846664999961,None,335.2846664999961,None,335.2846664999961,None,335.2846664999961,None,335.2846664999961,None,k,1,0.3408620999980485,335.2846664999961,None,,,,,,,,,,,,,11,001,2022_Oct_07_1723,Flanker,2021.2.0,239.78400254483947,
congruent-left.jpg,1,a,left_arrow.png,left_arrow.png,left_arrow.png,left_arrow.png,left_arrow.png,left_arrow.png,left_arrow.png,,,,,,,,,,,,,1,1,7,0,,,,,335.64338720000524,None,,,,,,,,,,,,,,,,,,,,,,,,,,,,,,336.6569496000011,None,336.6569496000011,None,336.6569496000011,None,336.6569496000011,None,336.6569496000011,None,336.6569496000011,None,336.6569496000011,None,a,1,0.36834270000690594,336.6569496000011,None,,,,,,,,,,,,,11,001,2022_Oct_07_1723,Flanker,2021.2.0,239.78400254483947,
congruent-right.jpg,1,k,right_arrow.png,right_arrow.png,right_arrow.png,right_arrow.png,right_arrow.png,right_arrow.png,right_arrow.png,,,,,,,,,,,,,1,2,8,2,,,,,337.04070850000426,None,,,,,,,,,,,,,,,,,,,,,,,,,,,,,,338.05440579999413,None,338.05440579999413,None,338.05440579999413,None,338.05440579999413,None,338.05440579999413,None,338.05440579999413,None,338.05440579999413,None,k,1,0.3710902000020724,338.05440579999413,None,,,,,,,,,,,,,11,001,2022_Oct_07_1723,Flanker,2021.2.0,239.78400254483947,
incongruent-left.jpg,0,a,right_arrow.png,right_arrow.png,right_arrow.png,left_arrow.png,right_arrow.png,right_arrow.png,right_arrow.png,,,,,,,,,,,,,1,3,9,1,,,,,338.4380016000068,None,,,,,,,,,,,,,,,,,,,,,,,,,,,,,,339.4515700000047,None,339.4515700000047,None,339.4515700000047,None,339.4515700000047,None,339.4515700000047,None,339.4515700000047,None,339.4515700000047,None,a,1,0.3741102000058163,339.4515700000047,None,,,,,,,,,,,,,11,001,2022_Oct_07_1723,Flanker,2021.2.0,239.78400254483947,
congruent-left.jpg,1,a,left_arrow.png,left_arrow.png,left_arrow.png,left_arrow.png,left_arrow.png,left_arrow.png,left_arrow.png,,,,,,,,,,,,,1,4,10,0,,,,,339.8438013999985,None,,,,,,,,,,,,,,,,,,,,,,,,,,,,,,340.85259779999615,None,340.85259779999615,None,340.85259779999615,None,340.85259779999615,None,340.85259779999615,None,340.85259779999615,None,340.85259779999615,None,a,1,0.3414078000059817,340.85259779999615,None,,,,,,,,,,,,,11,001,2022_Oct_07_1723,Flanker,2021.2.0,239.78400254483947,
congruent-left.jpg,1,a,left_arrow.png,left_arrow.png,left_arrow.png,left_arrow.png,left_arrow.png,left_arrow.png,left_arrow.png,,,,,,,,,,,,,1,5,11,0,,,,,341.2119676000002,None,,,,,,,,,,,,,,,,,,,,,,,,,,,,,,342.2213072000013,None,342.2213072000013,None,342.2213072000013,None,342.2213072000013,None,342.2213072000013,None,342.2213072000013,None,342.2213072000013,None,a,1,0.30888599999889266,342.2213072000013,None,,,,,,,,,,,,,11,001,2022_Oct_07_1723,Flanker,2021.2.0,239.78400254483947,
congruent-left.jpg,1,a,left_arrow.png,left_arrow.png,left_arrow.png,left_arrow.png,left_arrow.png,left_arrow.png,left_arrow.png,,,,,,,,,,,,,2,0,12,0,,,,,342.54677109999466,None,,,,,,,,,,,,,,,,,,,,,,,,,,,,,,343.56024399999296,None,343.56024399999296,None,343.56024399999296,None,343.56024399999296,None,343.56024399999296,None,343.56024399999296,None,343.56024399999296,None,a,1,0.3380200999963563,343.56024399999296,None,,,,,,,,,,,,,11,001,2022_Oct_07_1723,Flanker,2021.2.0,239.78400254483947,
neutral right,0,k,neutral.png,neutral.png,neutral.png,right_arrow.png,neutral.png,neutral.png,neutral.png,,,,,,,,,,,,,2,1,13,5,,,,,343.91061789999367,None,,,,,,,,,,,,,,,,,,,,,,,,,,,,,,344.9240531999967,None,344.9240531999967,None,344.9240531999967,None,344.9240531999967,None,344.9240531999967,None,344.9240531999967,None,344.9240531999967,None,k,1,1.5824984000064433,344.9240531999967,None,,,,,,,,,,,,,11,001,2022_Oct_07_1723,Flanker,2021.2.0,239.78400254483947,
congruent-right.jpg,1,k,right_arrow.png,right_arrow.png,right_arrow.png,right_arrow.png,right_arrow.png,right_arrow.png,right_arrow.png,,,,,,,,,,,,,2,2,14,2,,,,,346.51753509999253,None,,,,,,,,,,,,,,,,,,,,,,,,,,,,,,347.5311665000045,None,347.5311665000045,None,347.5311665000045,None,347.5311665000045,None,347.5311665000045,None,347.5311665000045,None,347.5311665000045,None,k,1,0.41576430000714026,347.5311665000045,None,,,,,,,,,,,,,11,001,2022_Oct_07_1723,Flanker,2021.2.0,239.78400254483947,
neutral right,0,k,neutral.png,neutral.png,neutral.png,right_arrow.png,neutral.png,neutral.png,neutral.png,,,,,,,,,,,,,2,3,15,5,,,,,347.96507839999686,None,,,,,,,,,,,,,,,,,,,,,,,,,,,,,,348.97836959999404,None,348.97836959999404,None,348.97836959999404,None,348.97836959999404,None,348.97836959999404,None,348.97836959999404,None,348.97836959999404,None,k,1,0.3766144999972312,348.97836959999404,None,,,,,,,,,,,,,11,001,2022_Oct_07_1723,Flanker,2021.2.0,239.78400254483947,
incongruent-left.jpg,0,a,right_arrow.png,right_arrow.png,right_arrow.png,left_arrow.png,right_arrow.png,right_arrow.png,right_arrow.png,,,,,,,,,,,,,2,4,16,1,,,,,349.3703893000056,None,,,,,,,,,,,,,,,,,,,,,,,,,,,,,,350.37984219999635,None,350.37984219999635,None,350.37984219999635,None,350.37984219999635,None,350.37984219999635,None,350.37984219999635,None,350.37984219999635,None,a,1,0.3834717999998247,350.37984219999635,None,,,,,,,,,,,,,11,001,2022_Oct_07_1723,Flanker,2021.2.0,239.78400254483947,
congruent-left.jpg,1,a,left_arrow.png,left_arrow.png,left_arrow.png,left_arrow.png,left_arrow.png,left_arrow.png,left_arrow.png,,,,,,,,,,,,,2,5,17,0,,,,,350.7805592999939,None,,,,,,,,,,,,,,,,,,,,,,,,,,,,,,351.7940058999957,None,351.7940058999957,None,351.7940058999957,None,351.7940058999957,None,351.7940058999957,None,351.7940058999957,None,351.7940058999957,None,a,1,0.3613764000037918,351.7940058999957,None,,,,,,,,,,,,,11,001,2022_Oct_07_1723,Flanker,2021.2.0,239.78400254483947,
neutral left,0,a,neutral.png,neutral.png,neutral.png,left_arrow.png,neutral.png,neutral.png,neutral.png,,,,,,,,,,,,,3,0,18,4,,,,,352.1692311999941,None,,,,,,,,,,,,,,,,,,,,,,,,,,,,,,353.17903959999967,None,353.17903959999967,None,353.17903959999967,None,353.17903959999967,None,353.17903959999967,None,353.17903959999967,None,353.17903959999967,None,a,1,0.36050939999404363,353.17903959999967,None,,,,,,,,,,,,,11,001,2022_Oct_07_1723,Flanker,2021.2.0,239.78400254483947,
incongruent-left.jpg,0,a,right_arrow.png,right_arrow.png,right_arrow.png,left_arrow.png,right_arrow.png,right_arrow.png,right_arrow.png,,,,,,,,,,,,,3,1,19,1,,,,,353.5541047000006,None,,,,,,,,,,,,,,,,,,,,,,,,,,,,,,354.5676344999956,None,354.5676344999956,None,354.5676344999956,None,354.5676344999956,None,354.5676344999956,None,354.5676344999956,None,354.5676344999956,None,a,1,0.4201122999947984,354.5676344999956,None,,,,,,,,,,,,,11,001,2022_Oct_07_1723,Flanker,2021.2.0,239.78400254483947,
neutral left,0,a,neutral.png,neutral.png,neutral.png,left_arrow.png,neutral.png,neutral.png,neutral.png,,,,,,,,,,,,,3,2,20,4,,,,,355.0014866999991,None,,,,,,,,,,,,,,,,,,,,,,,,,,,,,,356.0150285999989,None,356.0150285999989,None,356.0150285999989,None,356.0150285999989,None,356.0150285999989,None,356.0150285999989,None,356.0150285999989,None,a,1,0.3332194999966305,356.0150285999989,None,,,,,,,,,,,,,11,001,2022_Oct_07_1723,Flanker,2021.2.0,239.78400254483947,
neutral right,0,k,neutral.png,neutral.png,neutral.png,right_arrow.png,neutral.png,neutral.png,neutral.png,,,,,,,,,,,,,3,3,21,5,,,,,356.36548870000115,None,,,,,,,,,,,,,,,,,,,,,,,,,,,,,,357.37906730000395,None,357.37906730000395,None,357.37906730000395,None,357.37906730000395,None,357.37906730000395,None,357.37906730000395,None,357.37906730000395,None,k,1,0.39308290000190027,357.37906730000395,None,,,,,,,,,,,,,11,001,2022_Oct_07_1723,Flanker,2021.2.0,239.78400254483947,
incongruent-left.jpg,0,a,right_arrow.png,right_arrow.png,right_arrow.png,left_arrow.png,right_arrow.png,right_arrow.png,right_arrow.png,,,,,,,,,,,,,3,4,22,1,,,,,357.7877587999974,None,,,,,,,,,,,,,,,,,,,,,,,,,,,,,,358.79717150000215,None,358.79717150000215,None,358.79717150000215,None,358.79717150000215,None,358.79717150000215,None,358.79717150000215,None,358.79717150000215,None,a,1,0.35116869999910705,358.79717150000215,None,,,,,,,,,,,,,11,001,2022_Oct_07_1723,Flanker,2021.2.0,239.78400254483947,
incongruent-right.jpg,0,k,left_arrow.png,left_arrow.png,left_arrow.png,right_arrow.png,left_arrow.png,left_arrow.png,left_arrow.png,,,,,,,,,,,,,3,5,23,3,,,,,359.16412760000094,None,,,,,,,,,,,,,,,,,,,,,,,,,,,,,,360.17363259999547,None,360.17363259999547,None,360.17363259999547,None,360.17363259999547,None,360.17363259999547,None,360.17363259999547,None,360.17363259999547,None,k,1,0.43085959999007173,360.17363259999547,None,,,,,,,,,,,,,11,001,2022_Oct_07_1723,Flanker,2021.2.0,239.78400254483947,
congruent-right.jpg,1,k,right_arrow.png,right_arrow.png,right_arrow.png,right_arrow.png,right_arrow.png,right_arrow.png,right_arrow.png,,,,,,,,,,,,,4,0,24,2,,,,,360.6241102000058,None,,,,,,,,,,,,,,,,,,,,,,,,,,,,,,361.6334344000061,None,361.6334344000061,None,361.6334344000061,None,361.6334344000061,None,361.6334344000061,None,361.6334344000061,None,361.6334344000061,None,k,1,0.3392547000112245,361.6334344000061,None,,,,,,,,,,,,,11,001,2022_Oct_07_1723,Flanker,2021.2.0,239.78400254483947,
congruent-left.jpg,1,a,left_arrow.png,left_arrow.png,left_arrow.png,left_arrow.png,left_arrow.png,left_arrow.png,left_arrow.png,,,,,,,,,,,,,4,1,25,0,,,,,361.99234320000687,None,,,,,,,,,,,,,,,,,,,,,,,,,,,,,,363.00988929999585,None,363.00988929999585,None,363.00988929999585,None,363.00988929999585,None,363.00988929999585,None,363.00988929999585,None,363.00988929999585,None,a,1,0.32297209999524057,363.00988929999585,None,,,,,,,,,,,,,11,001,2022_Oct_07_1723,Flanker,2021.2.0,239.78400254483947,
neutral right,0,k,neutral.png,neutral.png,neutral.png,right_arrow.png,neutral.png,neutral.png,neutral.png,,,,,,,,,,,,,4,2,26,5,,,,,363.3435873999988,None,,,,,,,,,,,,,,,,,,,,,,,,,,,,,,364.353354699997,None,364.353354699997,None,364.353354699997,None,364.353354699997,None,364.353354699997,None,364.353354699997,None,364.353354699997,None,k,1,0.3796847999910824,364.353354699997,None,,,,,,,,,,,,,11,001,2022_Oct_07_1723,Flanker,2021.2.0,239.78400254483947,
neutral left,0,a,neutral.png,neutral.png,neutral.png,left_arrow.png,neutral.png,neutral.png,neutral.png,,,,,,,,,,,,,4,3,27,4,,,,,364.7450727999967,None,,,,,,,,,,,,,,,,,,,,,,,,,,,,,,365.7587671999936,None,365.7587671999936,None,365.7587671999936,None,365.7587671999936,None,365.7587671999936,None,365.7587671999936,None,365.7587671999936,None,a,1,0.37446690000069793,365.7587671999936,None,,,,,,,,,,,,,11,001,2022_Oct_07_1723,Flanker,2021.2.0,239.78400254483947,
congruent-right.jpg,1,k,right_arrow.png,right_arrow.png,right_arrow.png,right_arrow.png,right_arrow.png,right_arrow.png,right_arrow.png,,,,,,,,,,,,,4,4,28,2,,,,,366.1507333000045,None,,,,,,,,,,,,,,,,,,,,,,,,,,,,,,367.1601271999971,None,367.1601271999971,None,367.1601271999971,None,367.1601271999971,None,367.1601271999971,None,367.1601271999971,None,367.1601271999971,None,k,1,0.35745049999968614,367.1601271999971,None,,,,,,,,,,,,,11,001,2022_Oct_07_1723,Flanker,2021.2.0,239.78400254483947,
neutral right,0,k,neutral.png,neutral.png,neutral.png,right_arrow.png,neutral.png,neutral.png,neutral.png,,,,,,,,,,,,,4,5,29,5,,,,,367.5355309000006,None,,,,,,,,,,,,,,,,,,,,,,,,,,,,,,368.5451730000059,None,368.5451730000059,None,368.5451730000059,None,368.5451730000059,None,368.5451730000059,None,368.5451730000059,None,368.5451730000059,None,k,1,0.3484528999979375,368.5451730000059,None,,,,,,,,,,,,,11,001,2022_Oct_07_1723,Flanker,2021.2.0,239.78400254483947,
congruent-left.jpg,1,a,left_arrow.png,left_arrow.png,left_arrow.png,left_arrow.png,left_arrow.png,left_arrow.png,left_arrow.png,,,,,,,,,,,,,5,0,30,0,,,,,368.9119747999939,None,,,,,,,,,,,,,,,,,,,,,,,,,,,,,,369.9255666999961,None,369.9255666999961,None,369.9255666999961,None,369.9255666999961,None,369.9255666999961,None,369.9255666999961,None,369.9255666999961,None,a,1,0.38423719999263994,369.9255666999961,None,,,,,,,,,,,,,11,001,2022_Oct_07_1723,Flanker,2021.2.0,239.78400254483947,
congruent-right.jpg,1,k,right_arrow.png,right_arrow.png,right_arrow.png,right_arrow.png,right_arrow.png,right_arrow.png,right_arrow.png,,,,,,,,,,,,,5,1,31,2,,,,,370.32618259999435,None,,,,,,,,,,,,,,,,,,,,,,,,,,,,,,371.33955160000187,None,371.33955160000187,None,371.33955160000187,None,371.33955160000187,None,371.33955160000187,None,371.33955160000187,None,371.33955160000187,None,k,1,0.3224363000044832,371.33955160000187,None,,,,,,,,,,,,,11,001,2022_Oct_07_1723,Flanker,2021.2.0,239.78400254483947,
incongruent-right.jpg,0,k,left_arrow.png,left_arrow.png,left_arrow.png,right_arrow.png,left_arrow.png,left_arrow.png,left_arrow.png,,,,,,,,,,,,,5,2,32,3,,,,,371.68182759999763,None,,,,,,,,,,,,,,,,,,,,,,,,,,,,,,372.69516059999296,None,372.69516059999296,None,372.69516059999296,None,372.69516059999296,None,372.69516059999296,None,372.69516059999296,None,372.69516059999296,None,a,0,0.3030164999945555,372.69516059999296,None,,,,,,,,,,,,,11,001,2022_Oct_07_1723,Flanker,2021.2.0,239.78400254483947,
neutral left,0,a,neutral.png,neutral.png,neutral.png,left_arrow.png,neutral.png,neutral.png,neutral.png,,,,,,,,,,,,,5,3,33,4,,,,,373.0122471000068,None,,,,,,,,,,,,,,,,,,,,,,,,,,,,,,374.02579709999554,None,374.02579709999554,None,374.02579709999554,None,374.02579709999554,None,374.02579709999554,None,374.02579709999554,None,374.02579709999554,None,a,1,0.40456589999666903,374.02579709999554,None,,,,,,,,,,,,,11,001,2022_Oct_07_1723,Flanker,2021.2.0,239.78400254483947,
incongruent-left.jpg,0,a,right_arrow.png,right_arrow.png,right_arrow.png,left_arrow.png,right_arrow.png,right_arrow.png,right_arrow.png,,,,,,,,,,,,,5,4,34,1,,,,,374.44300739999744,None,,,,,,,,,,,,,,,,,,,,,,,,,,,,,,375.4564359000069,None,375.4564359000069,None,375.4564359000069,None,375.4564359000069,None,375.4564359000069,None,375.4564359000069,None,375.4564359000069,None,a,1,0.5021789000020362,375.4564359000069,None,,,,,,,,,,,,,11,001,2022_Oct_07_1723,Flanker,2021.2.0,239.78400254483947,
congruent-right.jpg,1,k,right_arrow.png,right_arrow.png,right_arrow.png,right_arrow.png,right_arrow.png,right_arrow.png,right_arrow.png,,,,,,,,,,,,,5,5,35,2,,,,,375.9736477999977,None,,,,,,,,,,,,,,,,,,,,,,,,,,,,,,376.9873421999946,None,376.9873421999946,None,376.9873421999946,None,376.9873421999946,None,376.9873421999946,None,376.9873421999946,None,376.9873421999946,None,k,1,0.3954505000001518,376.9873421999946,None,,,,,,,,,,,,,11,001,2022_Oct_07_1723,Flanker,2021.2.0,239.78400254483947,
incongruent-right.jpg,0,k,left_arrow.png,left_arrow.png,left_arrow.png,right_arrow.png,left_arrow.png,left_arrow.png,left_arrow.png,,,,,,,,,,,,,6,0,36,3,,,,,377.39597729999514,None,,,,,,,,,,,,,,,,,,,,,,,,,,,,,,378.40552719999687,None,378.40552719999687,None,378.40552719999687,None,378.40552719999687,None,378.40552719999687,None,378.40552719999687,None,378.40552719999687,None,k,1,0.4734613999899011,378.40552719999687,None,,,,,,,,,,,,,11,001,2022_Oct_07_1723,Flanker,2021.2.0,239.78400254483947,
neutral left,0,a,neutral.png,neutral.png,neutral.png,left_arrow.png,neutral.png,neutral.png,neutral.png,,,,,,,,,,,,,6,1,37,4,,,,,378.89766679999593,None,,,,,,,,,,,,,,,,,,,,,,,,,,,,,,379.91145539999707,None,379.91145539999707,None,379.91145539999707,None,379.91145539999707,None,379.91145539999707,None,379.91145539999707,None,379.91145539999707,None,a,1,0.3837205999880098,379.91145539999707,None,,,,,,,,,,,,,11,001,2022_Oct_07_1723,Flanker,2021.2.0,239.78400254483947,
neutral left,0,a,neutral.png,neutral.png,neutral.png,left_arrow.png,neutral.png,neutral.png,neutral.png,,,,,,,,,,,,,6,2,38,4,,,,,380.3115700000053,None,,,,,,,,,,,,,,,,,,,,,,,,,,,,,,381.321082399998,None,381.321082399998,None,381.321082399998,None,381.321082399998,None,381.321082399998,None,381.321082399998,None,381.321082399998,None,a,1,0.36624319999828003,381.321082399998,None,,,,,,,,,,,,,11,001,2022_Oct_07_1723,Flanker,2021.2.0,239.78400254483947,
incongruent-right.jpg,0,k,left_arrow.png,left_arrow.png,left_arrow.png,right_arrow.png,left_arrow.png,left_arrow.png,left_arrow.png,,,,,,,,,,,,,6,3,39,3,,,,,381.70467500000086,None,,,,,,,,,,,,,,,,,,,,,,,,,,,,,,382.722460399993,None,382.722460399993,None,382.722460399993,None,382.722460399993,None,382.722460399993,None,382.722460399993,None,382.722460399993,None,k,1,0.39707609999459237,382.722460399993,None,,,,,,,,,,,,,11,001,2022_Oct_07_1723,Flanker,2021.2.0,239.78400254483947,
incongruent-left.jpg,0,a,right_arrow.png,right_arrow.png,right_arrow.png,left_arrow.png,right_arrow.png,right_arrow.png,right_arrow.png,,,,,,,,,,,,,6,4,40,1,,,,,383.1312367999926,None,,,,,,,,,,,,,,,,,,,,,,,,,,,,,,384.14493549999315,None,384.14493549999315,None,384.14493549999315,None,384.14493549999315,None,384.14493549999315,None,384.14493549999315,None,384.14493549999315,None,a,1,0.3588411999953678,384.14493549999315,None,,,,,,,,,,,,,11,001,2022_Oct_07_1723,Flanker,2021.2.0,239.78400254483947,
neutral right,0,k,neutral.png,neutral.png,neutral.png,right_arrow.png,neutral.png,neutral.png,neutral.png,,,,,,,,,,,,,6,5,41,5,,,,,384.5203324000031,None,,,,,,,,,,,,,,,,,,,,,,,,,,,,,,385.52985209999315,None,385.52985209999315,None,385.52985209999315,None,385.52985209999315,None,385.52985209999315,None,385.52985209999315,None,385.52985209999315,None,k,1,0.3900673000025563,385.52985209999315,None,,,,,,,,,,,,,11,001,2022_Oct_07_1723,Flanker,2021.2.0,239.78400254483947,
neutral left,0,a,neutral.png,neutral.png,neutral.png,left_arrow.png,neutral.png,neutral.png,neutral.png,,,,,,,,,,,,,7,0,42,4,,,,,385.9386161000002,None,,,,,,,,,,,,,,,,,,,,,,,,,,,,,,386.94790739999735,None,386.94790739999735,None,386.94790739999735,None,386.94790739999735,None,386.94790739999735,None,386.94790739999735,None,386.94790739999735,None,a,1,0.37220449998858385,386.94790739999735,None,,,,,,,,,,,,,11,001,2022_Oct_07_1723,Flanker,2021.2.0,239.78400254483947,
neutral left,0,a,neutral.png,neutral.png,neutral.png,left_arrow.png,neutral.png,neutral.png,neutral.png,,,,,,,,,,,,,7,1,43,4,,,,,387.3315051999962,None,,,,,,,,,,,,,,,,,,,,,,,,,,,,,,388.3452566000051,None,388.3452566000051,None,388.3452566000051,None,388.3452566000051,None,388.3452566000051,None,388.3452566000051,None,388.3452566000051,None,a,1,0.34304410000913776,388.3452566000051,None,,,,,,,,,,,,,11,001,2022_Oct_07_1723,Flanker,2021.2.0,239.78400254483947,
incongruent-right.jpg,0,k,left_arrow.png,left_arrow.png,left_arrow.png,right_arrow.png,left_arrow.png,left_arrow.png,left_arrow.png,,,,,,,,,,,,,7,2,44,3,,,,,388.703817799993,None,,,,,,,,,,,,,,,,,,,,,,,,,,,,,,389.71736759999476,None,389.71736759999476,None,389.71736759999476,None,389.71736759999476,None,389.71736759999476,None,389.71736759999476,None,389.71736759999476,None,k,1,0.4511583999992581,389.71736759999476,None,,,,,,,,,,,,,11,001,2022_Oct_07_1723,Flanker,2021.2.0,239.78400254483947,
incongruent-right.jpg,0,k,left_arrow.png,left_arrow.png,left_arrow.png,right_arrow.png,left_arrow.png,left_arrow.png,left_arrow.png,,,,,,,,,,,,,7,3,45,3,,,,,390.1845458000025,None,,,,,,,,,,,,,,,,,,,,,,,,,,,,,,391.1939473999955,None,391.1939473999955,None,391.1939473999955,None,391.1939473999955,None,391.1939473999955,None,391.1939473999955,None,391.1939473999955,None,k,1,0.4067624000017531,391.1939473999955,None,,,,,,,,,,,,,11,001,2022_Oct_07_1723,Flanker,2021.2.0,239.78400254483947,
incongruent-left.jpg,0,a,right_arrow.png,right_arrow.png,right_arrow.png,left_arrow.png,right_arrow.png,right_arrow.png,right_arrow.png,,,,,,,,,,,,,7,4,46,1,,,,,391.6193944999977,None,,,,,,,,,,,,,,,,,,,,,,,,,,,,,,392.63297449999664,None,392.63297449999664,None,392.63297449999664,None,392.63297449999664,None,392.63297449999664,None,392.63297449999664,None,392.63297449999664,None,a,1,0.4239415999909397,392.63297449999664,None,,,,,,,,,,,,,11,001,2022_Oct_07_1723,Flanker,2021.2.0,239.78400254483947,
incongruent-right.jpg,0,k,left_arrow.png,left_arrow.png,left_arrow.png,right_arrow.png,left_arrow.png,left_arrow.png,left_arrow.png,,,,,,,,,,,,,7,5,47,3,,,,,393.07529870000144,None,,,,,,,,,,,,,,,,,,,,,,,,,,,,,,394.0845671999996,None,394.0845671999996,None,394.0845671999996,None,394.0845671999996,None,394.0845671999996,None,394.0845671999996,None,394.0845671999996,None,k,1,0.40451650001341477,394.0845671999996,None,,,,,,,,,,,,,11,001,2022_Oct_07_1723,Flanker,2021.2.0,239.78400254483947,
,,,,,,,,,,,,,,,,,,,,,,,,,,,,,,,,,,,,,,,,,,,,,,,,,,,,,,,,,,,,,,,,,,,,,,,,,,,,,,,,394.5099552000029,None,space,4.235737200011499,394.5099552000029,None,,,,,,,11,001,2022_Oct_07_1723,Flanker,2021.2.0,239.78400254483947,
,,,,,,,,,,,,,,,,,,,,,,,,,,,,,,,,,,,,,,,,,,,,,,,,,,,,,,,,,,,,,,,,,,,,,,,,,,,,,,,,,,,,,,398.7646192999964,None,space,1.6372836000082316,398.7646192999964,None,11,001,2022_Oct_07_1723,Flanker,2021.2.0,239.78400254483947,
