images,congruentcy,corrAns,arrow_1,arrow_2,arrow_3,target,arrow_5,arrow_6,arrow_7,practice.thisRepN,practice.thisTrialN,practice.thisN,practice.thisIndex,trials.thisRepN,trials.thisTrialN,trials.thisN,trials.thisIndex,trials_2.thisRepN,trials_2.thisTrialN,trials_2.thisN,trials_2.thisIndex,trials_3.thisRepN,trials_3.thisTrialN,trials_3.thisN,trials_3.thisIndex,instr_text.started,instr_text.stopped,instr_resp.keys,instr_resp.rt,polygon.started,polygon.stopped,arrow1_.started,arrow1_.stopped,arrow2_.started,arrow2_.stopped,arrow3_.started,arrow3_.stopped,target_p.started,target_p.stopped,arrow5_.started,arrow5_.stopped,arrow6_.started,arrow6_.stopped,arrow7_.started,arrow7_.stopped,key_resp_P.keys,key_resp_P.corr,key_resp_P.rt,key_resp_P.started,key_resp_P.stopped,text_2.started,text_2.stopped,text_3.started,text_3.stopped,text_4.started,text_4.stopped,key_resp_2.keys,key_resp_2.rt,key_resp_2.started,key_resp_2.stopped,arrow1.started,arrow1.stopped,arrow2.started,arrow2.stopped,arrow3.started,arrow3.stopped,target_t.started,target_t.stopped,arrow5.started,arrow5.stopped,arrow6.started,arrow6.stopped,arrow7.started,arrow7.stopped,key_resp.keys,key_resp.corr,key_resp.rt,key_resp.started,key_resp.stopped,text_5.started,text_5.stopped,key_resp_3.keys,key_resp_3.rt,key_resp_3.started,key_resp_3.stopped,text_6.started,text_6.stopped,key_resp_4.keys,key_resp_4.rt,key_resp_4.started,key_resp_4.stopped,participant,session,date,expName,psychopyVersion,frameRate,
,,,,,,,,,,,,,,,,,,,,,,,,,,9.377710400000069,None,space,9.657778200000394,,,,,,,,,,,,,,,,,,,,,,,,,,,,,,,,,,,,,,,,,,,,,,,,,,,,,,,,,,,,,,,12,001,2022_Oct_10_1255,Flanker,2021.2.0,241.9315817486452,
incongruent-left.jpg,0,a,right_arrow.png,right_arrow.png,right_arrow.png,left_arrow.png,right_arrow.png,right_arrow.png,right_arrow.png,0,0,0,1,,,,,,,,,,,,,,,,,19.065856800000347,None,20.07101560000001,None,20.07101560000001,None,20.07101560000001,None,20.07101560000001,None,20.07101560000001,None,20.07101560000001,None,20.07101560000001,None,a,1,2.204696899999817,20.07101560000001,None,22.298370200000136,None,,,,,,,,,,,,,,,,,,,,,,,,,,,,,,,,,,,,,,,,12,001,2022_Oct_10_1255,Flanker,2021.2.0,241.9315817486452,
neutral left,0,a,neutral.png,neutral.png,neutral.png,left_arrow.png,neutral.png,neutral.png,neutral.png,0,1,1,4,,,,,,,,,,,,,,,,,23.796059600000262,None,24.80104990000018,None,24.80104990000018,None,24.80104990000018,None,24.80104990000018,None,24.80104990000018,None,24.80104990000018,None,24.80104990000018,None,k,0,2.939410500000122,24.80104990000018,None,27.758328000000347,None,,,,,,,,,,,,,,,,,,,,,,,,,,,,,,,,,,,,,,,,12,001,2022_Oct_10_1255,Flanker,2021.2.0,241.9315817486452,
congruent-left.jpg,1,a,left_arrow.png,left_arrow.png,left_arrow.png,left_arrow.png,left_arrow.png,left_arrow.png,left_arrow.png,0,2,2,0,,,,,,,,,,,,,,,,,29.255746100000124,None,30.269536300000254,None,30.269536300000254,None,30.269536300000254,None,30.269536300000254,None,30.269536300000254,None,30.269536300000254,None,30.269536300000254,None,a,1,0.7193566000000828,30.269536300000254,None,31.007613199999923,None,,,,,,,,,,,,,,,,,,,,,,,,,,,,,,,,,,,,,,,,12,001,2022_Oct_10_1255,Flanker,2021.2.0,241.9315817486452,
neutral right,0,k,neutral.png,neutral.png,neutral.png,right_arrow.png,neutral.png,neutral.png,neutral.png,0,3,3,5,,,,,,,,,,,,,,,,,32.50939130000006,None,33.518729599999915,None,33.518729599999915,None,33.518729599999915,None,33.518729599999915,None,33.518729599999915,None,33.518729599999915,None,33.518729599999915,None,k,1,0.48657909999974436,33.518729599999915,None,34.019251200000326,None,,,,,,,,,,,,,,,,,,,,,,,,,,,,,,,,,,,,,,,,12,001,2022_Oct_10_1255,Flanker,2021.2.0,241.9315817486452,
neutral right,0,k,neutral.png,neutral.png,neutral.png,right_arrow.png,neutral.png,neutral.png,neutral.png,0,4,4,5,,,,,,,,,,,,,,,,,35.52090380000027,None,36.53440240000009,None,36.53440240000009,None,36.53440240000009,None,36.53440240000009,None,36.53440240000009,None,36.53440240000009,None,36.53440240000009,None,k,1,0.5993426,36.53440240000009,None,37.15173790000017,None,,,,,,,,,,,,,,,,,,,,,,,,,,,,,,,,,,,,,,,,12,001,2022_Oct_10_1255,Flanker,2021.2.0,241.9315817486452,
neutral right,0,k,neutral.png,neutral.png,neutral.png,right_arrow.png,neutral.png,neutral.png,neutral.png,0,5,5,5,,,,,,,,,,,,,,,,,38.657500300000265,None,39.662760100000014,None,39.662760100000014,None,39.662760100000014,None,39.662760100000014,None,39.662760100000014,None,39.662760100000014,None,39.662760100000014,None,k,1,0.5033511000001454,39.662760100000014,None,40.17979970000033,None,,,,,,,,,,,,,,,,,,,,,,,,,,,,,,,,,,,,,,,,12,001,2022_Oct_10_1255,Flanker,2021.2.0,241.9315817486452,
incongruent-right.jpg,0,k,left_arrow.png,left_arrow.png,left_arrow.png,right_arrow.png,left_arrow.png,left_arrow.png,left_arrow.png,1,0,6,3,,,,,,,,,,,,,,,,,41.68151940000007,None,42.69092090000004,None,42.69092090000004,None,42.69092090000004,None,42.69092090000004,None,42.69092090000004,None,42.69092090000004,None,42.69092090000004,None,k,1,1.3719103000003088,42.69092090000004,None,44.07573700000012,None,,,,,,,,,,,,,,,,,,,,,,,,,,,,,,,,,,,,,,,,12,001,2022_Oct_10_1255,Flanker,2021.2.0,241.9315817486452,
incongruent-left.jpg,0,a,right_arrow.png,right_arrow.png,right_arrow.png,left_arrow.png,right_arrow.png,right_arrow.png,right_arrow.png,1,1,7,1,,,,,,,,,,,,,,,,,45.57742350000035,None,46.586778700000195,None,46.586778700000195,None,46.586778700000195,None,46.586778700000195,None,46.586778700000195,None,46.586778700000195,None,46.586778700000195,None,a,1,0.5642487999998593,46.586778700000195,None,47.16242009999996,None,,,,,,,,,,,,,,,,,,,,,,,,,,,,,,,,,,,,,,,,12,001,2022_Oct_10_1255,Flanker,2021.2.0,241.9315817486452,
incongruent-right.jpg,0,k,left_arrow.png,left_arrow.png,left_arrow.png,right_arrow.png,left_arrow.png,left_arrow.png,left_arrow.png,1,2,8,3,,,,,,,,,,,,,,,,,48.66391539999995,None,49.6774803000003,None,49.6774803000003,None,49.6774803000003,None,49.6774803000003,None,49.6774803000003,None,49.6774803000003,None,49.6774803000003,None,k,1,0.5459786000001259,49.6774803000003,None,50.23647740000024,None,,,,,,,,,,,,,,,,,,,,,,,,,,,,,,,,,,,,,,,,12,001,2022_Oct_10_1255,Flanker,2021.2.0,241.9315817486452,
neutral left,0,a,neutral.png,neutral.png,neutral.png,left_arrow.png,neutral.png,neutral.png,neutral.png,1,3,9,4,,,,,,,,,,,,,,,,,51.73792219999996,None,52.75166059999992,None,52.75166059999992,None,52.75166059999992,None,52.75166059999992,None,52.75166059999992,None,52.75166059999992,None,52.75166059999992,None,a,1,0.44036640000012994,52.75166059999992,None,53.21040380000022,None,,,,,,,,,,,,,,,,,,,,,,,,,,,,,,,,,,,,,,,,12,001,2022_Oct_10_1255,Flanker,2021.2.0,241.9315817486452,
incongruent-right.jpg,0,k,left_arrow.png,left_arrow.png,left_arrow.png,right_arrow.png,left_arrow.png,left_arrow.png,left_arrow.png,1,4,10,3,,,,,,,,,,,,,,,,,54.71208830000023,None,55.725440600000184,None,55.725440600000184,None,55.725440600000184,None,55.725440600000184,None,55.725440600000184,None,55.725440600000184,None,55.725440600000184,None,k,1,0.5788112000000183,55.725440600000184,None,56.31785570000011,None,,,,,,,,,,,,,,,,,,,,,,,,,,,,,,,,,,,,,,,,12,001,2022_Oct_10_1255,Flanker,2021.2.0,241.9315817486452,
incongruent-left.jpg,0,a,right_arrow.png,right_arrow.png,right_arrow.png,left_arrow.png,right_arrow.png,right_arrow.png,right_arrow.png,1,5,11,1,,,,,,,,,,,,,,,,,57.81943600000022,None,58.83303070000011,None,58.83303070000011,None,58.83303070000011,None,58.83303070000011,None,58.83303070000011,None,58.83303070000011,None,58.83303070000011,None,a,1,0.4796488000001773,58.83303070000011,None,59.32528400000001,None,,,,,,,,,,,,,,,,,,,,,,,,,,,,,,,,,,,,,,,,12,001,2022_Oct_10_1255,Flanker,2021.2.0,241.9315817486452,
congruent-left.jpg,1,a,left_arrow.png,left_arrow.png,left_arrow.png,left_arrow.png,left_arrow.png,left_arrow.png,left_arrow.png,2,0,12,0,,,,,,,,,,,,,,,,,60.831083600000056,None,61.83605149999994,None,61.83605149999994,None,61.83605149999994,None,61.83605149999994,None,61.83605149999994,None,61.83605149999994,None,61.83605149999994,None,a,1,0.7010839999998097,61.83605149999994,None,62.55347260000008,None,,,,,,,,,,,,,,,,,,,,,,,,,,,,,,,,,,,,,,,,12,001,2022_Oct_10_1255,Flanker,2021.2.0,241.9315817486452,
neutral left,0,a,neutral.png,neutral.png,neutral.png,left_arrow.png,neutral.png,neutral.png,neutral.png,2,1,13,4,,,,,,,,,,,,,,,,,64.05938409999999,None,65.06464020000021,None,65.06464020000021,None,65.06464020000021,None,65.06464020000021,None,65.06464020000021,None,65.06464020000021,None,65.06464020000021,None,a,1,0.8489139999996951,65.06464020000021,None,65.93225170000005,None,,,,,,,,,,,,,,,,,,,,,,,,,,,,,,,,,,,,,,,,12,001,2022_Oct_10_1255,Flanker,2021.2.0,241.9315817486452,
congruent-left.jpg,1,a,left_arrow.png,left_arrow.png,left_arrow.png,left_arrow.png,left_arrow.png,left_arrow.png,left_arrow.png,2,2,14,0,,,,,,,,,,,,,,,,,67.43381720000025,None,68.44727600000033,None,68.44727600000033,None,68.44727600000033,None,68.44727600000033,None,68.44727600000033,None,68.44727600000033,None,68.44727600000033,None,a,1,0.6187355000001844,68.44727600000033,None,69.08151870000029,None,,,,,,,,,,,,,,,,,,,,,,,,,,,,,,,,,,,,,,,,12,001,2022_Oct_10_1255,Flanker,2021.2.0,241.9315817486452,
neutral left,0,a,neutral.png,neutral.png,neutral.png,left_arrow.png,neutral.png,neutral.png,neutral.png,2,3,15,4,,,,,,,,,,,,,,,,,70.58715350000011,None,71.59242840000024,None,71.59242840000024,None,71.59242840000024,None,71.59242840000024,None,71.59242840000024,None,71.59242840000024,None,71.59242840000024,None,a,1,0.42600110000012137,71.59242840000024,None,72.03447340000002,None,,,,,,,,,,,,,,,,,,,,,,,,,,,,,,,,,,,,,,,,12,001,2022_Oct_10_1255,Flanker,2021.2.0,241.9315817486452,
neutral right,0,k,neutral.png,neutral.png,neutral.png,right_arrow.png,neutral.png,neutral.png,neutral.png,2,4,16,5,,,,,,,,,,,,,,,,,73.53613110000015,None,74.54548270000032,None,74.54548270000032,None,74.54548270000032,None,74.54548270000032,None,74.54548270000032,None,74.54548270000032,None,74.54548270000032,None,k,1,0.4576686000000336,74.54548270000032,None,75.02099700000008,None,,,,,,,,,,,,,,,,,,,,,,,,,,,,,,,,,,,,,,,,12,001,2022_Oct_10_1255,Flanker,2021.2.0,241.9315817486452,
congruent-right.jpg,1,k,right_arrow.png,right_arrow.png,right_arrow.png,right_arrow.png,right_arrow.png,right_arrow.png,right_arrow.png,2,5,17,2,,,,,,,,,,,,,,,,,76.52675739999995,None,77.53634120000015,None,77.53634120000015,None,77.53634120000015,None,77.53634120000015,None,77.53634120000015,None,77.53634120000015,None,77.53634120000015,None,k,1,0.8511366000002454,77.53634120000015,None,78.40390520000028,None,,,,,,,,,,,,,,,,,,,,,,,,,,,,,,,,,,,,,,,,12,001,2022_Oct_10_1255,Flanker,2021.2.0,241.9315817486452,
congruent-right.jpg,1,k,right_arrow.png,right_arrow.png,right_arrow.png,right_arrow.png,right_arrow.png,right_arrow.png,right_arrow.png,3,0,18,2,,,,,,,,,,,,,,,,,79.90959030000022,None,80.91894260000026,None,80.91894260000026,None,80.91894260000026,None,80.91894260000026,None,80.91894260000026,None,80.91894260000026,None,80.91894260000026,None,k,1,0.5807162000000972,80.91894260000026,None,81.51121090000015,None,,,,,,,,,,,,,,,,,,,,,,,,,,,,,,,,,,,,,,,,12,001,2022_Oct_10_1255,Flanker,2021.2.0,241.9315817486452,
congruent-right.jpg,1,k,right_arrow.png,right_arrow.png,right_arrow.png,right_arrow.png,right_arrow.png,right_arrow.png,right_arrow.png,3,1,19,2,,,,,,,,,,,,,,,,,83.01278090000005,None,84.02221790000021,None,84.02221790000021,None,84.02221790000021,None,84.02221790000021,None,84.02221790000021,None,84.02221790000021,None,84.02221790000021,None,k,1,0.6862055000001419,84.02221790000021,None,84.72293639999998,None,,,,,,,,,,,,,,,,,,,,,,,,,,,,,,,,,,,,,,,,12,001,2022_Oct_10_1255,Flanker,2021.2.0,241.9315817486452,
congruent-left.jpg,1,a,left_arrow.png,left_arrow.png,left_arrow.png,left_arrow.png,left_arrow.png,left_arrow.png,left_arrow.png,3,2,20,0,,,,,,,,,,,,,,,,,86.22439060000033,None,87.23393510000005,None,87.23393510000005,None,87.23393510000005,None,87.23393510000005,None,87.23393510000005,None,87.23393510000005,None,87.23393510000005,None,a,1,0.5709688000001734,87.23393510000005,None,87.81787579999991,None,,,,,,,,,,,,,,,,,,,,,,,,,,,,,,,,,,,,,,,,12,001,2022_Oct_10_1255,Flanker,2021.2.0,241.9315817486452,
congruent-right.jpg,1,k,right_arrow.png,right_arrow.png,right_arrow.png,right_arrow.png,right_arrow.png,right_arrow.png,right_arrow.png,3,3,21,2,,,,,,,,,,,,,,,,,89.32362020000028,None,90.33303410000008,None,90.33303410000008,None,90.33303410000008,None,90.33303410000008,None,90.33303410000008,None,90.33303410000008,None,90.33303410000008,None,k,1,0.5600411999998869,90.33303410000008,None,90.90863830000035,None,,,,,,,,,,,,,,,,,,,,,,,,,,,,,,,,,,,,,,,,12,001,2022_Oct_10_1255,Flanker,2021.2.0,241.9315817486452,
incongruent-right.jpg,0,k,left_arrow.png,left_arrow.png,left_arrow.png,right_arrow.png,left_arrow.png,left_arrow.png,left_arrow.png,3,4,22,3,,,,,,,,,,,,,,,,,92.41440090000015,None,93.42366360000005,None,93.42366360000005,None,93.42366360000005,None,93.42366360000005,None,93.42366360000005,None,93.42366360000005,None,93.42366360000005,None,k,1,0.8780549000002793,93.42366360000005,None,94.31644330000017,None,,,,,,,,,,,,,,,,,,,,,,,,,,,,,,,,,,,,,,,,12,001,2022_Oct_10_1255,Flanker,2021.2.0,241.9315817486452,
incongruent-left.jpg,0,a,right_arrow.png,right_arrow.png,right_arrow.png,left_arrow.png,right_arrow.png,right_arrow.png,right_arrow.png,3,5,23,1,,,,,,,,,,,,,,,,,95.8221781000002,None,96.83162310000034,None,96.83162310000034,None,96.83162310000034,None,96.83162310000034,None,96.83162310000034,None,96.83162310000034,None,96.83162310000034,None,a,1,0.6381719000000885,96.83162310000034,None,97.4824493000001,None,,,,,,,,,,,,,,,,,,,,,,,,,,,,,,,,,,,,,,,,12,001,2022_Oct_10_1255,Flanker,2021.2.0,241.9315817486452,
,,,,,,,,,,,,,,,,,,,,,,,,,,,,,,,,,,,,,,,,,,,,,,,,,,,,,98.9963173000001,None,100.9900934000002,None,space,3.7127104999999574,100.9900934000002,None,,,,,,,,,,,,,,,,,,,,,,,,,,,,,,,,12,001,2022_Oct_10_1255,Flanker,2021.2.0,241.9315817486452,
congruent-right.jpg,1,k,right_arrow.png,right_arrow.png,right_arrow.png,right_arrow.png,right_arrow.png,right_arrow.png,right_arrow.png,,,,,0,0,0,2,,,,,,,,,,,,,104.72734149999997,None,,,,,,,,,,,,,,,,,,,,,,,,,,,,,,105.7325552000002,None,105.7325552000002,None,105.7325552000002,None,105.7325552000002,None,105.7325552000002,None,105.7325552000002,None,105.7325552000002,None,k,1,0.6747490000002472,105.7325552000002,None,,,,,,,,,,,,,12,001,2022_Oct_10_1255,Flanker,2021.2.0,241.9315817486452,
congruent-right.jpg,1,k,right_arrow.png,right_arrow.png,right_arrow.png,right_arrow.png,right_arrow.png,right_arrow.png,right_arrow.png,,,,,0,1,1,2,,,,,,,,,,,,,106.42495640000016,None,,,,,,,,,,,,,,,,,,,,,,,,,,,,,,107.44283270000005,None,107.44283270000005,None,107.44283270000005,None,107.44283270000005,None,107.44283270000005,None,107.44283270000005,None,107.44283270000005,None,k,1,0.7165669999999409,107.44283270000005,None,,,,,,,,,,,,,12,001,2022_Oct_10_1255,Flanker,2021.2.0,241.9315817486452,
congruent-right.jpg,1,k,right_arrow.png,right_arrow.png,right_arrow.png,right_arrow.png,right_arrow.png,right_arrow.png,right_arrow.png,,,,,0,2,2,2,,,,,,,,,,,,,108.17680259999997,None,,,,,,,,,,,,,,,,,,,,,,,,,,,,,,109.19037000000026,None,109.19037000000026,None,109.19037000000026,None,109.19037000000026,None,109.19037000000026,None,109.19037000000026,None,109.19037000000026,None,k,1,0.5530783999997766,109.19037000000026,None,,,,,,,,,,,,,12,001,2022_Oct_10_1255,Flanker,2021.2.0,241.9315817486452,
neutral right,0,k,neutral.png,neutral.png,neutral.png,right_arrow.png,neutral.png,neutral.png,neutral.png,,,,,0,3,3,5,,,,,,,,,,,,,109.75764220000019,None,,,,,,,,,,,,,,,,,,,,,,,,,,,,,,110.77121140000008,None,110.77121140000008,None,110.77121140000008,None,110.77121140000008,None,110.77121140000008,None,110.77121140000008,None,110.77121140000008,None,k,1,0.5245556999998371,110.77121140000008,None,,,,,,,,,,,,,12,001,2022_Oct_10_1255,Flanker,2021.2.0,241.9315817486452,
congruent-left.jpg,1,a,left_arrow.png,left_arrow.png,left_arrow.png,left_arrow.png,left_arrow.png,left_arrow.png,left_arrow.png,,,,,0,4,4,0,,,,,,,,,,,,,111.31346819999999,None,,,,,,,,,,,,,,,,,,,,,,,,,,,,,,112.32286500000009,None,112.32286500000009,None,112.32286500000009,None,112.32286500000009,None,112.32286500000009,None,112.32286500000009,None,112.32286500000009,None,a,1,0.46900609999966036,112.32286500000009,None,,,,,,,,,,,,,12,001,2022_Oct_10_1255,Flanker,2021.2.0,241.9315817486452,
incongruent-left.jpg,0,a,right_arrow.png,right_arrow.png,right_arrow.png,left_arrow.png,right_arrow.png,right_arrow.png,right_arrow.png,,,,,0,5,5,1,,,,,,,,,,,,,112.80677330000026,None,,,,,,,,,,,,,,,,,,,,,,,,,,,,,,113.82026480000013,None,113.82026480000013,None,113.82026480000013,None,113.82026480000013,None,113.82026480000013,None,113.82026480000013,None,113.82026480000013,None,a,1,0.5477869999999712,113.82026480000013,None,,,,,,,,,,,,,12,001,2022_Oct_10_1255,Flanker,2021.2.0,241.9315817486452,
incongruent-right.jpg,0,k,left_arrow.png,left_arrow.png,left_arrow.png,right_arrow.png,left_arrow.png,left_arrow.png,left_arrow.png,,,,,1,0,6,3,,,,,,,,,,,,,114.37916720000021,None,,,,,,,,,,,,,,,,,,,,,,,,,,,,,,115.38876000000027,None,115.38876000000027,None,115.38876000000027,None,115.38876000000027,None,115.38876000000027,None,115.38876000000027,None,115.38876000000027,None,k,1,0.5156591999998454,115.38876000000027,None,,,,,,,,,,,,,12,001,2022_Oct_10_1255,Flanker,2021.2.0,241.9315817486452,
congruent-left.jpg,1,a,left_arrow.png,left_arrow.png,left_arrow.png,left_arrow.png,left_arrow.png,left_arrow.png,left_arrow.png,,,,,1,1,7,0,,,,,,,,,,,,,115.92247230000021,None,,,,,,,,,,,,,,,,,,,,,,,,,,,,,,116.93204409999998,None,116.93204409999998,None,116.93204409999998,None,116.93204409999998,None,116.93204409999998,None,116.93204409999998,None,116.93204409999998,None,a,1,0.5325873000001593,116.93204409999998,None,,,,,,,,,,,,,12,001,2022_Oct_10_1255,Flanker,2021.2.0,241.9315817486452,
neutral left,0,a,neutral.png,neutral.png,neutral.png,left_arrow.png,neutral.png,neutral.png,neutral.png,,,,,1,2,8,4,,,,,,,,,,,,,117.48260100000016,None,,,,,,,,,,,,,,,,,,,,,,,,,,,,,,118.49200350000001,None,118.49200350000001,None,118.49200350000001,None,118.49200350000001,None,118.49200350000001,None,118.49200350000001,None,118.49200350000001,None,a,1,0.484675199999856,118.49200350000001,None,,,,,,,,,,,,,12,001,2022_Oct_10_1255,Flanker,2021.2.0,241.9315817486452,
incongruent-right.jpg,0,k,left_arrow.png,left_arrow.png,left_arrow.png,right_arrow.png,left_arrow.png,left_arrow.png,left_arrow.png,,,,,1,3,9,3,,,,,,,,,,,,,118.9925604,None,,,,,,,,,,,,,,,,,,,,,,,,,,,,,,120.01031450000028,None,120.01031450000028,None,120.01031450000028,None,120.01031450000028,None,120.01031450000028,None,120.01031450000028,None,120.01031450000028,None,k,1,0.39857279999978346,120.01031450000028,None,,,,,,,,,,,,,12,001,2022_Oct_10_1255,Flanker,2021.2.0,241.9315817486452,
neutral right,0,k,neutral.png,neutral.png,neutral.png,right_arrow.png,neutral.png,neutral.png,neutral.png,,,,,1,4,10,5,,,,,,,,,,,,,120.42738640000016,None,,,,,,,,,,,,,,,,,,,,,,,,,,,,,,121.44101780000028,None,121.44101780000028,None,121.44101780000028,None,121.44101780000028,None,121.44101780000028,None,121.44101780000028,None,121.44101780000028,None,k,1,0.3840410000002521,121.44101780000028,None,,,,,,,,,,,,,12,001,2022_Oct_10_1255,Flanker,2021.2.0,241.9315817486452,
neutral left,0,a,neutral.png,neutral.png,neutral.png,left_arrow.png,neutral.png,neutral.png,neutral.png,,,,,1,5,11,4,,,,,,,,,,,,,121.84139249999998,None,,,,,,,,,,,,,,,,,,,,,,,,,,,,,,122.85482600000023,None,122.85482600000023,None,122.85482600000023,None,122.85482600000023,None,122.85482600000023,None,122.85482600000023,None,122.85482600000023,None,a,1,0.3705936000001202,122.85482600000023,None,,,,,,,,,,,,,12,001,2022_Oct_10_1255,Flanker,2021.2.0,241.9315817486452,
incongruent-left.jpg,0,a,right_arrow.png,right_arrow.png,right_arrow.png,left_arrow.png,right_arrow.png,right_arrow.png,right_arrow.png,,,,,2,0,12,1,,,,,,,,,,,,,123.23870880000004,None,,,,,,,,,,,,,,,,,,,,,,,,,,,,,,124.25213860000031,None,124.25213860000031,None,124.25213860000031,None,124.25213860000031,None,124.25213860000031,None,124.25213860000031,None,124.25213860000031,None,a,1,0.5255707999999686,124.25213860000031,None,,,,,,,,,,,,,12,001,2022_Oct_10_1255,Flanker,2021.2.0,241.9315817486452,
neutral right,0,k,neutral.png,neutral.png,neutral.png,right_arrow.png,neutral.png,neutral.png,neutral.png,,,,,2,1,13,5,,,,,,,,,,,,,124.79452429999992,None,,,,,,,,,,,,,,,,,,,,,,,,,,,,,,125.80393300000014,None,125.80393300000014,None,125.80393300000014,None,125.80393300000014,None,125.80393300000014,None,125.80393300000014,None,125.80393300000014,None,k,1,0.35789699999986624,125.80393300000014,None,,,,,,,,,,,,,12,001,2022_Oct_10_1255,Flanker,2021.2.0,241.9315817486452,
neutral right,0,k,neutral.png,neutral.png,neutral.png,right_arrow.png,neutral.png,neutral.png,neutral.png,,,,,2,2,14,5,,,,,,,,,,,,,126.17922769999996,None,,,,,,,,,,,,,,,,,,,,,,,,,,,,,,127.19288020000022,None,127.19288020000022,None,127.19288020000022,None,127.19288020000022,None,127.19288020000022,None,127.19288020000022,None,127.19288020000022,None,k,1,0.4011195000002772,127.19288020000022,None,,,,,,,,,,,,,12,001,2022_Oct_10_1255,Flanker,2021.2.0,241.9315817486452,
congruent-left.jpg,1,a,left_arrow.png,left_arrow.png,left_arrow.png,left_arrow.png,left_arrow.png,left_arrow.png,left_arrow.png,,,,,2,3,15,0,,,,,,,,,,,,,127.61000520000016,None,,,,,,,,,,,,,,,,,,,,,,,,,,,,,,128.62357380000003,None,128.62357380000003,None,128.62357380000003,None,128.62357380000003,None,128.62357380000003,None,128.62357380000003,None,128.62357380000003,None,a,1,0.42646319999994375,128.62357380000003,None,,,,,,,,,,,,,12,001,2022_Oct_10_1255,Flanker,2021.2.0,241.9315817486452,
congruent-right.jpg,1,k,right_arrow.png,right_arrow.png,right_arrow.png,right_arrow.png,right_arrow.png,right_arrow.png,right_arrow.png,,,,,2,4,16,2,,,,,,,,,,,,,129.06580250000025,None,,,,,,,,,,,,,,,,,,,,,,,,,,,,,,130.07938000000013,None,130.07938000000013,None,130.07938000000013,None,130.07938000000013,None,130.07938000000013,None,130.07938000000013,None,130.07938000000013,None,k,1,0.32283559999996214,130.07938000000013,None,,,,,,,,,,,,,12,001,2022_Oct_10_1255,Flanker,2021.2.0,241.9315817486452,
congruent-left.jpg,1,a,left_arrow.png,left_arrow.png,left_arrow.png,left_arrow.png,left_arrow.png,left_arrow.png,left_arrow.png,,,,,2,5,17,0,,,,,,,,,,,,,130.4129693,None,,,,,,,,,,,,,,,,,,,,,,,,,,,,,,131.4265505000003,None,131.4265505000003,None,131.4265505000003,None,131.4265505000003,None,131.4265505000003,None,131.4265505000003,None,131.4265505000003,None,a,1,0.40800139999964813,131.4265505000003,None,,,,,,,,,,,,,12,001,2022_Oct_10_1255,Flanker,2021.2.0,241.9315817486452,
incongruent-left.jpg,0,a,right_arrow.png,right_arrow.png,right_arrow.png,left_arrow.png,right_arrow.png,right_arrow.png,right_arrow.png,,,,,3,0,18,1,,,,,,,,,,,,,131.85199409999996,None,,,,,,,,,,,,,,,,,,,,,,,,,,,,,,132.86560439999994,None,132.86560439999994,None,132.86560439999994,None,132.86560439999994,None,132.86560439999994,None,132.86560439999994,None,132.86560439999994,None,a,1,0.457018799999787,132.86560439999994,None,,,,,,,,,,,,,12,001,2022_Oct_10_1255,Flanker,2021.2.0,241.9315817486452,
neutral left,0,a,neutral.png,neutral.png,neutral.png,left_arrow.png,neutral.png,neutral.png,neutral.png,,,,,3,1,19,4,,,,,,,,,,,,,133.34108220000007,None,,,,,,,,,,,,,,,,,,,,,,,,,,,,,,134.3505478000002,None,134.3505478000002,None,134.3505478000002,None,134.3505478000002,None,134.3505478000002,None,134.3505478000002,None,134.3505478000002,None,a,1,0.3642506000001049,134.3505478000002,None,,,,,,,,,,,,,12,001,2022_Oct_10_1255,Flanker,2021.2.0,241.9315817486452,
neutral left,0,a,neutral.png,neutral.png,neutral.png,left_arrow.png,neutral.png,neutral.png,neutral.png,,,,,3,2,20,4,,,,,,,,,,,,,134.72590720000017,None,,,,,,,,,,,,,,,,,,,,,,,,,,,,,,135.73966520000022,None,135.73966520000022,None,135.73966520000022,None,135.73966520000022,None,135.73966520000022,None,135.73966520000022,None,135.73966520000022,None,a,1,0.3676197999998294,135.73966520000022,None,,,,,,,,,,,,,12,001,2022_Oct_10_1255,Flanker,2021.2.0,241.9315817486452,
incongruent-left.jpg,0,a,right_arrow.png,right_arrow.png,right_arrow.png,left_arrow.png,right_arrow.png,right_arrow.png,right_arrow.png,,,,,3,3,21,1,,,,,,,,,,,,,136.1231829000003,None,,,,,,,,,,,,,,,,,,,,,,,,,,,,,,137.14094870000008,None,137.14094870000008,None,137.14094870000008,None,137.14094870000008,None,137.14094870000008,None,137.14094870000008,None,137.14094870000008,None,a,1,0.4382276000001184,137.14094870000008,None,,,,,,,,,,,,,12,001,2022_Oct_10_1255,Flanker,2021.2.0,241.9315817486452,
congruent-left.jpg,1,a,left_arrow.png,left_arrow.png,left_arrow.png,left_arrow.png,left_arrow.png,left_arrow.png,left_arrow.png,,,,,3,4,22,0,,,,,,,,,,,,,137.59133670000028,None,,,,,,,,,,,,,,,,,,,,,,,,,,,,,,138.60069199999998,None,138.60069199999998,None,138.60069199999998,None,138.60069199999998,None,138.60069199999998,None,138.60069199999998,None,138.60069199999998,None,a,1,0.38692340000034164,138.60069199999998,None,,,,,,,,,,,,,12,001,2022_Oct_10_1255,Flanker,2021.2.0,241.9315817486452,
neutral right,0,k,neutral.png,neutral.png,neutral.png,right_arrow.png,neutral.png,neutral.png,neutral.png,,,,,3,5,23,5,,,,,,,,,,,,,139.0013240000003,None,,,,,,,,,,,,,,,,,,,,,,,,,,,,,,140.01488270000027,None,140.01488270000027,None,140.01488270000027,None,140.01488270000027,None,140.01488270000027,None,140.01488270000027,None,140.01488270000027,None,k,1,0.39665710000008403,140.01488270000027,None,,,,,,,,,,,,,12,001,2022_Oct_10_1255,Flanker,2021.2.0,241.9315817486452,
incongruent-right.jpg,0,k,left_arrow.png,left_arrow.png,left_arrow.png,right_arrow.png,left_arrow.png,left_arrow.png,left_arrow.png,,,,,4,0,24,3,,,,,,,,,,,,,140.42365109999992,None,,,,,,,,,,,,,,,,,,,,,,,,,,,,,,141.43716510000013,None,141.43716510000013,None,141.43716510000013,None,141.43716510000013,None,141.43716510000013,None,141.43716510000013,None,141.43716510000013,None,k,1,0.4625670000000355,141.43716510000013,None,,,,,,,,,,,,,12,001,2022_Oct_10_1255,Flanker,2021.2.0,241.9315817486452,
neutral left,0,a,neutral.png,neutral.png,neutral.png,left_arrow.png,neutral.png,neutral.png,neutral.png,,,,,4,1,25,4,,,,,,,,,,,,,141.91266160000032,None,,,,,,,,,,,,,,,,,,,,,,,,,,,,,,142.93040670000028,None,142.93040670000028,None,142.93040670000028,None,142.93040670000028,None,142.93040670000028,None,142.93040670000028,None,142.93040670000028,None,a,1,0.40168610000000626,142.93040670000028,None,,,,,,,,,,,,,12,001,2022_Oct_10_1255,Flanker,2021.2.0,241.9315817486452,
incongruent-left.jpg,0,a,right_arrow.png,right_arrow.png,right_arrow.png,left_arrow.png,right_arrow.png,right_arrow.png,right_arrow.png,,,,,4,2,26,1,,,,,,,,,,,,,143.34751460000007,None,,,,,,,,,,,,,,,,,,,,,,,,,,,,,,144.36108160000003,None,144.36108160000003,None,144.36108160000003,None,144.36108160000003,None,144.36108160000003,None,144.36108160000003,None,144.36108160000003,None,a,1,0.4592139999999745,144.36108160000003,None,,,,,,,,,,,,,12,001,2022_Oct_10_1255,Flanker,2021.2.0,241.9315817486452,
incongruent-right.jpg,0,k,left_arrow.png,left_arrow.png,left_arrow.png,right_arrow.png,left_arrow.png,left_arrow.png,left_arrow.png,,,,,4,3,27,3,,,,,,,,,,,,,144.83657740000035,None,,,,,,,,,,,,,,,,,,,,,,,,,,,,,,145.8501739000003,None,145.8501739000003,None,145.8501739000003,None,145.8501739000003,None,145.8501739000003,None,145.8501739000003,None,145.8501739000003,None,k,1,0.5141801000004307,145.8501739000003,None,,,,,,,,,,,,,12,001,2022_Oct_10_1255,Flanker,2021.2.0,241.9315817486452,
incongruent-left.jpg,0,a,right_arrow.png,right_arrow.png,right_arrow.png,left_arrow.png,right_arrow.png,right_arrow.png,right_arrow.png,,,,,4,4,28,1,,,,,,,,,,,,,146.37571759999992,None,,,,,,,,,,,,,,,,,,,,,,,,,,,,,,147.39347180000004,None,147.39347180000004,None,147.39347180000004,None,147.39347180000004,None,147.39347180000004,None,147.39347180000004,None,147.39347180000004,None,a,1,0.3790877999999793,147.39347180000004,None,,,,,,,,,,,,,12,001,2022_Oct_10_1255,Flanker,2021.2.0,241.9315817486452,
neutral right,0,k,neutral.png,neutral.png,neutral.png,right_arrow.png,neutral.png,neutral.png,neutral.png,,,,,4,5,29,5,,,,,,,,,,,,,147.78542740000012,None,,,,,,,,,,,,,,,,,,,,,,,,,,,,,,148.79912319999994,None,148.79912319999994,None,148.79912319999994,None,148.79912319999994,None,148.79912319999994,None,148.79912319999994,None,148.79912319999994,None,k,1,0.3896270000000186,148.79912319999994,None,,,,,,,,,,,,,12,001,2022_Oct_10_1255,Flanker,2021.2.0,241.9315817486452,
incongruent-right.jpg,0,k,left_arrow.png,left_arrow.png,left_arrow.png,right_arrow.png,left_arrow.png,left_arrow.png,left_arrow.png,,,,,5,0,30,3,,,,,,,,,,,,,149.2077448,None,,,,,,,,,,,,,,,,,,,,,,,,,,,,,,150.2212998,None,150.2212998,None,150.2212998,None,150.2212998,None,150.2212998,None,150.2212998,None,150.2212998,None,k,1,0.4636258000000453,150.2212998,None,,,,,,,,,,,,,12,001,2022_Oct_10_1255,Flanker,2021.2.0,241.9315817486452,
neutral right,0,k,neutral.png,neutral.png,neutral.png,right_arrow.png,neutral.png,neutral.png,neutral.png,,,,,5,1,31,5,,,,,,,,,,,,,150.69682280000006,None,,,,,,,,,,,,,,,,,,,,,,,,,,,,,,151.70636150000018,None,151.70636150000018,None,151.70636150000018,None,151.70636150000018,None,151.70636150000018,None,151.70636150000018,None,151.70636150000018,None,k,1,0.37882500000023356,151.70636150000018,None,,,,,,,,,,,,,12,001,2022_Oct_10_1255,Flanker,2021.2.0,241.9315817486452,
congruent-right.jpg,1,k,right_arrow.png,right_arrow.png,right_arrow.png,right_arrow.png,right_arrow.png,right_arrow.png,right_arrow.png,,,,,5,2,32,2,,,,,,,,,,,,,152.0985066000003,None,,,,,,,,,,,,,,,,,,,,,,,,,,,,,,153.1078408000003,None,153.1078408000003,None,153.1078408000003,None,153.1078408000003,None,153.1078408000003,None,153.1078408000003,None,153.1078408000003,None,k,1,0.32147729999996955,153.1078408000003,None,,,,,,,,,,,,,12,001,2022_Oct_10_1255,Flanker,2021.2.0,241.9315817486452,
incongruent-right.jpg,0,k,left_arrow.png,left_arrow.png,left_arrow.png,right_arrow.png,left_arrow.png,left_arrow.png,left_arrow.png,,,,,5,3,33,3,,,,,,,,,,,,,153.44153589999996,None,,,,,,,,,,,,,,,,,,,,,,,,,,,,,,154.4509820000003,None,154.4509820000003,None,154.4509820000003,None,154.4509820000003,None,154.4509820000003,None,154.4509820000003,None,154.4509820000003,None,k,1,0.3624923999996099,154.4509820000003,None,,,,,,,,,,,,,12,001,2022_Oct_10_1255,Flanker,2021.2.0,241.9315817486452,
congruent-left.jpg,1,a,left_arrow.png,left_arrow.png,left_arrow.png,left_arrow.png,left_arrow.png,left_arrow.png,left_arrow.png,,,,,5,4,34,0,,,,,,,,,,,,,154.82631700000002,None,,,,,,,,,,,,,,,,,,,,,,,,,,,,,,155.8357764000002,None,155.8357764000002,None,155.8357764000002,None,155.8357764000002,None,155.8357764000002,None,155.8357764000002,None,155.8357764000002,None,a,1,0.40989029999991544,155.8357764000002,None,,,,,,,,,,,,,12,001,2022_Oct_10_1255,Flanker,2021.2.0,241.9315817486452,
congruent-left.jpg,1,a,left_arrow.png,left_arrow.png,left_arrow.png,left_arrow.png,left_arrow.png,left_arrow.png,left_arrow.png,,,,,5,5,35,0,,,,,,,,,,,,,156.2611781999999,None,,,,,,,,,,,,,,,,,,,,,,,,,,,,,,157.2747460999999,None,157.2747460999999,None,157.2747460999999,None,157.2747460999999,None,157.2747460999999,None,157.2747460999999,None,157.2747460999999,None,a,1,0.39527730000008887,157.2747460999999,None,,,,,,,,,,,,,12,001,2022_Oct_10_1255,Flanker,2021.2.0,241.9315817486452,
neutral left,0,a,neutral.png,neutral.png,neutral.png,left_arrow.png,neutral.png,neutral.png,neutral.png,,,,,6,0,36,4,,,,,,,,,,,,,157.68351380000013,None,,,,,,,,,,,,,,,,,,,,,,,,,,,,,,158.69293370000014,None,158.69293370000014,None,158.69293370000014,None,158.69293370000014,None,158.69293370000014,None,158.69293370000014,None,158.69293370000014,None,a,1,0.3693497999997817,158.69293370000014,None,,,,,,,,,,,,,12,001,2022_Oct_10_1255,Flanker,2021.2.0,241.9315817486452,
congruent-left.jpg,1,a,left_arrow.png,left_arrow.png,left_arrow.png,left_arrow.png,left_arrow.png,left_arrow.png,left_arrow.png,,,,,6,1,37,0,,,,,,,,,,,,,159.07666719999997,None,,,,,,,,,,,,,,,,,,,,,,,,,,,,,,160.09439890000021,None,160.09439890000021,None,160.09439890000021,None,160.09439890000021,None,160.09439890000021,None,160.09439890000021,None,160.09439890000021,None,a,1,0.3199936999999409,160.09439890000021,None,,,,,,,,,,,,,12,001,2022_Oct_10_1255,Flanker,2021.2.0,241.9315817486452,
congruent-right.jpg,1,k,right_arrow.png,right_arrow.png,right_arrow.png,right_arrow.png,right_arrow.png,right_arrow.png,right_arrow.png,,,,,6,2,38,2,,,,,,,,,,,,,160.42815870000004,None,,,,,,,,,,,,,,,,,,,,,,,,,,,,,,161.44168200000013,None,161.44168200000013,None,161.44168200000013,None,161.44168200000013,None,161.44168200000013,None,161.44168200000013,None,161.44168200000013,None,k,1,0.4610714000000371,161.44168200000013,None,,,,,,,,,,,,,12,001,2022_Oct_10_1255,Flanker,2021.2.0,241.9315817486452,
neutral left,0,a,neutral.png,neutral.png,neutral.png,left_arrow.png,neutral.png,neutral.png,neutral.png,,,,,6,3,39,4,,,,,,,,,,,,,161.91717450000033,None,,,,,,,,,,,,,,,,,,,,,,,,,,,,,,162.92655779999996,None,162.92655779999996,None,162.92655779999996,None,162.92655779999996,None,162.92655779999996,None,162.92655779999996,None,162.92655779999996,None,a,1,0.3447375999999167,162.92655779999996,None,,,,,,,,,,,,,12,001,2022_Oct_10_1255,Flanker,2021.2.0,241.9315817486452,
neutral right,0,k,neutral.png,neutral.png,neutral.png,right_arrow.png,neutral.png,neutral.png,neutral.png,,,,,6,4,40,5,,,,,,,,,,,,,163.28534630000013,None,,,,,,,,,,,,,,,,,,,,,,,,,,,,,,164.29482869999993,None,164.29482869999993,None,164.29482869999993,None,164.29482869999993,None,164.29482869999993,None,164.29482869999993,None,164.29482869999993,None,k,1,0.2959286999998767,164.29482869999993,None,,,,,,,,,,,,,12,001,2022_Oct_10_1255,Flanker,2021.2.0,241.9315817486452,
incongruent-left.jpg,0,a,right_arrow.png,right_arrow.png,right_arrow.png,left_arrow.png,right_arrow.png,right_arrow.png,right_arrow.png,,,,,6,5,41,1,,,,,,,,,,,,,164.60356120000006,None,,,,,,,,,,,,,,,,,,,,,,,,,,,,,,165.61692820000007,None,165.61692820000007,None,165.61692820000007,None,165.61692820000007,None,165.61692820000007,None,165.61692820000007,None,165.61692820000007,None,a,1,0.35830510000005233,165.61692820000007,None,,,,,,,,,,,,,12,001,2022_Oct_10_1255,Flanker,2021.2.0,241.9315817486452,
incongruent-right.jpg,0,k,left_arrow.png,left_arrow.png,left_arrow.png,right_arrow.png,left_arrow.png,left_arrow.png,left_arrow.png,,,,,7,0,42,3,,,,,,,,,,,,,165.9924034999999,None,,,,,,,,,,,,,,,,,,,,,,,,,,,,,,167.0059583000002,None,167.0059583000002,None,167.0059583000002,None,167.0059583000002,None,167.0059583000002,None,167.0059583000002,None,167.0059583000002,None,k,1,0.44933279999986553,167.0059583000002,None,,,,,,,,,,,,,12,001,2022_Oct_10_1255,Flanker,2021.2.0,241.9315817486452,
congruent-right.jpg,1,k,right_arrow.png,right_arrow.png,right_arrow.png,right_arrow.png,right_arrow.png,right_arrow.png,right_arrow.png,,,,,7,1,43,2,,,,,,,,,,,,,167.4728828000002,None,,,,,,,,,,,,,,,,,,,,,,,,,,,,,,168.4864560000001,None,168.4864560000001,None,168.4864560000001,None,168.4864560000001,None,168.4864560000001,None,168.4864560000001,None,168.4864560000001,None,a,0,0.34489720000010493,168.4864560000001,None,,,,,,,,,,,,,12,001,2022_Oct_10_1255,Flanker,2021.2.0,241.9315817486452,
incongruent-right.jpg,0,k,left_arrow.png,left_arrow.png,left_arrow.png,right_arrow.png,left_arrow.png,left_arrow.png,left_arrow.png,,,,,7,2,44,3,,,,,,,,,,,,,168.8453586999999,None,,,,,,,,,,,,,,,,,,,,,,,,,,,,,,169.8547309999999,None,169.8547309999999,None,169.8547309999999,None,169.8547309999999,None,169.8547309999999,None,169.8547309999999,None,169.8547309999999,None,k,1,0.44098499999972773,169.8547309999999,None,,,,,,,,,,,,,12,001,2022_Oct_10_1255,Flanker,2021.2.0,241.9315817486452,
congruent-right.jpg,1,k,right_arrow.png,right_arrow.png,right_arrow.png,right_arrow.png,right_arrow.png,right_arrow.png,right_arrow.png,,,,,7,3,45,2,,,,,,,,,,,,,170.3133995000003,None,,,,,,,,,,,,,,,,,,,,,,,,,,,,,,171.3227935,None,171.3227935,None,171.3227935,None,171.3227935,None,171.3227935,None,171.3227935,None,171.3227935,None,k,1,0.4529304999996384,171.3227935,None,,,,,,,,,,,,,12,001,2022_Oct_10_1255,Flanker,2021.2.0,241.9315817486452,
neutral left,0,a,neutral.png,neutral.png,neutral.png,left_arrow.png,neutral.png,neutral.png,neutral.png,,,,,7,4,46,4,,,,,,,,,,,,,171.7944207999999,None,,,,,,,,,,,,,,,,,,,,,,,,,,,,,,172.8035479,None,172.8035479,None,172.8035479,None,172.8035479,None,172.8035479,None,172.8035479,None,172.8035479,None,a,1,0.4128272000002653,172.8035479,None,,,,,,,,,,,,,12,001,2022_Oct_10_1255,Flanker,2021.2.0,241.9315817486452,
incongruent-left.jpg,0,a,right_arrow.png,right_arrow.png,right_arrow.png,left_arrow.png,right_arrow.png,right_arrow.png,right_arrow.png,,,,,7,5,47,1,,,,,,,,,,,,,173.22898609999993,None,,,,,,,,,,,,,,,,,,,,,,,,,,,,,,174.23875679999992,None,174.23875679999992,None,174.23875679999992,None,174.23875679999992,None,174.23875679999992,None,174.23875679999992,None,174.23875679999992,None,a,1,0.44940120000001116,174.23875679999992,None,,,,,,,,,,,,,12,001,2022_Oct_10_1255,Flanker,2021.2.0,241.9315817486452,
,,,,,,,,,,,,,,,,,,,,,,,,,,,,,,,,,,,,,,,,,,,,,,,,,,,,,,,,,,,,,,,,,,,,,,,,,,,,,,,,174.71814620000032,None,space,13.780013699999927,174.71814620000032,None,,,,,,,12,001,2022_Oct_10_1255,Flanker,2021.2.0,241.9315817486452,
neutral left,0,a,neutral.png,neutral.png,neutral.png,left_arrow.png,neutral.png,neutral.png,neutral.png,,,,,,,,,0,0,0,4,,,,,,,,,188.5245705000002,None,,,,,,,,,,,,,,,,,,,,,,,,,,,,,,189.5298075999999,None,189.5298075999999,None,189.5298075999999,None,189.5298075999999,None,189.5298075999999,None,189.5298075999999,None,189.5298075999999,None,a,1,0.6407054999999673,189.5298075999999,None,,,,,,,,,,,,,12,001,2022_Oct_10_1255,Flanker,2021.2.0,241.9315817486452,
congruent-right.jpg,1,k,right_arrow.png,right_arrow.png,right_arrow.png,right_arrow.png,right_arrow.png,right_arrow.png,right_arrow.png,,,,,,,,,0,1,1,2,,,,,,,,,190.18874730000016,None,,,,,,,,,,,,,,,,,,,,,,,,,,,,,,191.20660859999998,None,191.20660859999998,None,191.20660859999998,None,191.20660859999998,None,191.20660859999998,None,191.20660859999998,None,191.20660859999998,None,k,1,1.2519155000004503,191.20660859999998,None,,,,,,,,,,,,,12,001,2022_Oct_10_1255,Flanker,2021.2.0,241.9315817486452,
incongruent-left.jpg,0,a,right_arrow.png,right_arrow.png,right_arrow.png,left_arrow.png,right_arrow.png,right_arrow.png,right_arrow.png,,,,,,,,,0,2,2,1,,,,,,,,,192.47451279999996,None,,,,,,,,,,,,,,,,,,,,,,,,,,,,,,193.48375440000018,None,193.48375440000018,None,193.48375440000018,None,193.48375440000018,None,193.48375440000018,None,193.48375440000018,None,193.48375440000018,None,a,1,0.5830165000002125,193.48375440000018,None,,,,,,,,,,,,,12,001,2022_Oct_10_1255,Flanker,2021.2.0,241.9315817486452,
neutral left,0,a,neutral.png,neutral.png,neutral.png,left_arrow.png,neutral.png,neutral.png,neutral.png,,,,,,,,,0,3,3,4,,,,,,,,,194.08440380000002,None,,,,,,,,,,,,,,,,,,,,,,,,,,,,,,195.0939443000002,None,195.0939443000002,None,195.0939443000002,None,195.0939443000002,None,195.0939443000002,None,195.0939443000002,None,195.0939443000002,None,a,1,0.42101739999998244,195.0939443000002,None,,,,,,,,,,,,,12,001,2022_Oct_10_1255,Flanker,2021.2.0,241.9315817486452,
incongruent-right.jpg,0,k,left_arrow.png,left_arrow.png,left_arrow.png,right_arrow.png,left_arrow.png,left_arrow.png,left_arrow.png,,,,,,,,,0,4,4,3,,,,,,,,,195.52763970000024,None,,,,,,,,,,,,,,,,,,,,,,,,,,,,,,196.54123600000003,None,196.54123600000003,None,196.54123600000003,None,196.54123600000003,None,196.54123600000003,None,196.54123600000003,None,196.54123600000003,None,k,1,0.4859364999997524,196.54123600000003,None,,,,,,,,,,,,,12,001,2022_Oct_10_1255,Flanker,2021.2.0,241.9315817486452,
neutral left,0,a,neutral.png,neutral.png,neutral.png,left_arrow.png,neutral.png,neutral.png,neutral.png,,,,,,,,,0,5,5,4,,,,,,,,,197.04184990000022,None,,,,,,,,,,,,,,,,,,,,,,,,,,,,,,198.05959299999995,None,198.05959299999995,None,198.05959299999995,None,198.05959299999995,None,198.05959299999995,None,198.05959299999995,None,198.05959299999995,None,a,1,0.38399429999981294,198.05959299999995,None,,,,,,,,,,,,,12,001,2022_Oct_10_1255,Flanker,2021.2.0,241.9315817486452,
congruent-left.jpg,1,a,left_arrow.png,left_arrow.png,left_arrow.png,left_arrow.png,left_arrow.png,left_arrow.png,left_arrow.png,,,,,,,,,1,0,6,0,,,,,,,,,198.46003580000024,None,,,,,,,,,,,,,,,,,,,,,,,,,,,,,,199.47358789999998,None,199.47358789999998,None,199.47358789999998,None,199.47358789999998,None,199.47358789999998,None,199.47358789999998,None,199.47358789999998,None,a,1,0.45808249999981854,199.47358789999998,None,,,,,,,,,,,,,12,001,2022_Oct_10_1255,Flanker,2021.2.0,241.9315817486452,
neutral right,0,k,neutral.png,neutral.png,neutral.png,right_arrow.png,neutral.png,neutral.png,neutral.png,,,,,,,,,1,1,7,5,,,,,,,,,199.94909430000007,None,,,,,,,,,,,,,,,,,,,,,,,,,,,,,,200.96275700000024,None,200.96275700000024,None,200.96275700000024,None,200.96275700000024,None,200.96275700000024,None,200.96275700000024,None,200.96275700000024,None,k,1,0.368971099999726,200.96275700000024,None,,,,,,,,,,,,,12,001,2022_Oct_10_1255,Flanker,2021.2.0,241.9315817486452,
incongruent-left.jpg,0,a,right_arrow.png,right_arrow.png,right_arrow.png,left_arrow.png,right_arrow.png,right_arrow.png,right_arrow.png,,,,,,,,,1,2,8,1,,,,,,,,,201.34657289999996,None,,,,,,,,,,,,,,,,,,,,,,,,,,,,,,202.35985110000001,None,202.35985110000001,None,202.35985110000001,None,202.35985110000001,None,202.35985110000001,None,202.35985110000001,None,202.35985110000001,None,a,1,0.46031900000025416,202.35985110000001,None,,,,,,,,,,,,,12,001,2022_Oct_10_1255,Flanker,2021.2.0,241.9315817486452,
neutral left,0,a,neutral.png,neutral.png,neutral.png,left_arrow.png,neutral.png,neutral.png,neutral.png,,,,,,,,,1,3,9,4,,,,,,,,,202.83532650000006,None,,,,,,,,,,,,,,,,,,,,,,,,,,,,,,203.84486800000013,None,203.84486800000013,None,203.84486800000013,None,203.84486800000013,None,203.84486800000013,None,203.84486800000013,None,203.84486800000013,None,a,1,0.35933180000029097,203.84486800000013,None,,,,,,,,,,,,,12,001,2022_Oct_10_1255,Flanker,2021.2.0,241.9315817486452,
congruent-right.jpg,1,k,right_arrow.png,right_arrow.png,right_arrow.png,right_arrow.png,right_arrow.png,right_arrow.png,right_arrow.png,,,,,,,,,1,4,10,2,,,,,,,,,204.22034910000002,None,,,,,,,,,,,,,,,,,,,,,,,,,,,,,,205.23396890000004,None,205.23396890000004,None,205.23396890000004,None,205.23396890000004,None,205.23396890000004,None,205.23396890000004,None,205.23396890000004,None,k,1,0.34633060000032856,205.23396890000004,None,,,,,,,,,,,,,12,001,2022_Oct_10_1255,Flanker,2021.2.0,241.9315817486452,
incongruent-right.jpg,0,k,left_arrow.png,left_arrow.png,left_arrow.png,right_arrow.png,left_arrow.png,left_arrow.png,left_arrow.png,,,,,,,,,1,5,11,3,,,,,,,,,205.59266370000023,None,,,,,,,,,,,,,,,,,,,,,,,,,,,,,,206.6018541000003,None,206.6018541000003,None,206.6018541000003,None,206.6018541000003,None,206.6018541000003,None,206.6018541000003,None,206.6018541000003,None,a,0,0.25876689999995506,206.6018541000003,None,,,,,,,,,,,,,12,001,2022_Oct_10_1255,Flanker,2021.2.0,241.9315817486452,
congruent-left.jpg,1,a,left_arrow.png,left_arrow.png,left_arrow.png,left_arrow.png,left_arrow.png,left_arrow.png,left_arrow.png,,,,,,,,,2,0,12,0,,,,,,,,,206.8773357,None,,,,,,,,,,,,,,,,,,,,,,,,,,,,,,207.89066760000014,None,207.89066760000014,None,207.89066760000014,None,207.89066760000014,None,207.89066760000014,None,207.89066760000014,None,207.89066760000014,None,a,1,0.42600820000006934,207.89066760000014,None,,,,,,,,,,,,,12,001,2022_Oct_10_1255,Flanker,2021.2.0,241.9315817486452,
congruent-right.jpg,1,k,right_arrow.png,right_arrow.png,right_arrow.png,right_arrow.png,right_arrow.png,right_arrow.png,right_arrow.png,,,,,,,,,2,1,13,2,,,,,,,,,208.33296530000007,None,,,,,,,,,,,,,,,,,,,,,,,,,,,,,,209.34657130000005,None,209.34657130000005,None,209.34657130000005,None,209.34657130000005,None,209.34657130000005,None,209.34657130000005,None,209.34657130000005,None,k,1,0.3785107000003336,209.34657130000005,None,,,,,,,,,,,,,12,001,2022_Oct_10_1255,Flanker,2021.2.0,241.9315817486452,
incongruent-right.jpg,0,k,left_arrow.png,left_arrow.png,left_arrow.png,right_arrow.png,left_arrow.png,left_arrow.png,left_arrow.png,,,,,,,,,2,2,14,3,,,,,,,,,209.73847410000008,None,,,,,,,,,,,,,,,,,,,,,,,,,,,,,,210.74764510000023,None,210.74764510000023,None,210.74764510000023,None,210.74764510000023,None,210.74764510000023,None,210.74764510000023,None,210.74764510000023,None,k,1,0.44155640000008134,210.74764510000023,None,,,,,,,,,,,,,12,001,2022_Oct_10_1255,Flanker,2021.2.0,241.9315817486452,
neutral right,0,k,neutral.png,neutral.png,neutral.png,right_arrow.png,neutral.png,neutral.png,neutral.png,,,,,,,,,2,3,15,5,,,,,,,,,211.20690409999997,None,,,,,,,,,,,,,,,,,,,,,,,,,,,,,,212.21614180000006,None,212.21614180000006,None,212.21614180000006,None,212.21614180000006,None,212.21614180000006,None,212.21614180000006,None,212.21614180000006,None,k,1,0.3654399000001831,212.21614180000006,None,,,,,,,,,,,,,12,001,2022_Oct_10_1255,Flanker,2021.2.0,241.9315817486452,
congruent-left.jpg,1,a,left_arrow.png,left_arrow.png,left_arrow.png,left_arrow.png,left_arrow.png,left_arrow.png,left_arrow.png,,,,,,,,,2,4,16,0,,,,,,,,,212.59983230000034,None,,,,,,,,,,,,,,,,,,,,,,,,,,,,,,213.60936859999993,None,213.60936859999993,None,213.60936859999993,None,213.60936859999993,None,213.60936859999993,None,213.60936859999993,None,213.60936859999993,None,a,1,0.35606189999998605,213.60936859999993,None,,,,,,,,,,,,,12,001,2022_Oct_10_1255,Flanker,2021.2.0,241.9315817486452,
neutral left,0,a,neutral.png,neutral.png,neutral.png,left_arrow.png,neutral.png,neutral.png,neutral.png,,,,,,,,,2,5,17,4,,,,,,,,,213.9847963000002,None,,,,,,,,,,,,,,,,,,,,,,,,,,,,,,214.9940856000003,None,214.9940856000003,None,214.9940856000003,None,214.9940856000003,None,214.9940856000003,None,214.9940856000003,None,214.9940856000003,None,a,1,0.36353009999993446,214.9940856000003,None,,,,,,,,,,,,,12,001,2022_Oct_10_1255,Flanker,2021.2.0,241.9315817486452,
congruent-right.jpg,1,k,right_arrow.png,right_arrow.png,right_arrow.png,right_arrow.png,right_arrow.png,right_arrow.png,right_arrow.png,,,,,,,,,3,0,18,2,,,,,,,,,215.3695829000003,None,,,,,,,,,,,,,,,,,,,,,,,,,,,,,,216.37883550000015,None,216.37883550000015,None,216.37883550000015,None,216.37883550000015,None,216.37883550000015,None,216.37883550000015,None,216.37883550000015,None,k,1,0.4029927999999927,216.37883550000015,None,,,,,,,,,,,,,12,001,2022_Oct_10_1255,Flanker,2021.2.0,241.9315817486452,
incongruent-left.jpg,0,a,right_arrow.png,right_arrow.png,right_arrow.png,left_arrow.png,right_arrow.png,right_arrow.png,right_arrow.png,,,,,,,,,3,1,19,1,,,,,,,,,216.79609449999998,None,,,,,,,,,,,,,,,,,,,,,,,,,,,,,,217.80537660000027,None,217.80537660000027,None,217.80537660000027,None,217.80537660000027,None,217.80537660000027,None,217.80537660000027,None,217.80537660000027,None,a,1,0.344647200000054,217.80537660000027,None,,,,,,,,,,,,,12,001,2022_Oct_10_1255,Flanker,2021.2.0,241.9315817486452,
neutral right,0,k,neutral.png,neutral.png,neutral.png,right_arrow.png,neutral.png,neutral.png,neutral.png,,,,,,,,,3,2,20,5,,,,,,,,,218.16427939999994,None,,,,,,,,,,,,,,,,,,,,,,,,,,,,,,219.17361070000015,None,219.17361070000015,None,219.17361070000015,None,219.17361070000015,None,219.17361070000015,None,219.17361070000015,None,219.17361070000015,None,k,1,0.3445779999997285,219.17361070000015,None,,,,,,,,,,,,,12,001,2022_Oct_10_1255,Flanker,2021.2.0,241.9315817486452,
neutral left,0,a,neutral.png,neutral.png,neutral.png,left_arrow.png,neutral.png,neutral.png,neutral.png,,,,,,,,,3,3,21,4,,,,,,,,,219.53231899999992,None,,,,,,,,,,,,,,,,,,,,,,,,,,,,,,220.5374053999999,None,220.5374053999999,None,220.5374053999999,None,220.5374053999999,None,220.5374053999999,None,220.5374053999999,None,220.5374053999999,None,a,1,0.31709730000011405,220.5374053999999,None,,,,,,,,,,,,,12,001,2022_Oct_10_1255,Flanker,2021.2.0,241.9315817486452,
neutral right,0,k,neutral.png,neutral.png,neutral.png,right_arrow.png,neutral.png,neutral.png,neutral.png,,,,,,,,,3,4,22,5,,,,,,,,,220.87136090000013,None,,,,,,,,,,,,,,,,,,,,,,,,,,,,,,221.88474210000004,None,221.88474210000004,None,221.88474210000004,None,221.88474210000004,None,221.88474210000004,None,221.88474210000004,None,221.88474210000004,None,k,1,0.29776300000003175,221.88474210000004,None,,,,,,,,,,,,,12,001,2022_Oct_10_1255,Flanker,2021.2.0,241.9315817486452,
congruent-left.jpg,1,a,left_arrow.png,left_arrow.png,left_arrow.png,left_arrow.png,left_arrow.png,left_arrow.png,left_arrow.png,,,,,,,,,3,5,23,0,,,,,,,,,222.20166880000033,None,,,,,,,,,,,,,,,,,,,,,,,,,,,,,,223.2110660000003,None,223.2110660000003,None,223.2110660000003,None,223.2110660000003,None,223.2110660000003,None,223.2110660000003,None,223.2110660000003,None,a,1,0.2516356999999516,223.2110660000003,None,,,,,,,,,,,,,12,001,2022_Oct_10_1255,Flanker,2021.2.0,241.9315817486452,
incongruent-right.jpg,0,k,left_arrow.png,left_arrow.png,left_arrow.png,right_arrow.png,left_arrow.png,left_arrow.png,left_arrow.png,,,,,,,,,4,0,24,3,,,,,,,,,223.4781995000003,None,,,,,,,,,,,,,,,,,,,,,,,,,,,,,,224.48741860000018,None,224.48741860000018,None,224.48741860000018,None,224.48741860000018,None,224.48741860000018,None,224.48741860000018,None,224.48741860000018,None,k,1,0.24745089999987613,224.48741860000018,None,,,,,,,,,,,,,12,001,2022_Oct_10_1255,Flanker,2021.2.0,241.9315817486452,
incongruent-left.jpg,0,a,right_arrow.png,right_arrow.png,right_arrow.png,left_arrow.png,right_arrow.png,right_arrow.png,right_arrow.png,,,,,,,,,4,1,25,1,,,,,,,,,224.74619710000024,None,,,,,,,,,,,,,,,,,,,,,,,,,,,,,,225.75556210000013,None,225.75556210000013,None,225.75556210000013,None,225.75556210000013,None,225.75556210000013,None,225.75556210000013,None,225.75556210000013,None,a,1,0.29953440000008413,225.75556210000013,None,,,,,,,,,,,,,12,001,2022_Oct_10_1255,Flanker,2021.2.0,241.9315817486452,
incongruent-left.jpg,0,a,right_arrow.png,right_arrow.png,right_arrow.png,left_arrow.png,right_arrow.png,right_arrow.png,right_arrow.png,,,,,,,,,4,2,26,1,,,,,,,,,226.07257890000028,None,,,,,,,,,,,,,,,,,,,,,,,,,,,,,,227.0861490000002,None,227.0861490000002,None,227.0861490000002,None,227.0861490000002,None,227.0861490000002,None,227.0861490000002,None,227.0861490000002,None,k,0,0.2890956000001097,227.0861490000002,None,,,,,,,,,,,,,12,001,2022_Oct_10_1255,Flanker,2021.2.0,241.9315817486452,
neutral right,0,k,neutral.png,neutral.png,neutral.png,right_arrow.png,neutral.png,neutral.png,neutral.png,,,,,,,,,4,3,27,5,,,,,,,,,227.39482140000018,None,,,,,,,,,,,,,,,,,,,,,,,,,,,,,,228.40838540000004,None,228.40838540000004,None,228.40838540000004,None,228.40838540000004,None,228.40838540000004,None,228.40838540000004,None,228.40838540000004,None,k,1,0.44704090000004726,228.40838540000004,None,,,,,,,,,,,,,12,001,2022_Oct_10_1255,Flanker,2021.2.0,241.9315817486452,
incongruent-right.jpg,0,k,left_arrow.png,left_arrow.png,left_arrow.png,right_arrow.png,left_arrow.png,left_arrow.png,left_arrow.png,,,,,,,,,4,4,28,3,,,,,,,,,228.86722050000026,None,,,,,,,,,,,,,,,,,,,,,,,,,,,,,,229.88078140000016,None,229.88078140000016,None,229.88078140000016,None,229.88078140000016,None,229.88078140000016,None,229.88078140000016,None,229.88078140000016,None,k,1,0.4388467999997374,229.88078140000016,None,,,,,,,,,,,,,12,001,2022_Oct_10_1255,Flanker,2021.2.0,241.9315817486452,
neutral right,0,k,neutral.png,neutral.png,neutral.png,right_arrow.png,neutral.png,neutral.png,neutral.png,,,,,,,,,4,5,29,5,,,,,,,,,230.3313594000001,None,,,,,,,,,,,,,,,,,,,,,,,,,,,,,,231.34482449999996,None,231.34482449999996,None,231.34482449999996,None,231.34482449999996,None,231.34482449999996,None,231.34482449999996,None,231.34482449999996,None,k,1,0.3511177999998836,231.34482449999996,None,,,,,,,,,,,,,12,001,2022_Oct_10_1255,Flanker,2021.2.0,241.9315817486452,
congruent-right.jpg,1,k,right_arrow.png,right_arrow.png,right_arrow.png,right_arrow.png,right_arrow.png,right_arrow.png,right_arrow.png,,,,,,,,,5,0,30,2,,,,,,,,,231.71206570000004,None,,,,,,,,,,,,,,,,,,,,,,,,,,,,,,232.7254772000001,None,232.7254772000001,None,232.7254772000001,None,232.7254772000001,None,232.7254772000001,None,232.7254772000001,None,232.7254772000001,None,k,1,0.44272719999980836,232.7254772000001,None,,,,,,,,,,,,,12,001,2022_Oct_10_1255,Flanker,2021.2.0,241.9315817486452,
congruent-right.jpg,1,k,right_arrow.png,right_arrow.png,right_arrow.png,right_arrow.png,right_arrow.png,right_arrow.png,right_arrow.png,,,,,,,,,5,1,31,2,,,,,,,,,233.18427800000018,None,,,,,,,,,,,,,,,,,,,,,,,,,,,,,,234.19373859999996,None,234.19373859999996,None,234.19373859999996,None,234.19373859999996,None,234.19373859999996,None,234.19373859999996,None,234.19373859999996,None,k,1,0.39080909999984215,234.19373859999996,None,,,,,,,,,,,,,12,001,2022_Oct_10_1255,Flanker,2021.2.0,241.9315817486452,
incongruent-right.jpg,0,k,left_arrow.png,left_arrow.png,left_arrow.png,right_arrow.png,left_arrow.png,left_arrow.png,left_arrow.png,,,,,,,,,5,2,32,3,,,,,,,,,234.6025614,None,,,,,,,,,,,,,,,,,,,,,,,,,,,,,,235.61199979999992,None,235.61199979999992,None,235.61199979999992,None,235.61199979999992,None,235.61199979999992,None,235.61199979999992,None,235.61199979999992,None,k,1,0.3723832000000584,235.61199979999992,None,,,,,,,,,,,,,12,001,2022_Oct_10_1255,Flanker,2021.2.0,241.9315817486452,
congruent-right.jpg,1,k,right_arrow.png,right_arrow.png,right_arrow.png,right_arrow.png,right_arrow.png,right_arrow.png,right_arrow.png,,,,,,,,,5,3,33,2,,,,,,,,,236.00381730000026,None,,,,,,,,,,,,,,,,,,,,,,,,,,,,,,237.02173949999997,None,237.02173949999997,None,237.02173949999997,None,237.02173949999997,None,237.02173949999997,None,237.02173949999997,None,237.02173949999997,None,k,1,0.4115889999998217,237.02173949999997,None,,,,,,,,,,,,,12,001,2022_Oct_10_1255,Flanker,2021.2.0,241.9315817486452,
neutral right,0,k,neutral.png,neutral.png,neutral.png,right_arrow.png,neutral.png,neutral.png,neutral.png,,,,,,,,,5,4,34,5,,,,,,,,,237.44721320000008,None,,,,,,,,,,,,,,,,,,,,,,,,,,,,,,238.46072090000007,None,238.46072090000007,None,238.46072090000007,None,238.46072090000007,None,238.46072090000007,None,238.46072090000007,None,238.46072090000007,None,k,1,0.3960164000000077,238.46072090000007,None,,,,,,,,,,,,,12,001,2022_Oct_10_1255,Flanker,2021.2.0,241.9315817486452,
incongruent-left.jpg,0,a,right_arrow.png,right_arrow.png,right_arrow.png,left_arrow.png,right_arrow.png,right_arrow.png,right_arrow.png,,,,,,,,,5,5,35,1,,,,,,,,,238.86947450000025,None,,,,,,,,,,,,,,,,,,,,,,,,,,,,,,239.88292090000004,None,239.88292090000004,None,239.88292090000004,None,239.88292090000004,None,239.88292090000004,None,239.88292090000004,None,239.88292090000004,None,a,1,0.5342163999998775,239.88292090000004,None,,,,,,,,,,,,,12,001,2022_Oct_10_1255,Flanker,2021.2.0,241.9315817486452,
congruent-right.jpg,1,k,right_arrow.png,right_arrow.png,right_arrow.png,right_arrow.png,right_arrow.png,right_arrow.png,right_arrow.png,,,,,,,,,6,0,36,2,,,,,,,,,240.4336999000002,None,,,,,,,,,,,,,,,,,,,,,,,,,,,,,,241.4512568,None,241.4512568,None,241.4512568,None,241.4512568,None,241.4512568,None,241.4512568,None,241.4512568,None,k,1,0.5179370000000745,241.4512568,None,,,,,,,,,,,,,12,001,2022_Oct_10_1255,Flanker,2021.2.0,241.9315817486452,
incongruent-left.jpg,0,a,right_arrow.png,right_arrow.png,right_arrow.png,left_arrow.png,right_arrow.png,right_arrow.png,right_arrow.png,,,,,,,,,6,1,37,1,,,,,,,,,241.9852708000003,None,,,,,,,,,,,,,,,,,,,,,,,,,,,,,,242.99057420000008,None,242.99057420000008,None,242.99057420000008,None,242.99057420000008,None,242.99057420000008,None,242.99057420000008,None,242.99057420000008,None,a,1,0.4670387999999548,242.99057420000008,None,,,,,,,,,,,,,12,001,2022_Oct_10_1255,Flanker,2021.2.0,241.9315817486452,
congruent-left.jpg,1,a,left_arrow.png,left_arrow.png,left_arrow.png,left_arrow.png,left_arrow.png,left_arrow.png,left_arrow.png,,,,,,,,,6,2,38,0,,,,,,,,,243.47441560000016,None,,,,,,,,,,,,,,,,,,,,,,,,,,,,,,244.49219200000016,None,244.49219200000016,None,244.49219200000016,None,244.49219200000016,None,244.49219200000016,None,244.49219200000016,None,244.49219200000016,None,a,1,0.4213817000004383,244.49219200000016,None,,,,,,,,,,,,,12,001,2022_Oct_10_1255,Flanker,2021.2.0,241.9315817486452,
congruent-left.jpg,1,a,left_arrow.png,left_arrow.png,left_arrow.png,left_arrow.png,left_arrow.png,left_arrow.png,left_arrow.png,,,,,,,,,6,3,39,0,,,,,,,,,244.9259551,None,,,,,,,,,,,,,,,,,,,,,,,,,,,,,,245.93952160000026,None,245.93952160000026,None,245.93952160000026,None,245.93952160000026,None,245.93952160000026,None,245.93952160000026,None,245.93952160000026,None,a,1,0.3664349000000584,245.93952160000026,None,,,,,,,,,,,,,12,001,2022_Oct_10_1255,Flanker,2021.2.0,241.9315817486452,
neutral left,0,a,neutral.png,neutral.png,neutral.png,left_arrow.png,neutral.png,neutral.png,neutral.png,,,,,,,,,6,4,40,4,,,,,,,,,246.32336759999998,None,,,,,,,,,,,,,,,,,,,,,,,,,,,,,,247.33677119999993,None,247.33677119999993,None,247.33677119999993,None,247.33677119999993,None,247.33677119999993,None,247.33677119999993,None,247.33677119999993,None,a,1,0.3774396999997407,247.33677119999993,None,,,,,,,,,,,,,12,001,2022_Oct_10_1255,Flanker,2021.2.0,241.9315817486452,
congruent-left.jpg,1,a,left_arrow.png,left_arrow.png,left_arrow.png,left_arrow.png,left_arrow.png,left_arrow.png,left_arrow.png,,,,,,,,,6,5,41,0,,,,,,,,,247.72898680000026,None,,,,,,,,,,,,,,,,,,,,,,,,,,,,,,248.74243590000015,None,248.74243590000015,None,248.74243590000015,None,248.74243590000015,None,248.74243590000015,None,248.74243590000015,None,248.74243590000015,None,a,1,0.3797082999999475,248.74243590000015,None,,,,,,,,,,,,,12,001,2022_Oct_10_1255,Flanker,2021.2.0,241.9315817486452,
congruent-left.jpg,1,a,left_arrow.png,left_arrow.png,left_arrow.png,left_arrow.png,left_arrow.png,left_arrow.png,left_arrow.png,,,,,,,,,7,0,42,0,,,,,,,,,249.13455730000032,None,,,,,,,,,,,,,,,,,,,,,,,,,,,,,,250.14398630000005,None,250.14398630000005,None,250.14398630000005,None,250.14398630000005,None,250.14398630000005,None,250.14398630000005,None,250.14398630000005,None,a,1,0.35431540000035966,250.14398630000005,None,,,,,,,,,,,,,12,001,2022_Oct_10_1255,Flanker,2021.2.0,241.9315817486452,
incongruent-left.jpg,0,a,right_arrow.png,right_arrow.png,right_arrow.png,left_arrow.png,right_arrow.png,right_arrow.png,right_arrow.png,,,,,,,,,7,1,43,1,,,,,,,,,250.51096800000005,None,,,,,,,,,,,,,,,,,,,,,,,,,,,,,,251.51645929999995,None,251.51645929999995,None,251.51645929999995,None,251.51645929999995,None,251.51645929999995,None,251.51645929999995,None,251.51645929999995,None,a,1,0.41405950000034863,251.51645929999995,None,,,,,,,,,,,,,12,001,2022_Oct_10_1255,Flanker,2021.2.0,241.9315817486452,
neutral left,0,a,neutral.png,neutral.png,neutral.png,left_arrow.png,neutral.png,neutral.png,neutral.png,,,,,,,,,7,2,44,4,,,,,,,,,251.94172220000019,None,,,,,,,,,,,,,,,,,,,,,,,,,,,,,,252.95506969999997,None,252.95506969999997,None,252.95506969999997,None,252.95506969999997,None,252.95506969999997,None,252.95506969999997,None,252.95506969999997,None,a,1,0.35977809999985766,252.95506969999997,None,,,,,,,,,,,,,12,001,2022_Oct_10_1255,Flanker,2021.2.0,241.9315817486452,
incongruent-right.jpg,0,k,left_arrow.png,left_arrow.png,left_arrow.png,right_arrow.png,left_arrow.png,left_arrow.png,left_arrow.png,,,,,,,,,7,3,45,3,,,,,,,,,253.33067280000023,None,,,,,,,,,,,,,,,,,,,,,,,,,,,,,,254.344024,None,254.344024,None,254.344024,None,254.344024,None,254.344024,None,254.344024,None,254.344024,None,k,1,0.6109354000000167,254.344024,None,,,,,,,,,,,,,12,001,2022_Oct_10_1255,Flanker,2021.2.0,241.9315817486452,
incongruent-right.jpg,0,k,left_arrow.png,left_arrow.png,left_arrow.png,right_arrow.png,left_arrow.png,left_arrow.png,left_arrow.png,,,,,,,,,7,4,46,3,,,,,,,,,254.96977659999993,None,,,,,,,,,,,,,,,,,,,,,,,,,,,,,,255.97503830000005,None,255.97503830000005,None,255.97503830000005,None,255.97503830000005,None,255.97503830000005,None,255.97503830000005,None,255.97503830000005,None,k,1,0.5002407000001767,255.97503830000005,None,,,,,,,,,,,,,12,001,2022_Oct_10_1255,Flanker,2021.2.0,241.9315817486452,
neutral right,0,k,neutral.png,neutral.png,neutral.png,right_arrow.png,neutral.png,neutral.png,neutral.png,,,,,,,,,7,5,47,5,,,,,,,,,256.4923051999999,None,,,,,,,,,,,,,,,,,,,,,,,,,,,,,,257.505893,None,257.505893,None,257.505893,None,257.505893,None,257.505893,None,257.505893,None,257.505893,None,k,1,0.3858093999997436,257.505893,None,,,,,,,,,,,,,12,001,2022_Oct_10_1255,Flanker,2021.2.0,241.9315817486452,
,,,,,,,,,,,,,,,,,,,,,,,,,,,,,,,,,,,,,,,,,,,,,,,,,,,,,,,,,,,,,,,,,,,,,,,,,,,,,,,,257.91881319999993,None,space,2.205122900000333,257.91881319999993,None,,,,,,,12,001,2022_Oct_10_1255,Flanker,2021.2.0,241.9315817486452,
neutral left,0,a,neutral.png,neutral.png,neutral.png,left_arrow.png,neutral.png,neutral.png,neutral.png,,,,,,,,,,,,,0,0,0,4,,,,,260.14624430000003,None,,,,,,,,,,,,,,,,,,,,,,,,,,,,,,261.1514172000002,None,261.1514172000002,None,261.1514172000002,None,261.1514172000002,None,261.1514172000002,None,261.1514172000002,None,261.1514172000002,None,a,1,0.6926487999999154,261.1514172000002,None,,,,,,,,,,,,,12,001,2022_Oct_10_1255,Flanker,2021.2.0,241.9315817486452,
neutral left,0,a,neutral.png,neutral.png,neutral.png,left_arrow.png,neutral.png,neutral.png,neutral.png,,,,,,,,,,,,,0,1,1,4,,,,,261.86061500000005,None,,,,,,,,,,,,,,,,,,,,,,,,,,,,,,262.87409130000015,None,262.87409130000015,None,262.87409130000015,None,262.87409130000015,None,262.87409130000015,None,262.87409130000015,None,262.87409130000015,None,a,1,0.40228890000025785,262.87409130000015,None,,,,,,,,,,,,,12,001,2022_Oct_10_1255,Flanker,2021.2.0,241.9315817486452,
incongruent-left.jpg,0,a,right_arrow.png,right_arrow.png,right_arrow.png,left_arrow.png,right_arrow.png,right_arrow.png,right_arrow.png,,,,,,,,,,,,,0,2,2,1,,,,,263.2912547000001,None,,,,,,,,,,,,,,,,,,,,,,,,,,,,,,264.3005640000001,None,264.3005640000001,None,264.3005640000001,None,264.3005640000001,None,264.3005640000001,None,264.3005640000001,None,264.3005640000001,None,a,1,0.4716427999996995,264.3005640000001,None,,,,,,,,,,,,,12,001,2022_Oct_10_1255,Flanker,2021.2.0,241.9315817486452,
incongruent-right.jpg,0,k,left_arrow.png,left_arrow.png,left_arrow.png,right_arrow.png,left_arrow.png,left_arrow.png,left_arrow.png,,,,,,,,,,,,,0,3,3,3,,,,,264.78441980000025,None,,,,,,,,,,,,,,,,,,,,,,,,,,,,,,265.7978578000002,None,265.7978578000002,None,265.7978578000002,None,265.7978578000002,None,265.7978578000002,None,265.7978578000002,None,265.7978578000002,None,k,1,0.4225814999999784,265.7978578000002,None,,,,,,,,,,,,,12,001,2022_Oct_10_1255,Flanker,2021.2.0,241.9315817486452,
incongruent-right.jpg,0,k,left_arrow.png,left_arrow.png,left_arrow.png,right_arrow.png,left_arrow.png,left_arrow.png,left_arrow.png,,,,,,,,,,,,,0,4,4,3,,,,,266.2401095,None,,,,,,,,,,,,,,,,,,,,,,,,,,,,,,267.24935760000017,None,267.24935760000017,None,267.24935760000017,None,267.24935760000017,None,267.24935760000017,None,267.24935760000017,None,267.24935760000017,None,k,1,0.4834368000001632,267.24935760000017,None,,,,,,,,,,,,,12,001,2022_Oct_10_1255,Flanker,2021.2.0,241.9315817486452,
congruent-left.jpg,1,a,left_arrow.png,left_arrow.png,left_arrow.png,left_arrow.png,left_arrow.png,left_arrow.png,left_arrow.png,,,,,,,,,,,,,0,5,5,0,,,,,267.74997630000007,None,,,,,,,,,,,,,,,,,,,,,,,,,,,,,,268.75943510000025,None,268.75943510000025,None,268.75943510000025,None,268.75943510000025,None,268.75943510000025,None,268.75943510000025,None,268.75943510000025,None,a,1,0.5173711000002186,268.75943510000025,None,,,,,,,,,,,,,12,001,2022_Oct_10_1255,Flanker,2021.2.0,241.9315817486452,
congruent-left.jpg,1,a,left_arrow.png,left_arrow.png,left_arrow.png,left_arrow.png,left_arrow.png,left_arrow.png,left_arrow.png,,,,,,,,,,,,,1,0,6,0,,,,,269.2933986000003,None,,,,,,,,,,,,,,,,,,,,,,,,,,,,,,270.30274340000005,None,270.30274340000005,None,270.30274340000005,None,270.30274340000005,None,270.30274340000005,None,270.30274340000005,None,270.30274340000005,None,a,1,0.4302817999996478,270.30274340000005,None,,,,,,,,,,,,,12,001,2022_Oct_10_1255,Flanker,2021.2.0,241.9315817486452,
congruent-right.jpg,1,k,right_arrow.png,right_arrow.png,right_arrow.png,right_arrow.png,right_arrow.png,right_arrow.png,right_arrow.png,,,,,,,,,,,,,1,1,7,2,,,,,270.7448721999999,None,,,,,,,,,,,,,,,,,,,,,,,,,,,,,,271.7583512000001,None,271.7583512000001,None,271.7583512000001,None,271.7583512000001,None,271.7583512000001,None,271.7583512000001,None,271.7583512000001,None,k,1,0.3428680000001805,271.7583512000001,None,,,,,,,,,,,,,12,001,2022_Oct_10_1255,Flanker,2021.2.0,241.9315817486452,
neutral left,0,a,neutral.png,neutral.png,neutral.png,left_arrow.png,neutral.png,neutral.png,neutral.png,,,,,,,,,,,,,1,2,8,4,,,,,272.1170136999999,None,,,,,,,,,,,,,,,,,,,,,,,,,,,,,,273.1307919000001,None,273.1307919000001,None,273.1307919000001,None,273.1307919000001,None,273.1307919000001,None,273.1307919000001,None,273.1307919000001,None,a,1,0.35460609999972803,273.1307919000001,None,,,,,,,,,,,,,12,001,2022_Oct_10_1255,Flanker,2021.2.0,241.9315817486452,
neutral left,0,a,neutral.png,neutral.png,neutral.png,left_arrow.png,neutral.png,neutral.png,neutral.png,,,,,,,,,,,,,1,3,9,4,,,,,273.49779750000016,None,,,,,,,,,,,,,,,,,,,,,,,,,,,,,,274.5070418,None,274.5070418,None,274.5070418,None,274.5070418,None,274.5070418,None,274.5070418,None,274.5070418,None,a,1,0.41058339999972304,274.5070418,None,,,,,,,,,,,,,12,001,2022_Oct_10_1255,Flanker,2021.2.0,241.9315817486452,
neutral right,0,k,neutral.png,neutral.png,neutral.png,right_arrow.png,neutral.png,neutral.png,neutral.png,,,,,,,,,,,,,1,4,10,5,,,,,274.93250530000023,None,,,,,,,,,,,,,,,,,,,,,,,,,,,,,,275.9462289000003,None,275.9462289000003,None,275.9462289000003,None,275.9462289000003,None,275.9462289000003,None,275.9462289000003,None,275.9462289000003,None,k,1,0.41156820000014704,275.9462289000003,None,,,,,,,,,,,,,12,001,2022_Oct_10_1255,Flanker,2021.2.0,241.9315817486452,
congruent-right.jpg,1,k,right_arrow.png,right_arrow.png,right_arrow.png,right_arrow.png,right_arrow.png,right_arrow.png,right_arrow.png,,,,,,,,,,,,,1,5,11,2,,,,,276.37166560000014,None,,,,,,,,,,,,,,,,,,,,,,,,,,,,,,277.3810593000003,None,277.3810593000003,None,277.3810593000003,None,277.3810593000003,None,277.3810593000003,None,277.3810593000003,None,277.3810593000003,None,k,1,0.4008981000001768,277.3810593000003,None,,,,,,,,,,,,,12,001,2022_Oct_10_1255,Flanker,2021.2.0,241.9315817486452,
neutral right,0,k,neutral.png,neutral.png,neutral.png,right_arrow.png,neutral.png,neutral.png,neutral.png,,,,,,,,,,,,,2,0,12,5,,,,,277.7981767000001,None,,,,,,,,,,,,,,,,,,,,,,,,,,,,,,278.8116093000003,None,278.8116093000003,None,278.8116093000003,None,278.8116093000003,None,278.8116093000003,None,278.8116093000003,None,278.8116093000003,None,k,1,0.44274730000006457,278.8116093000003,None,,,,,,,,,,,,,12,001,2022_Oct_10_1255,Flanker,2021.2.0,241.9315817486452,
congruent-left.jpg,1,a,left_arrow.png,left_arrow.png,left_arrow.png,left_arrow.png,left_arrow.png,left_arrow.png,left_arrow.png,,,,,,,,,,,,,2,1,13,0,,,,,279.2705525000001,None,,,,,,,,,,,,,,,,,,,,,,,,,,,,,,280.2840135000001,None,280.2840135000001,None,280.2840135000001,None,280.2840135000001,None,280.2840135000001,None,280.2840135000001,None,280.2840135000001,None,a,1,0.38638559999981226,280.2840135000001,None,,,,,,,,,,,,,12,001,2022_Oct_10_1255,Flanker,2021.2.0,241.9315817486452,
incongruent-right.jpg,0,k,left_arrow.png,left_arrow.png,left_arrow.png,right_arrow.png,left_arrow.png,left_arrow.png,left_arrow.png,,,,,,,,,,,,,2,2,14,3,,,,,280.68457620000027,None,,,,,,,,,,,,,,,,,,,,,,,,,,,,,,281.69798930000024,None,281.69798930000024,None,281.69798930000024,None,281.69798930000024,None,281.69798930000024,None,281.69798930000024,None,281.69798930000024,None,k,1,0.5247481000001244,281.69798930000024,None,,,,,,,,,,,,,12,001,2022_Oct_10_1255,Flanker,2021.2.0,241.9315817486452,
incongruent-right.jpg,0,k,left_arrow.png,left_arrow.png,left_arrow.png,right_arrow.png,left_arrow.png,left_arrow.png,left_arrow.png,,,,,,,,,,,,,2,3,15,3,,,,,282.24024510000027,None,,,,,,,,,,,,,,,,,,,,,,,,,,,,,,283.2538787000003,None,283.2538787000003,None,283.2538787000003,None,283.2538787000003,None,283.2538787000003,None,283.2538787000003,None,283.2538787000003,None,k,1,0.456907400000091,283.2538787000003,None,,,,,,,,,,,,,12,001,2022_Oct_10_1255,Flanker,2021.2.0,241.9315817486452,
incongruent-left.jpg,0,a,right_arrow.png,right_arrow.png,right_arrow.png,left_arrow.png,right_arrow.png,right_arrow.png,right_arrow.png,,,,,,,,,,,,,2,4,16,1,,,,,283.7294460000003,None,,,,,,,,,,,,,,,,,,,,,,,,,,,,,,284.74288130000014,None,284.74288130000014,None,284.74288130000014,None,284.74288130000014,None,284.74288130000014,None,284.74288130000014,None,284.74288130000014,None,a,1,0.5201265000000603,284.74288130000014,None,,,,,,,,,,,,,12,001,2022_Oct_10_1255,Flanker,2021.2.0,241.9315817486452,
congruent-right.jpg,1,k,right_arrow.png,right_arrow.png,right_arrow.png,right_arrow.png,right_arrow.png,right_arrow.png,right_arrow.png,,,,,,,,,,,,,2,5,17,2,,,,,285.27698390000023,None,,,,,,,,,,,,,,,,,,,,,,,,,,,,,,286.28633160000027,None,286.28633160000027,None,286.28633160000027,None,286.28633160000027,None,286.28633160000027,None,286.28633160000027,None,286.28633160000027,None,k,1,0.3848790000001827,286.28633160000027,None,,,,,,,,,,,,,12,001,2022_Oct_10_1255,Flanker,2021.2.0,241.9315817486452,
neutral right,0,k,neutral.png,neutral.png,neutral.png,right_arrow.png,neutral.png,neutral.png,neutral.png,,,,,,,,,,,,,3,0,18,5,,,,,286.68675090000033,None,,,,,,,,,,,,,,,,,,,,,,,,,,,,,,287.69624079999994,None,287.69624079999994,None,287.69624079999994,None,287.69624079999994,None,287.69624079999994,None,287.69624079999994,None,287.69624079999994,None,k,1,0.4071289999997134,287.69624079999994,None,,,,,,,,,,,,,12,001,2022_Oct_10_1255,Flanker,2021.2.0,241.9315817486452,
congruent-left.jpg,1,a,left_arrow.png,left_arrow.png,left_arrow.png,left_arrow.png,left_arrow.png,left_arrow.png,left_arrow.png,,,,,,,,,,,,,3,1,19,0,,,,,288.12147649999997,None,,,,,,,,,,,,,,,,,,,,,,,,,,,,,,289.1310907000002,None,289.1310907000002,None,289.1310907000002,None,289.1310907000002,None,289.1310907000002,None,289.1310907000002,None,289.1310907000002,None,a,1,0.44449630000008256,289.1310907000002,None,,,,,,,,,,,,,12,001,2022_Oct_10_1255,Flanker,2021.2.0,241.9315817486452,
incongruent-right.jpg,0,k,left_arrow.png,left_arrow.png,left_arrow.png,right_arrow.png,left_arrow.png,left_arrow.png,left_arrow.png,,,,,,,,,,,,,3,2,20,3,,,,,289.58984680000003,None,,,,,,,,,,,,,,,,,,,,,,,,,,,,,,290.6034146000002,None,290.6034146000002,None,290.6034146000002,None,290.6034146000002,None,290.6034146000002,None,290.6034146000002,None,290.6034146000002,None,k,1,0.420630600000095,290.6034146000002,None,,,,,,,,,,,,,12,001,2022_Oct_10_1255,Flanker,2021.2.0,241.9315817486452,
congruent-left.jpg,1,a,left_arrow.png,left_arrow.png,left_arrow.png,left_arrow.png,left_arrow.png,left_arrow.png,left_arrow.png,,,,,,,,,,,,,3,3,21,0,,,,,291.0372130999999,None,,,,,,,,,,,,,,,,,,,,,,,,,,,,,,292.05077500000016,None,292.05077500000016,None,292.05077500000016,None,292.05077500000016,None,292.05077500000016,None,292.05077500000016,None,292.05077500000016,None,a,1,0.5494650999999067,292.05077500000016,None,,,,,,,,,,,,,12,001,2022_Oct_10_1255,Flanker,2021.2.0,241.9315817486452,
congruent-right.jpg,1,k,right_arrow.png,right_arrow.png,right_arrow.png,right_arrow.png,right_arrow.png,right_arrow.png,right_arrow.png,,,,,,,,,,,,,3,4,22,2,,,,,292.61804970000003,None,,,,,,,,,,,,,,,,,,,,,,,,,,,,,,293.63162220000004,None,293.63162220000004,None,293.63162220000004,None,293.63162220000004,None,293.63162220000004,None,293.63162220000004,None,293.63162220000004,None,k,1,0.37668940000003204,293.63162220000004,None,,,,,,,,,,,,,12,001,2022_Oct_10_1255,Flanker,2021.2.0,241.9315817486452,
neutral left,0,a,neutral.png,neutral.png,neutral.png,left_arrow.png,neutral.png,neutral.png,neutral.png,,,,,,,,,,,,,3,5,23,4,,,,,294.02368350000006,None,,,,,,,,,,,,,,,,,,,,,,,,,,,,,,295.03725780000013,None,295.03725780000013,None,295.03725780000013,None,295.03725780000013,None,295.03725780000013,None,295.03725780000013,None,295.03725780000013,None,a,1,0.5793201999999837,295.03725780000013,None,,,,,,,,,,,,,12,001,2022_Oct_10_1255,Flanker,2021.2.0,241.9315817486452,
neutral right,0,k,neutral.png,neutral.png,neutral.png,right_arrow.png,neutral.png,neutral.png,neutral.png,,,,,,,,,,,,,4,0,24,5,,,,,295.62974010000016,None,,,,,,,,,,,,,,,,,,,,,,,,,,,,,,296.6389555999999,None,296.6389555999999,None,296.6389555999999,None,296.6389555999999,None,296.6389555999999,None,296.6389555999999,None,296.6389555999999,None,k,1,0.3776009000002887,296.6389555999999,None,,,,,,,,,,,,,12,001,2022_Oct_10_1255,Flanker,2021.2.0,241.9315817486452,
congruent-right.jpg,1,k,right_arrow.png,right_arrow.png,right_arrow.png,right_arrow.png,right_arrow.png,right_arrow.png,right_arrow.png,,,,,,,,,,,,,4,1,25,2,,,,,297.0310582000002,None,,,,,,,,,,,,,,,,,,,,,,,,,,,,,,298.04044939999994,None,298.04044939999994,None,298.04044939999994,None,298.04044939999994,None,298.04044939999994,None,298.04044939999994,None,298.04044939999994,None,k,1,0.4242779999999584,298.04044939999994,None,,,,,,,,,,,,,12,001,2022_Oct_10_1255,Flanker,2021.2.0,241.9315817486452,
neutral left,0,a,neutral.png,neutral.png,neutral.png,left_arrow.png,neutral.png,neutral.png,neutral.png,,,,,,,,,,,,,4,2,26,4,,,,,298.4824443000002,None,,,,,,,,,,,,,,,,,,,,,,,,,,,,,,299.49196740000025,None,299.49196740000025,None,299.49196740000025,None,299.49196740000025,None,299.49196740000025,None,299.49196740000025,None,299.49196740000025,None,a,1,0.37296569999989515,299.49196740000025,None,,,,,,,,,,,,,12,001,2022_Oct_10_1255,Flanker,2021.2.0,241.9315817486452,
congruent-right.jpg,1,k,right_arrow.png,right_arrow.png,right_arrow.png,right_arrow.png,right_arrow.png,right_arrow.png,right_arrow.png,,,,,,,,,,,,,4,3,27,2,,,,,299.8757175999999,None,,,,,,,,,,,,,,,,,,,,,,,,,,,,,,300.88928810000016,None,300.88928810000016,None,300.88928810000016,None,300.88928810000016,None,300.88928810000016,None,300.88928810000016,None,300.88928810000016,None,k,1,0.2958269000000655,300.88928810000016,None,,,,,,,,,,,,,12,001,2022_Oct_10_1255,Flanker,2021.2.0,241.9315817486452,
congruent-left.jpg,1,a,left_arrow.png,left_arrow.png,left_arrow.png,left_arrow.png,left_arrow.png,left_arrow.png,left_arrow.png,,,,,,,,,,,,,4,4,28,0,,,,,301.19795650000015,None,,,,,,,,,,,,,,,,,,,,,,,,,,,,,,302.2073561000002,None,302.2073561000002,None,302.2073561000002,None,302.2073561000002,None,302.2073561000002,None,302.2073561000002,None,302.2073561000002,None,a,1,0.3702714000000924,302.2073561000002,None,,,,,,,,,,,,,12,001,2022_Oct_10_1255,Flanker,2021.2.0,241.9315817486452,
neutral right,0,k,neutral.png,neutral.png,neutral.png,right_arrow.png,neutral.png,neutral.png,neutral.png,,,,,,,,,,,,,4,5,29,5,,,,,302.59094670000013,None,,,,,,,,,,,,,,,,,,,,,,,,,,,,,,303.60049389999995,None,303.60049389999995,None,303.60049389999995,None,303.60049389999995,None,303.60049389999995,None,303.60049389999995,None,303.60049389999995,None,k,1,0.3690913000000364,303.60049389999995,None,,,,,,,,,,,,,12,001,2022_Oct_10_1255,Flanker,2021.2.0,241.9315817486452,
neutral right,0,k,neutral.png,neutral.png,neutral.png,right_arrow.png,neutral.png,neutral.png,neutral.png,,,,,,,,,,,,,5,0,30,5,,,,,303.98417150000023,None,,,,,,,,,,,,,,,,,,,,,,,,,,,,,,304.99769289999995,None,304.99769289999995,None,304.99769289999995,None,304.99769289999995,None,304.99769289999995,None,304.99769289999995,None,304.99769289999995,None,k,1,0.42802660000006654,304.99769289999995,None,,,,,,,,,,,,,12,001,2022_Oct_10_1255,Flanker,2021.2.0,241.9315817486452,
incongruent-left.jpg,0,a,right_arrow.png,right_arrow.png,right_arrow.png,left_arrow.png,right_arrow.png,right_arrow.png,right_arrow.png,,,,,,,,,,,,,5,1,31,1,,,,,305.4400181000001,None,,,,,,,,,,,,,,,,,,,,,,,,,,,,,,306.45365360000005,None,306.45365360000005,None,306.45365360000005,None,306.45365360000005,None,306.45365360000005,None,306.45365360000005,None,306.45365360000005,None,a,1,0.508278099999643,306.45365360000005,None,,,,,,,,,,,,,12,001,2022_Oct_10_1255,Flanker,2021.2.0,241.9315817486452,
incongruent-left.jpg,0,a,right_arrow.png,right_arrow.png,right_arrow.png,left_arrow.png,right_arrow.png,right_arrow.png,right_arrow.png,,,,,,,,,,,,,5,2,32,1,,,,,306.9790793000002,None,,,,,,,,,,,,,,,,,,,,,,,,,,,,,,307.9883169,None,307.9883169,None,307.9883169,None,307.9883169,None,307.9883169,None,307.9883169,None,307.9883169,None,k,0,0.30177770000000237,307.9883169,None,,,,,,,,,,,,,12,001,2022_Oct_10_1255,Flanker,2021.2.0,241.9315817486452,
incongruent-right.jpg,0,k,left_arrow.png,left_arrow.png,left_arrow.png,right_arrow.png,left_arrow.png,left_arrow.png,left_arrow.png,,,,,,,,,,,,,5,3,33,3,,,,,308.3054916000001,None,,,,,,,,,,,,,,,,,,,,,,,,,,,,,,309.3191910999999,None,309.3191910999999,None,309.3191910999999,None,309.3191910999999,None,309.3191910999999,None,309.3191910999999,None,309.3191910999999,None,k,1,0.49140610000040397,309.3191910999999,None,,,,,,,,,,,,,12,001,2022_Oct_10_1255,Flanker,2021.2.0,241.9315817486452,
neutral right,0,k,neutral.png,neutral.png,neutral.png,right_arrow.png,neutral.png,neutral.png,neutral.png,,,,,,,,,,,,,5,4,34,5,,,,,309.8279501000002,None,,,,,,,,,,,,,,,,,,,,,,,,,,,,,,310.8413542000003,None,310.8413542000003,None,310.8413542000003,None,310.8413542000003,None,310.8413542000003,None,310.8413542000003,None,310.8413542000003,None,k,1,0.8251832999999351,310.8413542000003,None,,,,,,,,,,,,,12,001,2022_Oct_10_1255,Flanker,2021.2.0,241.9315817486452,
neutral left,0,a,neutral.png,neutral.png,neutral.png,left_arrow.png,neutral.png,neutral.png,neutral.png,,,,,,,,,,,,,5,5,35,4,,,,,311.68401330000006,None,,,,,,,,,,,,,,,,,,,,,,,,,,,,,,312.69762560000026,None,312.69762560000026,None,312.69762560000026,None,312.69762560000026,None,312.69762560000026,None,312.69762560000026,None,312.69762560000026,None,a,1,0.4412695999999414,312.69762560000026,None,,,,,,,,,,,,,12,001,2022_Oct_10_1255,Flanker,2021.2.0,241.9315817486452,
congruent-right.jpg,1,k,right_arrow.png,right_arrow.png,right_arrow.png,right_arrow.png,right_arrow.png,right_arrow.png,right_arrow.png,,,,,,,,,,,,,6,0,36,2,,,,,313.1564446000002,None,,,,,,,,,,,,,,,,,,,,,,,,,,,,,,314.16586039999993,None,314.16586039999993,None,314.16586039999993,None,314.16586039999993,None,314.16586039999993,None,314.16586039999993,None,314.16586039999993,None,k,1,0.49310109999987617,314.16586039999993,None,,,,,,,,,,,,,12,001,2022_Oct_10_1255,Flanker,2021.2.0,241.9315817486452,
incongruent-right.jpg,0,k,left_arrow.png,left_arrow.png,left_arrow.png,right_arrow.png,left_arrow.png,left_arrow.png,left_arrow.png,,,,,,,,,,,,,6,1,37,3,,,,,314.6747026000003,None,,,,,,,,,,,,,,,,,,,,,,,,,,,,,,315.68830190000017,None,315.68830190000017,None,315.68830190000017,None,315.68830190000017,None,315.68830190000017,None,315.68830190000017,None,315.68830190000017,None,k,1,0.5228670999999849,315.68830190000017,None,,,,,,,,,,,,,12,001,2022_Oct_10_1255,Flanker,2021.2.0,241.9315817486452,
incongruent-left.jpg,0,a,right_arrow.png,right_arrow.png,right_arrow.png,left_arrow.png,right_arrow.png,right_arrow.png,right_arrow.png,,,,,,,,,,,,,6,2,38,1,,,,,316.23055710000017,None,,,,,,,,,,,,,,,,,,,,,,,,,,,,,,317.2439703,None,317.2439703,None,317.2439703,None,317.2439703,None,317.2439703,None,317.2439703,None,317.2439703,None,a,1,0.567581500000415,317.2439703,None,,,,,,,,,,,,,12,001,2022_Oct_10_1255,Flanker,2021.2.0,241.9315817486452,
incongruent-right.jpg,0,k,left_arrow.png,left_arrow.png,left_arrow.png,right_arrow.png,left_arrow.png,left_arrow.png,left_arrow.png,,,,,,,,,,,,,6,3,39,3,,,,,317.8281425,None,,,,,,,,,,,,,,,,,,,,,,,,,,,,,,318.8416953000001,None,318.8416953000001,None,318.8416953000001,None,318.8416953000001,None,318.8416953000001,None,318.8416953000001,None,318.8416953000001,None,k,1,0.6261537999998836,318.8416953000001,None,,,,,,,,,,,,,12,001,2022_Oct_10_1255,Flanker,2021.2.0,241.9315817486452,
congruent-left.jpg,1,a,left_arrow.png,left_arrow.png,left_arrow.png,left_arrow.png,left_arrow.png,left_arrow.png,left_arrow.png,,,,,,,,,,,,,6,4,40,0,,,,,319.48397730000033,None,,,,,,,,,,,,,,,,,,,,,,,,,,,,,,320.49339039999995,None,320.49339039999995,None,320.49339039999995,None,320.49339039999995,None,320.49339039999995,None,320.49339039999995,None,320.49339039999995,None,a,1,0.4864072999998825,320.49339039999995,None,,,,,,,,,,,,,12,001,2022_Oct_10_1255,Flanker,2021.2.0,241.9315817486452,
congruent-right.jpg,1,k,right_arrow.png,right_arrow.png,right_arrow.png,right_arrow.png,right_arrow.png,right_arrow.png,right_arrow.png,,,,,,,,,,,,,6,5,41,2,,,,,320.99401149999994,None,,,,,,,,,,,,,,,,,,,,,,,,,,,,,,322.00331510000024,None,322.00331510000024,None,322.00331510000024,None,322.00331510000024,None,322.00331510000024,None,322.00331510000024,None,322.00331510000024,None,k,1,0.4486767000003056,322.00331510000024,None,,,,,,,,,,,,,12,001,2022_Oct_10_1255,Flanker,2021.2.0,241.9315817486452,
incongruent-left.jpg,0,a,right_arrow.png,right_arrow.png,right_arrow.png,left_arrow.png,right_arrow.png,right_arrow.png,right_arrow.png,,,,,,,,,,,,,7,0,42,1,,,,,322.4704122000003,None,,,,,,,,,,,,,,,,,,,,,,,,,,,,,,323.4798555000002,None,323.4798555000002,None,323.4798555000002,None,323.4798555000002,None,323.4798555000002,None,323.4798555000002,None,323.4798555000002,None,a,1,0.44453040000007604,323.4798555000002,None,,,,,,,,,,,,,12,001,2022_Oct_10_1255,Flanker,2021.2.0,241.9315817486452,
incongruent-left.jpg,0,a,right_arrow.png,right_arrow.png,right_arrow.png,left_arrow.png,right_arrow.png,right_arrow.png,right_arrow.png,,,,,,,,,,,,,7,1,43,1,,,,,323.93878170000016,None,,,,,,,,,,,,,,,,,,,,,,,,,,,,,,324.9481227000001,None,324.9481227000001,None,324.9481227000001,None,324.9481227000001,None,324.9481227000001,None,324.9481227000001,None,324.9481227000001,None,a,1,1.7685724999996637,324.9481227000001,None,,,,,,,,,,,,,12,001,2022_Oct_10_1255,Flanker,2021.2.0,241.9315817486452,
congruent-left.jpg,1,a,left_arrow.png,left_arrow.png,left_arrow.png,left_arrow.png,left_arrow.png,left_arrow.png,left_arrow.png,,,,,,,,,,,,,7,2,44,0,,,,,326.7333974000003,None,,,,,,,,,,,,,,,,,,,,,,,,,,,,,,327.7427826000003,None,327.7427826000003,None,327.7427826000003,None,327.7427826000003,None,327.7427826000003,None,327.7427826000003,None,327.7427826000003,None,a,1,0.6702606999997442,327.7427826000003,None,,,,,,,,,,,,,12,001,2022_Oct_10_1255,Flanker,2021.2.0,241.9315817486452,
neutral right,0,k,neutral.png,neutral.png,neutral.png,right_arrow.png,neutral.png,neutral.png,neutral.png,,,,,,,,,,,,,7,3,45,5,,,,,328.42664460000015,None,,,,,,,,,,,,,,,,,,,,,,,,,,,,,,329.4402331000001,None,329.4402331000001,None,329.4402331000001,None,329.4402331000001,None,329.4402331000001,None,329.4402331000001,None,329.4402331000001,None,k,1,0.6449828999998317,329.4402331000001,None,,,,,,,,,,,,,12,001,2022_Oct_10_1255,Flanker,2021.2.0,241.9315817486452,
incongruent-left.jpg,0,a,right_arrow.png,right_arrow.png,right_arrow.png,left_arrow.png,right_arrow.png,right_arrow.png,right_arrow.png,,,,,,,,,,,,,7,4,46,1,,,,,330.09940570000026,None,,,,,,,,,,,,,,,,,,,,,,,,,,,,,,331.1129661,None,331.1129661,None,331.1129661,None,331.1129661,None,331.1129661,None,331.1129661,None,331.1129661,None,a,1,0.6844407999997202,331.1129661,None,,,,,,,,,,,,,12,001,2022_Oct_10_1255,Flanker,2021.2.0,241.9315817486452,
neutral left,0,a,neutral.png,neutral.png,neutral.png,left_arrow.png,neutral.png,neutral.png,neutral.png,,,,,,,,,,,,,7,5,47,4,,,,,331.8137420000003,None,,,,,,,,,,,,,,,,,,,,,,,,,,,,,,332.82310800000005,None,332.82310800000005,None,332.82310800000005,None,332.82310800000005,None,332.82310800000005,None,332.82310800000005,None,332.82310800000005,None,a,1,0.4302990999999565,332.82310800000005,None,,,,,,,,,,,,,12,001,2022_Oct_10_1255,Flanker,2021.2.0,241.9315817486452,
,,,,,,,,,,,,,,,,,,,,,,,,,,,,,,,,,,,,,,,,,,,,,,,,,,,,,,,,,,,,,,,,,,,,,,,,,,,,,,,,333.2777243999999,None,space,12.393374199999926,333.2777243999999,None,,,,,,,12,001,2022_Oct_10_1255,Flanker,2021.2.0,241.9315817486452,
,,,,,,,,,,,,,,,,,,,,,,,,,,,,,,,,,,,,,,,,,,,,,,,,,,,,,,,,,,,,,,,,,,,,,,,,,,,,,,,,,,,,,,345.6826662000003,None,space,0.8045124999998734,345.6826662000003,None,12,001,2022_Oct_10_1255,Flanker,2021.2.0,241.9315817486452,
