images,congruentcy,corrAns,arrow_1,arrow_2,arrow_3,target,arrow_5,arrow_6,arrow_7,practice.thisRepN,practice.thisTrialN,practice.thisN,practice.thisIndex,trials.thisRepN,trials.thisTrialN,trials.thisN,trials.thisIndex,trials_2.thisRepN,trials_2.thisTrialN,trials_2.thisN,trials_2.thisIndex,trials_3.thisRepN,trials_3.thisTrialN,trials_3.thisN,trials_3.thisIndex,instr_text.started,instr_text.stopped,instr_resp.keys,instr_resp.rt,polygon.started,polygon.stopped,arrow1_.started,arrow1_.stopped,arrow2_.started,arrow2_.stopped,arrow3_.started,arrow3_.stopped,target_p.started,target_p.stopped,arrow5_.started,arrow5_.stopped,arrow6_.started,arrow6_.stopped,arrow7_.started,arrow7_.stopped,key_resp_P.keys,key_resp_P.corr,key_resp_P.rt,key_resp_P.started,key_resp_P.stopped,text_2.started,text_2.stopped,text_3.started,text_3.stopped,text_4.started,text_4.stopped,key_resp_2.keys,key_resp_2.rt,key_resp_2.started,key_resp_2.stopped,arrow1.started,arrow1.stopped,arrow2.started,arrow2.stopped,arrow3.started,arrow3.stopped,target_t.started,target_t.stopped,arrow5.started,arrow5.stopped,arrow6.started,arrow6.stopped,arrow7.started,arrow7.stopped,key_resp.keys,key_resp.corr,key_resp.rt,key_resp.started,key_resp.stopped,text_5.started,text_5.stopped,key_resp_3.keys,key_resp_3.rt,key_resp_3.started,key_resp_3.stopped,text_6.started,text_6.stopped,key_resp_4.keys,key_resp_4.rt,key_resp_4.started,key_resp_4.stopped,participant,session,date,expName,psychopyVersion,frameRate,
,,,,,,,,,,,,,,,,,,,,,,,,,,15.565447600005427,None,space,14.76719260000391,,,,,,,,,,,,,,,,,,,,,,,,,,,,,,,,,,,,,,,,,,,,,,,,,,,,,,,,,,,,,,,13,001,2022_Oct_12_1502,Flanker,2021.2.0,239.74836015879393,
incongruent-left.jpg,0,a,right_arrow.png,right_arrow.png,right_arrow.png,left_arrow.png,right_arrow.png,right_arrow.png,right_arrow.png,0,0,0,1,,,,,,,,,,,,,,,,,30.373306699999375,None,31.4161957000033,None,31.4161957000033,None,31.4161957000033,None,31.4161957000033,None,31.4161957000033,None,31.4161957000033,None,31.4161957000033,None,a,1,4.646859500004211,31.4161957000033,None,36.08761790000426,None,,,,,,,,,,,,,,,,,,,,,,,,,,,,,,,,,,,,,,,,13,001,2022_Oct_12_1502,Flanker,2021.2.0,239.74836015879393,
incongruent-left.jpg,0,a,right_arrow.png,right_arrow.png,right_arrow.png,left_arrow.png,right_arrow.png,right_arrow.png,right_arrow.png,0,1,1,1,,,,,,,,,,,,,,,,,37.58107890000974,None,38.59024720000161,None,38.59024720000161,None,38.59024720000161,None,38.59024720000161,None,38.59024720000161,None,38.59024720000161,None,38.59024720000161,None,a,1,0.8732126000104472,38.59024720000161,None,39.482854400004726,None,,,,,,,,,,,,,,,,,,,,,,,,,,,,,,,,,,,,,,,,13,001,2022_Oct_12_1502,Flanker,2021.2.0,239.74836015879393,
neutral left,0,a,neutral.png,neutral.png,neutral.png,left_arrow.png,neutral.png,neutral.png,neutral.png,0,2,2,4,,,,,,,,,,,,,,,,,40.98886520000815,None,42.01087540001026,None,42.01087540001026,None,42.01087540001026,None,42.01087540001026,None,42.01087540001026,None,42.01087540001026,None,42.01087540001026,None,a,1,1.1890779999957886,42.01087540001026,None,43.21181190000789,None,,,,,,,,,,,,,,,,,,,,,,,,,,,,,,,,,,,,,,,,13,001,2022_Oct_12_1502,Flanker,2021.2.0,239.74836015879393,
incongruent-right.jpg,0,k,left_arrow.png,left_arrow.png,left_arrow.png,right_arrow.png,left_arrow.png,left_arrow.png,left_arrow.png,0,3,3,3,,,,,,,,,,,,,,,,,44.71340920000512,None,45.723185000009835,None,45.723185000009835,None,45.723185000009835,None,45.723185000009835,None,45.723185000009835,None,45.723185000009835,None,45.723185000009835,None,k,1,1.0373278000042774,45.723185000009835,None,46.773964100008016,None,,,,,,,,,,,,,,,,,,,,,,,,,,,,,,,,,,,,,,,,13,001,2022_Oct_12_1502,Flanker,2021.2.0,239.74836015879393,
neutral left,0,a,neutral.png,neutral.png,neutral.png,left_arrow.png,neutral.png,neutral.png,neutral.png,0,4,4,4,,,,,,,,,,,,,,,,,48.275757199997315,None,49.28911130000779,None,49.28911130000779,None,49.28911130000779,None,49.28911130000779,None,49.28911130000779,None,49.28911130000779,None,49.28911130000779,None,a,1,0.751830199995311,49.28911130000779,None,50.05660340000759,None,,,,,,,,,,,,,,,,,,,,,,,,,,,,,,,,,,,,,,,,13,001,2022_Oct_12_1502,Flanker,2021.2.0,239.74836015879393,
congruent-left.jpg,1,a,left_arrow.png,left_arrow.png,left_arrow.png,left_arrow.png,left_arrow.png,left_arrow.png,left_arrow.png,0,5,5,0,,,,,,,,,,,,,,,,,51.56248690000211,None,52.572161400006735,None,52.572161400006735,None,52.572161400006735,None,52.572161400006735,None,52.572161400006735,None,52.572161400006735,None,52.572161400006735,None,a,1,0.6212356999894837,52.572161400006735,None,53.20573919999879,None,,,,,,,,,,,,,,,,,,,,,,,,,,,,,,,,,,,,,,,,13,001,2022_Oct_12_1502,Flanker,2021.2.0,239.74836015879393,
congruent-right.jpg,1,k,right_arrow.png,right_arrow.png,right_arrow.png,right_arrow.png,right_arrow.png,right_arrow.png,right_arrow.png,1,0,6,2,,,,,,,,,,,,,,,,,54.71152440000151,None,55.71673310000915,None,55.71673310000915,None,55.71673310000915,None,55.71673310000915,None,55.71673310000915,None,55.71673310000915,None,55.71673310000915,None,k,1,0.6050869000027888,55.71673310000915,None,56.3382500000007,None,,,,,,,,,,,,,,,,,,,,,,,,,,,,,,,,,,,,,,,,13,001,2022_Oct_12_1502,Flanker,2021.2.0,239.74836015879393,
congruent-right.jpg,1,k,right_arrow.png,right_arrow.png,right_arrow.png,right_arrow.png,right_arrow.png,right_arrow.png,right_arrow.png,1,1,7,2,,,,,,,,,,,,,,,,,57.84408500000427,None,58.85339640000893,None,58.85339640000893,None,58.85339640000893,None,58.85339640000893,None,58.85339640000893,None,58.85339640000893,None,58.85339640000893,None,k,1,0.7088436000049114,58.85339640000893,None,59.57917029999953,None,,,,,,,,,,,,,,,,,,,,,,,,,,,,,,,,,,,,,,,,13,001,2022_Oct_12_1502,Flanker,2021.2.0,239.74836015879393,
incongruent-right.jpg,0,k,left_arrow.png,left_arrow.png,left_arrow.png,right_arrow.png,left_arrow.png,left_arrow.png,left_arrow.png,1,2,8,3,,,,,,,,,,,,,,,,,61.08492639999895,None,62.094333700006246,None,62.094333700006246,None,62.094333700006246,None,62.094333700006246,None,62.094333700006246,None,62.094333700006246,None,62.094333700006246,None,k,1,0.8924703000084264,62.094333700006246,None,63.003635400003986,None,,,,,,,,,,,,,,,,,,,,,,,,,,,,,,,,,,,,,,,,13,001,2022_Oct_12_1502,Flanker,2021.2.0,239.74836015879393,
congruent-left.jpg,1,a,left_arrow.png,left_arrow.png,left_arrow.png,left_arrow.png,left_arrow.png,left_arrow.png,left_arrow.png,1,3,9,0,,,,,,,,,,,,,,,,,64.50550310000835,None,65.51466210000217,None,65.51466210000217,None,65.51466210000217,None,65.51466210000217,None,65.51466210000217,None,65.51466210000217,None,65.51466210000217,None,a,1,0.7044821000017691,65.51466210000217,None,66.2320624999993,None,,,,,,,,,,,,,,,,,,,,,,,,,,,,,,,,,,,,,,,,13,001,2022_Oct_12_1502,Flanker,2021.2.0,239.74836015879393,
incongruent-right.jpg,0,k,left_arrow.png,left_arrow.png,left_arrow.png,right_arrow.png,left_arrow.png,left_arrow.png,left_arrow.png,1,4,10,3,,,,,,,,,,,,,,,,,67.73781620000955,None,68.74748150000232,None,68.74748150000232,None,68.74748150000232,None,68.74748150000232,None,68.74748150000232,None,68.74748150000232,None,68.74748150000232,None,k,1,0.8163148000021465,68.74748150000232,None,69.58145220000006,None,,,,,,,,,,,,,,,,,,,,,,,,,,,,,,,,,,,,,,,,13,001,2022_Oct_12_1502,Flanker,2021.2.0,239.74836015879393,
neutral left,0,a,neutral.png,neutral.png,neutral.png,left_arrow.png,neutral.png,neutral.png,neutral.png,1,5,11,4,,,,,,,,,,,,,,,,,71.08305860000837,None,72.09244040001067,None,72.09244040001067,None,72.09244040001067,None,72.09244040001067,None,72.09244040001067,None,72.09244040001067,None,72.09244040001067,None,a,1,0.6315508999978192,72.09244040001067,None,72.7433449000091,None,,,,,,,,,,,,,,,,,,,,,,,,,,,,,,,,,,,,,,,,13,001,2022_Oct_12_1502,Flanker,2021.2.0,239.74836015879393,
congruent-left.jpg,1,a,left_arrow.png,left_arrow.png,left_arrow.png,left_arrow.png,left_arrow.png,left_arrow.png,left_arrow.png,2,0,12,0,,,,,,,,,,,,,,,,,74.24913530000777,None,75.25838110000768,None,75.25838110000768,None,75.25838110000768,None,75.25838110000768,None,75.25838110000768,None,75.25838110000768,None,75.25838110000768,None,a,1,0.6421163000050001,75.25838110000768,None,75.9173191000009,None,,,,,,,,,,,,,,,,,,,,,,,,,,,,,,,,,,,,,,,,13,001,2022_Oct_12_1502,Flanker,2021.2.0,239.74836015879393,
congruent-left.jpg,1,a,left_arrow.png,left_arrow.png,left_arrow.png,left_arrow.png,left_arrow.png,left_arrow.png,left_arrow.png,2,1,13,0,,,,,,,,,,,,,,,,,77.41891740000574,None,78.4328186000057,None,78.4328186000057,None,78.4328186000057,None,78.4328186000057,None,78.4328186000057,None,78.4328186000057,None,78.4328186000057,None,a,1,0.46002330000919756,78.4328186000057,None,78.90800850000232,None,,,,,,,,,,,,,,,,,,,,,,,,,,,,,,,,,,,,,,,,13,001,2022_Oct_12_1502,Flanker,2021.2.0,239.74836015879393,
congruent-right.jpg,1,k,right_arrow.png,right_arrow.png,right_arrow.png,right_arrow.png,right_arrow.png,right_arrow.png,right_arrow.png,2,2,14,2,,,,,,,,,,,,,,,,,80.40988040000957,None,81.42343609999807,None,81.42343609999807,None,81.42343609999807,None,81.42343609999807,None,81.42343609999807,None,81.42343609999807,None,81.42343609999807,None,k,1,0.629814499989152,81.42343609999807,None,82.06553100000019,None,,,,,,,,,,,,,,,,,,,,,,,,,,,,,,,,,,,,,,,,13,001,2022_Oct_12_1502,Flanker,2021.2.0,239.74836015879393,
neutral right,0,k,neutral.png,neutral.png,neutral.png,right_arrow.png,neutral.png,neutral.png,neutral.png,2,3,15,5,,,,,,,,,,,,,,,,,83.56711150000046,None,84.57656919999863,None,84.57656919999863,None,84.57656919999863,None,84.57656919999863,None,84.57656919999863,None,84.57656919999863,None,84.57656919999863,None,k,1,0.7811297000007471,84.57656919999863,None,85.36902030000056,None,,,,,,,,,,,,,,,,,,,,,,,,,,,,,,,,,,,,,,,,13,001,2022_Oct_12_1502,Flanker,2021.2.0,239.74836015879393,
neutral right,0,k,neutral.png,neutral.png,neutral.png,right_arrow.png,neutral.png,neutral.png,neutral.png,2,4,16,5,,,,,,,,,,,,,,,,,86.87485629999719,None,87.88002399999823,None,87.88002399999823,None,87.88002399999823,None,87.88002399999823,None,87.88002399999823,None,87.88002399999823,None,87.88002399999823,None,k,1,0.41412010000203736,87.88002399999823,None,88.305454500005,None,,,,,,,,,,,,,,,,,,,,,,,,,,,,,,,,,,,,,,,,13,001,2022_Oct_12_1502,Flanker,2021.2.0,239.74836015879393,
incongruent-right.jpg,0,k,left_arrow.png,left_arrow.png,left_arrow.png,right_arrow.png,left_arrow.png,left_arrow.png,left_arrow.png,2,5,17,3,,,,,,,,,,,,,,,,,89.81147860000783,None,90.82064530000207,None,90.82064530000207,None,90.82064530000207,None,90.82064530000207,None,90.82064530000207,None,90.82064530000207,None,90.82064530000207,None,k,1,0.5459965999907581,90.82064530000207,None,91.37958809999691,None,,,,,,,,,,,,,,,,,,,,,,,,,,,,,,,,,,,,,,,,13,001,2022_Oct_12_1502,Flanker,2021.2.0,239.74836015879393,
neutral left,0,a,neutral.png,neutral.png,neutral.png,left_arrow.png,neutral.png,neutral.png,neutral.png,3,0,18,4,,,,,,,,,,,,,,,,,92.88531820000208,None,93.89056080000591,None,93.89056080000591,None,93.89056080000591,None,93.89056080000591,None,93.89056080000591,None,93.89056080000591,None,93.89056080000591,None,a,1,0.4683772999997018,93.89056080000591,None,94.37024129999918,None,,,,,,,,,,,,,,,,,,,,,,,,,,,,,,,,,,,,,,,,13,001,2022_Oct_12_1502,Flanker,2021.2.0,239.74836015879393,
congruent-right.jpg,1,k,right_arrow.png,right_arrow.png,right_arrow.png,right_arrow.png,right_arrow.png,right_arrow.png,right_arrow.png,3,1,19,2,,,,,,,,,,,,,,,,,95.87182549999852,None,96.88161630000104,None,96.88161630000104,None,96.88161630000104,None,96.88161630000104,None,96.88161630000104,None,96.88161630000104,None,96.88161630000104,None,k,1,0.4217098000081023,96.88161630000104,None,97.31536269999924,None,,,,,,,,,,,,,,,,,,,,,,,,,,,,,,,,,,,,,,,,13,001,2022_Oct_12_1502,Flanker,2021.2.0,239.74836015879393,
neutral right,0,k,neutral.png,neutral.png,neutral.png,right_arrow.png,neutral.png,neutral.png,neutral.png,3,2,20,5,,,,,,,,,,,,,,,,,98.82079599999997,None,99.83023279999907,None,99.83023279999907,None,99.83023279999907,None,99.83023279999907,None,99.83023279999907,None,99.83023279999907,None,99.83023279999907,None,k,1,0.4658519999939017,99.83023279999907,None,100.31411079999816,None,,,,,,,,,,,,,,,,,,,,,,,,,,,,,,,,,,,,,,,,13,001,2022_Oct_12_1502,Flanker,2021.2.0,239.74836015879393,
incongruent-left.jpg,0,a,right_arrow.png,right_arrow.png,right_arrow.png,left_arrow.png,right_arrow.png,right_arrow.png,right_arrow.png,3,3,21,1,,,,,,,,,,,,,,,,,101.8159214000043,None,102.82504809999955,None,102.82504809999955,None,102.82504809999955,None,102.82504809999955,None,102.82504809999955,None,102.82504809999955,None,102.82504809999955,None,a,1,0.5031350999925053,102.82504809999955,None,103.34227160000592,None,,,,,,,,,,,,,,,,,,,,,,,,,,,,,,,,,,,,,,,,13,001,2022_Oct_12_1502,Flanker,2021.2.0,239.74836015879393,
incongruent-left.jpg,0,a,right_arrow.png,right_arrow.png,right_arrow.png,left_arrow.png,right_arrow.png,right_arrow.png,right_arrow.png,3,4,22,1,,,,,,,,,,,,,,,,,104.84385220000695,None,105.84911930000817,None,105.84911930000817,None,105.84911930000817,None,105.84911930000817,None,105.84911930000817,None,105.84911930000817,None,105.84911930000817,None,a,1,0.6314642000070307,105.84911930000817,None,106.49978690000717,None,,,,,,,,,,,,,,,,,,,,,,,,,,,,,,,,,,,,,,,,13,001,2022_Oct_12_1502,Flanker,2021.2.0,239.74836015879393,
neutral right,0,k,neutral.png,neutral.png,neutral.png,right_arrow.png,neutral.png,neutral.png,neutral.png,3,5,23,5,,,,,,,,,,,,,,,,,108.00163610000163,None,109.01076070001,None,109.01076070001,None,109.01076070001,None,109.01076070001,None,109.01076070001,None,109.01076070001,None,109.01076070001,None,k,1,0.4462522999965586,109.01076070001,None,109.46958020000602,None,,,,,,,,,,,,,,,,,,,,,,,,,,,,,,,,,,,,,,,,13,001,2022_Oct_12_1502,Flanker,2021.2.0,239.74836015879393,
,,,,,,,,,,,,,,,,,,,,,,,,,,,,,,,,,,,,,,,,,,,,,,,,,,,,,111.00472710000759,None,112.97330930001044,None,space,6.2610119999881135,112.97330930001044,None,,,,,,,,,,,,,,,,,,,,,,,,,,,,,,,,13,001,2022_Oct_12_1502,Flanker,2021.2.0,239.74836015879393,
incongruent-right.jpg,0,k,left_arrow.png,left_arrow.png,left_arrow.png,right_arrow.png,left_arrow.png,left_arrow.png,left_arrow.png,,,,,0,0,0,3,,,,,,,,,,,,,119.25091519999842,None,,,,,,,,,,,,,,,,,,,,,,,,,,,,,,120.26034730000538,None,120.26034730000538,None,120.26034730000538,None,120.26034730000538,None,120.26034730000538,None,120.26034730000538,None,120.26034730000538,None,k,1,1.3343199999944773,120.26034730000538,None,,,,,,,,,,,,,13,001,2022_Oct_12_1502,Flanker,2021.2.0,239.74836015879393,
congruent-left.jpg,1,a,left_arrow.png,left_arrow.png,left_arrow.png,left_arrow.png,left_arrow.png,left_arrow.png,left_arrow.png,,,,,0,1,1,0,,,,,,,,,,,,,121.61161449999781,None,,,,,,,,,,,,,,,,,,,,,,,,,,,,,,122.62935160000052,None,122.62935160000052,None,122.62935160000052,None,122.62935160000052,None,122.62935160000052,None,122.62935160000052,None,122.62935160000052,None,a,1,0.4855971000069985,122.62935160000052,None,,,,,,,,,,,,,13,001,2022_Oct_12_1502,Flanker,2021.2.0,239.74836015879393,
neutral right,0,k,neutral.png,neutral.png,neutral.png,right_arrow.png,neutral.png,neutral.png,neutral.png,,,,,0,2,2,5,,,,,,,,,,,,,123.12991000000329,None,,,,,,,,,,,,,,,,,,,,,,,,,,,,,,124.14346849999856,None,124.14346849999856,None,124.14346849999856,None,124.14346849999856,None,124.14346849999856,None,124.14346849999856,None,124.14346849999856,None,k,1,1.4277501999895321,124.14346849999856,None,,,,,,,,,,,,,13,001,2022_Oct_12_1502,Flanker,2021.2.0,239.74836015879393,
incongruent-left.jpg,0,a,right_arrow.png,right_arrow.png,right_arrow.png,left_arrow.png,right_arrow.png,right_arrow.png,right_arrow.png,,,,,0,3,3,1,,,,,,,,,,,,,125.58688319999783,None,,,,,,,,,,,,,,,,,,,,,,,,,,,,,,126.59608920000028,None,126.59608920000028,None,126.59608920000028,None,126.59608920000028,None,126.59608920000028,None,126.59608920000028,None,126.59608920000028,None,a,1,0.47132670000428334,126.59608920000028,None,,,,,,,,,,,,,13,001,2022_Oct_12_1502,Flanker,2021.2.0,239.74836015879393,
congruent-right.jpg,1,k,right_arrow.png,right_arrow.png,right_arrow.png,right_arrow.png,right_arrow.png,right_arrow.png,right_arrow.png,,,,,0,4,4,2,,,,,,,,,,,,,127.07992620000732,None,,,,,,,,,,,,,,,,,,,,,,,,,,,,,,128.0895567999978,None,128.0895567999978,None,128.0895567999978,None,128.0895567999978,None,128.0895567999978,None,128.0895567999978,None,128.0895567999978,None,k,1,0.4100365000049351,128.0895567999978,None,,,,,,,,,,,,,13,001,2022_Oct_12_1502,Flanker,2021.2.0,239.74836015879393,
neutral left,0,a,neutral.png,neutral.png,neutral.png,left_arrow.png,neutral.png,neutral.png,neutral.png,,,,,0,5,5,4,,,,,,,,,,,,,128.51501680001093,None,,,,,,,,,,,,,,,,,,,,,,,,,,,,,,129.53281650001009,None,129.53281650001009,None,129.53281650001009,None,129.53281650001009,None,129.53281650001009,None,129.53281650001009,None,129.53281650001009,None,a,1,0.3991863999981433,129.53281650001009,None,,,,,,,,,,,,,13,001,2022_Oct_12_1502,Flanker,2021.2.0,239.74836015879393,
neutral left,0,a,neutral.png,neutral.png,neutral.png,left_arrow.png,neutral.png,neutral.png,neutral.png,,,,,1,0,6,4,,,,,,,,,,,,,129.94962050000322,None,,,,,,,,,,,,,,,,,,,,,,,,,,,,,,130.96319350000704,None,130.96319350000704,None,130.96319350000704,None,130.96319350000704,None,130.96319350000704,None,130.96319350000704,None,130.96319350000704,None,a,1,0.6407866999943508,130.96319350000704,None,,,,,,,,,,,,,13,001,2022_Oct_12_1502,Flanker,2021.2.0,239.74836015879393,
congruent-right.jpg,1,k,right_arrow.png,right_arrow.png,right_arrow.png,right_arrow.png,right_arrow.png,right_arrow.png,right_arrow.png,,,,,1,1,7,2,,,,,,,,,,,,,131.62231570000586,None,,,,,,,,,,,,,,,,,,,,,,,,,,,,,,132.63163430000714,None,132.63163430000714,None,132.63163430000714,None,132.63163430000714,None,132.63163430000714,None,132.63163430000714,None,132.63163430000714,None,k,1,0.5725833000033163,132.63163430000714,None,,,,,,,,,,,,,13,001,2022_Oct_12_1502,Flanker,2021.2.0,239.74836015879393,
neutral right,0,k,neutral.png,neutral.png,neutral.png,right_arrow.png,neutral.png,neutral.png,neutral.png,,,,,1,2,8,5,,,,,,,,,,,,,133.21560360000876,None,,,,,,,,,,,,,,,,,,,,,,,,,,,,,,134.2333304000058,None,134.2333304000058,None,134.2333304000058,None,134.2333304000058,None,134.2333304000058,None,134.2333304000058,None,134.2333304000058,None,k,1,0.5231218999979319,134.2333304000058,None,,,,,,,,,,,,,13,001,2022_Oct_12_1502,Flanker,2021.2.0,239.74836015879393,
neutral left,0,a,neutral.png,neutral.png,neutral.png,left_arrow.png,neutral.png,neutral.png,neutral.png,,,,,1,3,9,4,,,,,,,,,,,,,134.76727660000324,None,,,,,,,,,,,,,,,,,,,,,,,,,,,,,,135.78496720000112,None,135.78496720000112,None,135.78496720000112,None,135.78496720000112,None,135.78496720000112,None,135.78496720000112,None,135.78496720000112,None,a,1,0.44368300000496674,135.78496720000112,None,,,,,,,,,,,,,13,001,2022_Oct_12_1502,Flanker,2021.2.0,239.74836015879393,
neutral right,0,k,neutral.png,neutral.png,neutral.png,right_arrow.png,neutral.png,neutral.png,neutral.png,,,,,1,4,10,5,,,,,,,,,,,,,136.24387380000553,None,,,,,,,,,,,,,,,,,,,,,,,,,,,,,,137.25746570000774,None,137.25746570000774,None,137.25746570000774,None,137.25746570000774,None,137.25746570000774,None,137.25746570000774,None,137.25746570000774,None,k,1,0.41939510000520386,137.25746570000774,None,,,,,,,,,,,,,13,001,2022_Oct_12_1502,Flanker,2021.2.0,239.74836015879393,
incongruent-right.jpg,0,k,left_arrow.png,left_arrow.png,left_arrow.png,right_arrow.png,left_arrow.png,left_arrow.png,left_arrow.png,,,,,1,5,11,3,,,,,,,,,,,,,137.69125160000112,None,,,,,,,,,,,,,,,,,,,,,,,,,,,,,,138.70473550001043,None,138.70473550001043,None,138.70473550001043,None,138.70473550001043,None,138.70473550001043,None,138.70473550001043,None,138.70473550001043,None,k,1,0.8603425999899628,138.70473550001043,None,,,,,,,,,,,,,13,001,2022_Oct_12_1502,Flanker,2021.2.0,239.74836015879393,
incongruent-right.jpg,0,k,left_arrow.png,left_arrow.png,left_arrow.png,right_arrow.png,left_arrow.png,left_arrow.png,left_arrow.png,,,,,2,0,12,3,,,,,,,,,,,,,139.58066740000504,None,,,,,,,,,,,,,,,,,,,,,,,,,,,,,,140.59016230000998,None,140.59016230000998,None,140.59016230000998,None,140.59016230000998,None,140.59016230000998,None,140.59016230000998,None,140.59016230000998,None,k,1,0.7192004000098677,140.59016230000998,None,,,,,,,,,,,,,13,001,2022_Oct_12_1502,Flanker,2021.2.0,239.74836015879393,
congruent-right.jpg,1,k,right_arrow.png,right_arrow.png,right_arrow.png,right_arrow.png,right_arrow.png,right_arrow.png,right_arrow.png,,,,,2,1,13,2,,,,,,,,,,,,,141.32420060000732,None,,,,,,,,,,,,,,,,,,,,,,,,,,,,,,142.3377707000036,None,142.3377707000036,None,142.3377707000036,None,142.3377707000036,None,142.3377707000036,None,142.3377707000036,None,142.3377707000036,None,k,1,0.5797724000003655,142.3377707000036,None,,,,,,,,,,,,,13,001,2022_Oct_12_1502,Flanker,2021.2.0,239.74836015879393,
incongruent-right.jpg,0,k,left_arrow.png,left_arrow.png,left_arrow.png,right_arrow.png,left_arrow.png,left_arrow.png,left_arrow.png,,,,,2,2,14,3,,,,,,,,,,,,,142.9300612000079,None,,,,,,,,,,,,,,,,,,,,,,,,,,,,,,143.93947850000404,None,143.93947850000404,None,143.93947850000404,None,143.93947850000404,None,143.93947850000404,None,143.93947850000404,None,143.93947850000404,None,k,1,0.60232299999916,143.93947850000404,None,,,,,,,,,,,,,13,001,2022_Oct_12_1502,Flanker,2021.2.0,239.74836015879393,
incongruent-left.jpg,0,a,right_arrow.png,right_arrow.png,right_arrow.png,left_arrow.png,right_arrow.png,right_arrow.png,right_arrow.png,,,,,2,3,15,1,,,,,,,,,,,,,144.55692090000957,None,,,,,,,,,,,,,,,,,,,,,,,,,,,,,,145.56619800000044,None,145.56619800000044,None,145.56619800000044,None,145.56619800000044,None,145.56619800000044,None,145.56619800000044,None,145.56619800000044,None,a,1,0.6237600000022212,145.56619800000044,None,,,,,,,,,,,,,13,001,2022_Oct_12_1502,Flanker,2021.2.0,239.74836015879393,
congruent-right.jpg,1,k,right_arrow.png,right_arrow.png,right_arrow.png,right_arrow.png,right_arrow.png,right_arrow.png,right_arrow.png,,,,,2,4,16,2,,,,,,,,,,,,,146.20853550000174,None,,,,,,,,,,,,,,,,,,,,,,,,,,,,,,147.21793650000473,None,147.21793650000473,None,147.21793650000473,None,147.21793650000473,None,147.21793650000473,None,147.21793650000473,None,147.21793650000473,None,k,1,0.44437360001029447,147.21793650000473,None,,,,,,,,,,,,,13,001,2022_Oct_12_1502,Flanker,2021.2.0,239.74836015879393,
incongruent-right.jpg,0,k,left_arrow.png,left_arrow.png,left_arrow.png,right_arrow.png,left_arrow.png,left_arrow.png,left_arrow.png,,,,,2,5,17,3,,,,,,,,,,,,,147.67682370000693,None,,,,,,,,,,,,,,,,,,,,,,,,,,,,,,148.68618610000703,None,148.68618610000703,None,148.68618610000703,None,148.68618610000703,None,148.68618610000703,None,148.68618610000703,None,148.68618610000703,None,k,1,1.6083390999992844,148.68618610000703,None,,,,,,,,,,,,,13,001,2022_Oct_12_1502,Flanker,2021.2.0,239.74836015879393,
neutral left,0,a,neutral.png,neutral.png,neutral.png,left_arrow.png,neutral.png,neutral.png,neutral.png,,,,,3,0,18,4,,,,,,,,,,,,,150.3129001000052,None,,,,,,,,,,,,,,,,,,,,,,,,,,,,,,151.32645110000158,None,151.32645110000158,None,151.32645110000158,None,151.32645110000158,None,151.32645110000158,None,151.32645110000158,None,151.32645110000158,None,a,1,0.4723175000108313,151.32645110000158,None,,,,,,,,,,,,,13,001,2022_Oct_12_1502,Flanker,2021.2.0,239.74836015879393,
incongruent-left.jpg,0,a,right_arrow.png,right_arrow.png,right_arrow.png,left_arrow.png,right_arrow.png,right_arrow.png,right_arrow.png,,,,,3,1,19,1,,,,,,,,,,,,,151.81447150000895,None,,,,,,,,,,,,,,,,,,,,,,,,,,,,,,152.82388979999814,None,152.82388979999814,None,152.82388979999814,None,152.82388979999814,None,152.82388979999814,None,152.82388979999814,None,152.82388979999814,None,a,1,0.5670508999901358,152.82388979999814,None,,,,,,,,,,,,,13,001,2022_Oct_12_1502,Flanker,2021.2.0,239.74836015879393,
neutral right,0,k,neutral.png,neutral.png,neutral.png,right_arrow.png,neutral.png,neutral.png,neutral.png,,,,,3,2,20,5,,,,,,,,,,,,,153.40782740000577,None,,,,,,,,,,,,,,,,,,,,,,,,,,,,,,154.4172305000102,None,154.4172305000102,None,154.4172305000102,None,154.4172305000102,None,154.4172305000102,None,154.4172305000102,None,154.4172305000102,None,k,1,0.5019430999964243,154.4172305000102,None,,,,,,,,,,,,,13,001,2022_Oct_12_1502,Flanker,2021.2.0,239.74836015879393,
neutral left,0,a,neutral.png,neutral.png,neutral.png,left_arrow.png,neutral.png,neutral.png,neutral.png,,,,,3,3,21,4,,,,,,,,,,,,,154.93446160000167,None,,,,,,,,,,,,,,,,,,,,,,,,,,,,,,155.94802350000828,None,155.94802350000828,None,155.94802350000828,None,155.94802350000828,None,155.94802350000828,None,155.94802350000828,None,155.94802350000828,None,a,1,0.7313941000029445,155.94802350000828,None,,,,,,,,,,,,,13,001,2022_Oct_12_1502,Flanker,2021.2.0,239.74836015879393,
congruent-left.jpg,1,a,left_arrow.png,left_arrow.png,left_arrow.png,left_arrow.png,left_arrow.png,left_arrow.png,left_arrow.png,,,,,3,4,22,0,,,,,,,,,,,,,156.69048200000543,None,,,,,,,,,,,,,,,,,,,,,,,,,,,,,,157.70429220001097,None,157.70429220001097,None,157.70429220001097,None,157.70429220001097,None,157.70429220001097,None,157.70429220001097,None,157.70429220001097,None,a,1,0.4793817999889143,157.70429220001097,None,,,,,,,,,,,,,13,001,2022_Oct_12_1502,Flanker,2021.2.0,239.74836015879393,
neutral right,0,k,neutral.png,neutral.png,neutral.png,right_arrow.png,neutral.png,neutral.png,neutral.png,,,,,3,5,23,5,,,,,,,,,,,,,158.19634300000325,None,,,,,,,,,,,,,,,,,,,,,,,,,,,,,,159.20567440000013,None,159.20567440000013,None,159.20567440000013,None,159.20567440000013,None,159.20567440000013,None,159.20567440000013,None,159.20567440000013,None,k,1,0.41820290000759996,159.20567440000013,None,,,,,,,,,,,,,13,001,2022_Oct_12_1502,Flanker,2021.2.0,239.74836015879393,
congruent-left.jpg,1,a,left_arrow.png,left_arrow.png,left_arrow.png,left_arrow.png,left_arrow.png,left_arrow.png,left_arrow.png,,,,,4,0,24,0,,,,,,,,,,,,,159.6394619000057,None,,,,,,,,,,,,,,,,,,,,,,,,,,,,,,160.6530203000002,None,160.6530203000002,None,160.6530203000002,None,160.6530203000002,None,160.6530203000002,None,160.6530203000002,None,160.6530203000002,None,a,1,0.5630062000127509,160.6530203000002,None,,,,,,,,,,,,,13,001,2022_Oct_12_1502,Flanker,2021.2.0,239.74836015879393,
incongruent-right.jpg,0,k,left_arrow.png,left_arrow.png,left_arrow.png,right_arrow.png,left_arrow.png,left_arrow.png,left_arrow.png,,,,,4,1,25,3,,,,,,,,,,,,,161.2286555000028,None,,,,,,,,,,,,,,,,,,,,,,,,,,,,,,162.23818510001,None,162.23818510001,None,162.23818510001,None,162.23818510001,None,162.23818510001,None,162.23818510001,None,162.23818510001,None,k,1,0.7701440000091679,162.23818510001,None,,,,,,,,,,,,,13,001,2022_Oct_12_1502,Flanker,2021.2.0,239.74836015879393,
neutral left,0,a,neutral.png,neutral.png,neutral.png,left_arrow.png,neutral.png,neutral.png,neutral.png,,,,,4,2,26,4,,,,,,,,,,,,,163.02221460000146,None,,,,,,,,,,,,,,,,,,,,,,,,,,,,,,164.03608180000447,None,164.03608180000447,None,164.03608180000447,None,164.03608180000447,None,164.03608180000447,None,164.03608180000447,None,164.03608180000447,None,a,1,0.5083923000056529,164.03608180000447,None,,,,,,,,,,,,,13,001,2022_Oct_12_1502,Flanker,2021.2.0,239.74836015879393,
congruent-left.jpg,1,a,left_arrow.png,left_arrow.png,left_arrow.png,left_arrow.png,left_arrow.png,left_arrow.png,left_arrow.png,,,,,4,3,27,0,,,,,,,,,,,,,164.5613341999997,None,,,,,,,,,,,,,,,,,,,,,,,,,,,,,,165.5707975999976,None,165.5707975999976,None,165.5707975999976,None,165.5707975999976,None,165.5707975999976,None,165.5707975999976,None,165.5707975999976,None,a,1,0.4459244000026956,165.5707975999976,None,,,,,,,,,,,,,13,001,2022_Oct_12_1502,Flanker,2021.2.0,239.74836015879393,
congruent-right.jpg,1,k,right_arrow.png,right_arrow.png,right_arrow.png,right_arrow.png,right_arrow.png,right_arrow.png,right_arrow.png,,,,,4,4,28,2,,,,,,,,,,,,,166.0295746000047,None,,,,,,,,,,,,,,,,,,,,,,,,,,,,,,167.03897160000633,None,167.03897160000633,None,167.03897160000633,None,167.03897160000633,None,167.03897160000633,None,167.03897160000633,None,167.03897160000633,None,k,1,0.5059223999996902,167.03897160000633,None,,,,,,,,,,,,,13,001,2022_Oct_12_1502,Flanker,2021.2.0,239.74836015879393,
incongruent-left.jpg,0,a,right_arrow.png,right_arrow.png,right_arrow.png,left_arrow.png,right_arrow.png,right_arrow.png,right_arrow.png,,,,,4,5,29,1,,,,,,,,,,,,,167.55616819999705,None,,,,,,,,,,,,,,,,,,,,,,,,,,,,,,168.56978230000823,None,168.56978230000823,None,168.56978230000823,None,168.56978230000823,None,168.56978230000823,None,168.56978230000823,None,168.56978230000823,None,a,1,0.6873600999970222,168.56978230000823,None,,,,,,,,,,,,,13,001,2022_Oct_12_1502,Flanker,2021.2.0,239.74836015879393,
neutral left,0,a,neutral.png,neutral.png,neutral.png,left_arrow.png,neutral.png,neutral.png,neutral.png,,,,,5,0,30,4,,,,,,,,,,,,,169.27050549999694,None,,,,,,,,,,,,,,,,,,,,,,,,,,,,,,170.27992410000297,None,170.27992410000297,None,170.27992410000297,None,170.27992410000297,None,170.27992410000297,None,170.27992410000297,None,170.27992410000297,None,a,1,0.6174861999897985,170.27992410000297,None,,,,,,,,,,,,,13,001,2022_Oct_12_1502,Flanker,2021.2.0,239.74836015879393,
congruent-left.jpg,1,a,left_arrow.png,left_arrow.png,left_arrow.png,left_arrow.png,left_arrow.png,left_arrow.png,left_arrow.png,,,,,5,1,31,0,,,,,,,,,,,,,170.9142462000018,None,,,,,,,,,,,,,,,,,,,,,,,,,,,,,,171.931648400001,None,171.931648400001,None,171.931648400001,None,171.931648400001,None,171.931648400001,None,171.931648400001,None,171.931648400001,None,a,1,0.5259244000044418,171.931648400001,None,,,,,,,,,,,,,13,001,2022_Oct_12_1502,Flanker,2021.2.0,239.74836015879393,
incongruent-left.jpg,0,a,right_arrow.png,right_arrow.png,right_arrow.png,left_arrow.png,right_arrow.png,right_arrow.png,right_arrow.png,,,,,5,2,32,1,,,,,,,,,,,,,172.47424570001021,None,,,,,,,,,,,,,,,,,,,,,,,,,,,,,,173.48329530000046,None,173.48329530000046,None,173.48329530000046,None,173.48329530000046,None,173.48329530000046,None,173.48329530000046,None,173.48329530000046,None,a,1,0.5347607999865431,173.48329530000046,None,,,,,,,,,,,,,13,001,2022_Oct_12_1502,Flanker,2021.2.0,239.74836015879393,
congruent-right.jpg,1,k,right_arrow.png,right_arrow.png,right_arrow.png,right_arrow.png,right_arrow.png,right_arrow.png,right_arrow.png,,,,,5,3,33,2,,,,,,,,,,,,,174.0340972999984,None,,,,,,,,,,,,,,,,,,,,,,,,,,,,,,175.0434372000018,None,175.0434372000018,None,175.0434372000018,None,175.0434372000018,None,175.0434372000018,None,175.0434372000018,None,175.0434372000018,None,k,1,0.47057970000605565,175.0434372000018,None,,,,,,,,,,,,,13,001,2022_Oct_12_1502,Flanker,2021.2.0,239.74836015879393,
incongruent-left.jpg,0,a,right_arrow.png,right_arrow.png,right_arrow.png,left_arrow.png,right_arrow.png,right_arrow.png,right_arrow.png,,,,,5,4,34,1,,,,,,,,,,,,,175.52714500000002,None,,,,,,,,,,,,,,,,,,,,,,,,,,,,,,176.53669269999955,None,176.53669269999955,None,176.53669269999955,None,176.53669269999955,None,176.53669269999955,None,176.53669269999955,None,176.53669269999955,None,a,1,0.4814916000032099,176.53669269999955,None,,,,,,,,,,,,,13,001,2022_Oct_12_1502,Flanker,2021.2.0,239.74836015879393,
neutral right,0,k,neutral.png,neutral.png,neutral.png,right_arrow.png,neutral.png,neutral.png,neutral.png,,,,,5,5,35,5,,,,,,,,,,,,,177.0372944999981,None,,,,,,,,,,,,,,,,,,,,,,,,,,,,,,178.04662390000885,None,178.04662390000885,None,178.04662390000885,None,178.04662390000885,None,178.04662390000885,None,178.04662390000885,None,178.04662390000885,None,k,1,1.1558500999963144,178.04662390000885,None,,,,,,,,,,,,,13,001,2022_Oct_12_1502,Flanker,2021.2.0,239.74836015879393,
incongruent-left.jpg,0,a,right_arrow.png,right_arrow.png,right_arrow.png,left_arrow.png,right_arrow.png,right_arrow.png,right_arrow.png,,,,,6,0,36,1,,,,,,,,,,,,,179.21445520000998,None,,,,,,,,,,,,,,,,,,,,,,,,,,,,,,180.2322767000005,None,180.2322767000005,None,180.2322767000005,None,180.2322767000005,None,180.2322767000005,None,180.2322767000005,None,180.2322767000005,None,a,1,0.6586265000078129,180.2322767000005,None,,,,,,,,,,,,,13,001,2022_Oct_12_1502,Flanker,2021.2.0,239.74836015879393,
congruent-left.jpg,1,a,left_arrow.png,left_arrow.png,left_arrow.png,left_arrow.png,left_arrow.png,left_arrow.png,left_arrow.png,,,,,6,1,37,0,,,,,,,,,,,,,180.90815750000183,None,,,,,,,,,,,,,,,,,,,,,,,,,,,,,,181.92158760000893,None,181.92158760000893,None,181.92158760000893,None,181.92158760000893,None,181.92158760000893,None,181.92158760000893,None,181.92158760000893,None,a,1,0.6413307000038913,181.92158760000893,None,,,,,,,,,,,,,13,001,2022_Oct_12_1502,Flanker,2021.2.0,239.74836015879393,
neutral left,0,a,neutral.png,neutral.png,neutral.png,left_arrow.png,neutral.png,neutral.png,neutral.png,,,,,6,2,38,4,,,,,,,,,,,,,182.58045930000662,None,,,,,,,,,,,,,,,,,,,,,,,,,,,,,,183.59400890000688,None,183.59400890000688,None,183.59400890000688,None,183.59400890000688,None,183.59400890000688,None,183.59400890000688,None,183.59400890000688,None,a,1,0.5851961999869673,183.59400890000688,None,,,,,,,,,,,,,13,001,2022_Oct_12_1502,Flanker,2021.2.0,239.74836015879393,
incongruent-right.jpg,0,k,left_arrow.png,left_arrow.png,left_arrow.png,right_arrow.png,left_arrow.png,left_arrow.png,left_arrow.png,,,,,6,3,39,3,,,,,,,,,,,,,184.19465230000787,None,,,,,,,,,,,,,,,,,,,,,,,,,,,,,,185.2040582000045,None,185.2040582000045,None,185.2040582000045,None,185.2040582000045,None,185.2040582000045,None,185.2040582000045,None,185.2040582000045,None,k,1,0.7915877000050386,185.2040582000045,None,,,,,,,,,,,,,13,001,2022_Oct_12_1502,Flanker,2021.2.0,239.74836015879393,
congruent-right.jpg,1,k,right_arrow.png,right_arrow.png,right_arrow.png,right_arrow.png,right_arrow.png,right_arrow.png,right_arrow.png,,,,,6,4,40,2,,,,,,,,,,,,,186.01332500000717,None,,,,,,,,,,,,,,,,,,,,,,,,,,,,,,187.02292440000747,None,187.02292440000747,None,187.02292440000747,None,187.02292440000747,None,187.02292440000747,None,187.02292440000747,None,187.02292440000747,None,k,1,0.5807026999973459,187.02292440000747,None,,,,,,,,,,,,,13,001,2022_Oct_12_1502,Flanker,2021.2.0,239.74836015879393,
congruent-left.jpg,1,a,left_arrow.png,left_arrow.png,left_arrow.png,left_arrow.png,left_arrow.png,left_arrow.png,left_arrow.png,,,,,6,5,41,0,,,,,,,,,,,,,187.61531439999817,None,,,,,,,,,,,,,,,,,,,,,,,,,,,,,,188.62884450001002,None,188.62884450001002,None,188.62884450001002,None,188.62884450001002,None,188.62884450001002,None,188.62884450001002,None,188.62884450001002,None,a,1,0.7832786999933887,188.62884450001002,None,,,,,,,,,,,,,13,001,2022_Oct_12_1502,Flanker,2021.2.0,239.74836015879393,
incongruent-left.jpg,0,a,right_arrow.png,right_arrow.png,right_arrow.png,left_arrow.png,right_arrow.png,right_arrow.png,right_arrow.png,,,,,7,0,42,1,,,,,,,,,,,,,189.42934410000453,None,,,,,,,,,,,,,,,,,,,,,,,,,,,,,,190.44294649999938,None,190.44294649999938,None,190.44294649999938,None,190.44294649999938,None,190.44294649999938,None,190.44294649999938,None,190.44294649999938,None,a,1,0.5531759000004968,190.44294649999938,None,,,,,,,,,,,,,13,001,2022_Oct_12_1502,Flanker,2021.2.0,239.74836015879393,
neutral right,0,k,neutral.png,neutral.png,neutral.png,right_arrow.png,neutral.png,neutral.png,neutral.png,,,,,7,1,43,5,,,,,,,,,,,,,191.01042260001122,None,,,,,,,,,,,,,,,,,,,,,,,,,,,,,,192.02404610000667,None,192.02404610000667,None,192.02404610000667,None,192.02404610000667,None,192.02404610000667,None,192.02404610000667,None,192.02404610000667,None,k,1,0.46825130000070203,192.02404610000667,None,,,,,,,,,,,,,13,001,2022_Oct_12_1502,Flanker,2021.2.0,239.74836015879393,
congruent-left.jpg,1,a,left_arrow.png,left_arrow.png,left_arrow.png,left_arrow.png,left_arrow.png,left_arrow.png,left_arrow.png,,,,,7,2,44,0,,,,,,,,,,,,,192.50804450000578,None,,,,,,,,,,,,,,,,,,,,,,,,,,,,,,193.5211810000037,None,193.5211810000037,None,193.5211810000037,None,193.5211810000037,None,193.5211810000037,None,193.5211810000037,None,193.5211810000037,None,a,1,0.45129029999952763,193.5211810000037,None,,,,,,,,,,,,,13,001,2022_Oct_12_1502,Flanker,2021.2.0,239.74836015879393,
congruent-right.jpg,1,k,right_arrow.png,right_arrow.png,right_arrow.png,right_arrow.png,right_arrow.png,right_arrow.png,right_arrow.png,,,,,7,3,45,2,,,,,,,,,,,,,193.98419950000243,None,,,,,,,,,,,,,,,,,,,,,,,,,,,,,,194.99388609999733,None,194.99388609999733,None,194.99388609999733,None,194.99388609999733,None,194.99388609999733,None,194.99388609999733,None,194.99388609999733,None,k,1,0.44282949999615084,194.99388609999733,None,,,,,,,,,,,,,13,001,2022_Oct_12_1502,Flanker,2021.2.0,239.74836015879393,
incongruent-right.jpg,0,k,left_arrow.png,left_arrow.png,left_arrow.png,right_arrow.png,left_arrow.png,left_arrow.png,left_arrow.png,,,,,7,4,46,3,,,,,,,,,,,,,195.45239830001083,None,,,,,,,,,,,,,,,,,,,,,,,,,,,,,,196.46598780000932,None,196.46598780000932,None,196.46598780000932,None,196.46598780000932,None,196.46598780000932,None,196.46598780000932,None,196.46598780000932,None,k,1,0.4992785999929765,196.46598780000932,None,,,,,,,,,,,,,13,001,2022_Oct_12_1502,Flanker,2021.2.0,239.74836015879393,
neutral right,0,k,neutral.png,neutral.png,neutral.png,right_arrow.png,neutral.png,neutral.png,neutral.png,,,,,7,5,47,5,,,,,,,,,,,,,196.98343760000716,None,,,,,,,,,,,,,,,,,,,,,,,,,,,,,,197.99259770000936,None,197.99259770000936,None,197.99259770000936,None,197.99259770000936,None,197.99259770000936,None,197.99259770000936,None,197.99259770000936,None,k,1,0.4285066000011284,197.99259770000936,None,,,,,,,,,,,,,13,001,2022_Oct_12_1502,Flanker,2021.2.0,239.74836015879393,
,,,,,,,,,,,,,,,,,,,,,,,,,,,,,,,,,,,,,,,,,,,,,,,,,,,,,,,,,,,,,,,,,,,,,,,,,,,,,,,,198.44731760000286,None,space,3.5982764000073075,198.44731760000286,None,,,,,,,13,001,2022_Oct_12_1502,Flanker,2021.2.0,239.74836015879393,
incongruent-left.jpg,0,a,right_arrow.png,right_arrow.png,right_arrow.png,left_arrow.png,right_arrow.png,right_arrow.png,right_arrow.png,,,,,,,,,0,0,0,1,,,,,,,,,202.06816710000567,None,,,,,,,,,,,,,,,,,,,,,,,,,,,,,,203.06881290000456,None,203.06881290000456,None,203.06881290000456,None,203.06881290000456,None,203.06881290000456,None,203.06881290000456,None,203.06881290000456,None,a,1,0.8970087000052445,203.06881290000456,None,,,,,,,,,,,,,13,001,2022_Oct_12_1502,Flanker,2021.2.0,239.74836015879393,
neutral left,0,a,neutral.png,neutral.png,neutral.png,left_arrow.png,neutral.png,neutral.png,neutral.png,,,,,,,,,0,1,1,4,,,,,,,,,203.9781939000095,None,,,,,,,,,,,,,,,,,,,,,,,,,,,,,,204.99584699999832,None,204.99584699999832,None,204.99584699999832,None,204.99584699999832,None,204.99584699999832,None,204.99584699999832,None,204.99584699999832,None,a,1,0.426229599994258,204.99584699999832,None,,,,,,,,,,,,,13,001,2022_Oct_12_1502,Flanker,2021.2.0,239.74836015879393,
incongruent-left.jpg,0,a,right_arrow.png,right_arrow.png,right_arrow.png,left_arrow.png,right_arrow.png,right_arrow.png,right_arrow.png,,,,,,,,,0,2,2,1,,,,,,,,,205.43800690000353,None,,,,,,,,,,,,,,,,,,,,,,,,,,,,,,206.45156190000125,None,206.45156190000125,None,206.45156190000125,None,206.45156190000125,None,206.45156190000125,None,206.45156190000125,None,206.45156190000125,None,a,1,0.46695919999910984,206.45156190000125,None,,,,,,,,,,,,,13,001,2022_Oct_12_1502,Flanker,2021.2.0,239.74836015879393,
incongruent-right.jpg,0,k,left_arrow.png,left_arrow.png,left_arrow.png,right_arrow.png,left_arrow.png,left_arrow.png,left_arrow.png,,,,,,,,,0,3,3,3,,,,,,,,,206.9354228000011,None,,,,,,,,,,,,,,,,,,,,,,,,,,,,,,207.94900810001127,None,207.94900810001127,None,207.94900810001127,None,207.94900810001127,None,207.94900810001127,None,207.94900810001127,None,207.94900810001127,None,k,1,0.4974385999958031,207.94900810001127,None,,,,,,,,,,,,,13,001,2022_Oct_12_1502,Flanker,2021.2.0,239.74836015879393,
incongruent-left.jpg,0,a,right_arrow.png,right_arrow.png,right_arrow.png,left_arrow.png,right_arrow.png,right_arrow.png,right_arrow.png,,,,,,,,,0,4,4,1,,,,,,,,,208.4579350999993,None,,,,,,,,,,,,,,,,,,,,,,,,,,,,,,209.47183590001077,None,209.47183590001077,None,209.47183590001077,None,209.47183590001077,None,209.47183590001077,None,209.47183590001077,None,209.47183590001077,None,a,1,0.44680890000017826,209.47183590001077,None,,,,,,,,,,,,,13,001,2022_Oct_12_1502,Flanker,2021.2.0,239.74836015879393,
incongruent-right.jpg,0,k,left_arrow.png,left_arrow.png,left_arrow.png,right_arrow.png,left_arrow.png,left_arrow.png,left_arrow.png,,,,,,,,,0,5,5,3,,,,,,,,,209.9302788000059,None,,,,,,,,,,,,,,,,,,,,,,,,,,,,,,210.9399509000068,None,210.9399509000068,None,210.9399509000068,None,210.9399509000068,None,210.9399509000068,None,210.9399509000068,None,210.9399509000068,None,k,1,0.3869076999981189,210.9399509000068,None,,,,,,,,,,,,,13,001,2022_Oct_12_1502,Flanker,2021.2.0,239.74836015879393,
incongruent-left.jpg,0,a,right_arrow.png,right_arrow.png,right_arrow.png,left_arrow.png,right_arrow.png,right_arrow.png,right_arrow.png,,,,,,,,,1,0,6,1,,,,,,,,,211.34007770000608,None,,,,,,,,,,,,,,,,,,,,,,,,,,,,,,212.3497742000036,None,212.3497742000036,None,212.3497742000036,None,212.3497742000036,None,212.3497742000036,None,212.3497742000036,None,212.3497742000036,None,a,1,0.4575073000014527,212.3497742000036,None,,,,,,,,,,,,,13,001,2022_Oct_12_1502,Flanker,2021.2.0,239.74836015879393,
neutral left,0,a,neutral.png,neutral.png,neutral.png,left_arrow.png,neutral.png,neutral.png,neutral.png,,,,,,,,,1,1,7,4,,,,,,,,,212.8253121000016,None,,,,,,,,,,,,,,,,,,,,,,,,,,,,,,213.83856970000488,None,213.83856970000488,None,213.83856970000488,None,213.83856970000488,None,213.83856970000488,None,213.83856970000488,None,213.83856970000488,None,a,1,0.5126943000068422,213.83856970000488,None,,,,,,,,,,,,,13,001,2022_Oct_12_1502,Flanker,2021.2.0,239.74836015879393,
neutral left,0,a,neutral.png,neutral.png,neutral.png,left_arrow.png,neutral.png,neutral.png,neutral.png,,,,,,,,,1,2,8,4,,,,,,,,,214.3641321000032,None,,,,,,,,,,,,,,,,,,,,,,,,,,,,,,215.37351900000067,None,215.37351900000067,None,215.37351900000067,None,215.37351900000067,None,215.37351900000067,None,215.37351900000067,None,215.37351900000067,None,a,1,0.45027899999695364,215.37351900000067,None,,,,,,,,,,,,,13,001,2022_Oct_12_1502,Flanker,2021.2.0,239.74836015879393,
neutral right,0,k,neutral.png,neutral.png,neutral.png,right_arrow.png,neutral.png,neutral.png,neutral.png,,,,,,,,,1,3,9,5,,,,,,,,,215.84092980000423,None,,,,,,,,,,,,,,,,,,,,,,,,,,,,,,216.85011650000524,None,216.85011650000524,None,216.85011650000524,None,216.85011650000524,None,216.85011650000524,None,216.85011650000524,None,216.85011650000524,None,k,1,0.389528399988194,216.85011650000524,None,,,,,,,,,,,,,13,001,2022_Oct_12_1502,Flanker,2021.2.0,239.74836015879393,
neutral left,0,a,neutral.png,neutral.png,neutral.png,left_arrow.png,neutral.png,neutral.png,neutral.png,,,,,,,,,1,4,10,4,,,,,,,,,217.2588470000046,None,,,,,,,,,,,,,,,,,,,,,,,,,,,,,,218.26833869999973,None,218.26833869999973,None,218.26833869999973,None,218.26833869999973,None,218.26833869999973,None,218.26833869999973,None,218.26833869999973,None,a,1,0.4035546999948565,218.26833869999973,None,,,,,,,,,,,,,13,001,2022_Oct_12_1502,Flanker,2021.2.0,239.74836015879393,
incongruent-left.jpg,0,a,right_arrow.png,right_arrow.png,right_arrow.png,left_arrow.png,right_arrow.png,right_arrow.png,right_arrow.png,,,,,,,,,1,5,11,1,,,,,,,,,218.68536870001117,None,,,,,,,,,,,,,,,,,,,,,,,,,,,,,,219.69515939999837,None,219.69515939999837,None,219.69515939999837,None,219.69515939999837,None,219.69515939999837,None,219.69515939999837,None,219.69515939999837,None,a,1,0.5048685999936424,219.69515939999837,None,,,,,,,,,,,,,13,001,2022_Oct_12_1502,Flanker,2021.2.0,239.74836015879393,
incongruent-right.jpg,0,k,left_arrow.png,left_arrow.png,left_arrow.png,right_arrow.png,left_arrow.png,left_arrow.png,left_arrow.png,,,,,,,,,2,0,12,3,,,,,,,,,220.21237920000567,None,,,,,,,,,,,,,,,,,,,,,,,,,,,,,,221.22150379999948,None,221.22150379999948,None,221.22150379999948,None,221.22150379999948,None,221.22150379999948,None,221.22150379999948,None,221.22150379999948,None,k,1,0.4667734999966342,221.22150379999948,None,,,,,,,,,,,,,13,001,2022_Oct_12_1502,Flanker,2021.2.0,239.74836015879393,
neutral left,0,a,neutral.png,neutral.png,neutral.png,left_arrow.png,neutral.png,neutral.png,neutral.png,,,,,,,,,2,1,13,4,,,,,,,,,221.7052135999984,None,,,,,,,,,,,,,,,,,,,,,,,,,,,,,,222.719110799997,None,222.719110799997,None,222.719110799997,None,222.719110799997,None,222.719110799997,None,222.719110799997,None,222.719110799997,None,a,1,0.3853740999911679,222.719110799997,None,,,,,,,,,,,,,13,001,2022_Oct_12_1502,Flanker,2021.2.0,239.74836015879393,
congruent-right.jpg,1,k,right_arrow.png,right_arrow.png,right_arrow.png,right_arrow.png,right_arrow.png,right_arrow.png,right_arrow.png,,,,,,,,,2,2,14,2,,,,,,,,,223.11959500001103,None,,,,,,,,,,,,,,,,,,,,,,,,,,,,,,224.1328019000066,None,224.1328019000066,None,224.1328019000066,None,224.1328019000066,None,224.1328019000066,None,224.1328019000066,None,224.1328019000066,None,k,1,0.3878412999911234,224.1328019000066,None,,,,,,,,,,,,,13,001,2022_Oct_12_1502,Flanker,2021.2.0,239.74836015879393,
congruent-right.jpg,1,k,right_arrow.png,right_arrow.png,right_arrow.png,right_arrow.png,right_arrow.png,right_arrow.png,right_arrow.png,,,,,,,,,2,3,15,2,,,,,,,,,224.53330970001116,None,,,,,,,,,,,,,,,,,,,,,,,,,,,,,,225.54680690000532,None,225.54680690000532,None,225.54680690000532,None,225.54680690000532,None,225.54680690000532,None,225.54680690000532,None,225.54680690000532,None,k,1,0.4540415000083158,225.54680690000532,None,,,,,,,,,,,,,13,001,2022_Oct_12_1502,Flanker,2021.2.0,239.74836015879393,
neutral right,0,k,neutral.png,neutral.png,neutral.png,right_arrow.png,neutral.png,neutral.png,neutral.png,,,,,,,,,2,4,16,5,,,,,,,,,226.01423060000525,None,,,,,,,,,,,,,,,,,,,,,,,,,,,,,,227.0275546000048,None,227.0275546000048,None,227.0275546000048,None,227.0275546000048,None,227.0275546000048,None,227.0275546000048,None,227.0275546000048,None,k,1,0.40547690000676084,227.0275546000048,None,,,,,,,,,,,,,13,001,2022_Oct_12_1502,Flanker,2021.2.0,239.74836015879393,
neutral right,0,k,neutral.png,neutral.png,neutral.png,right_arrow.png,neutral.png,neutral.png,neutral.png,,,,,,,,,2,5,17,5,,,,,,,,,227.4447297000006,None,,,,,,,,,,,,,,,,,,,,,,,,,,,,,,228.4585938000091,None,228.4585938000091,None,228.4585938000091,None,228.4585938000091,None,228.4585938000091,None,228.4585938000091,None,228.4585938000091,None,k,1,0.3909002000000328,228.4585938000091,None,,,,,,,,,,,,,13,001,2022_Oct_12_1502,Flanker,2021.2.0,239.74836015879393,
neutral right,0,k,neutral.png,neutral.png,neutral.png,right_arrow.png,neutral.png,neutral.png,neutral.png,,,,,,,,,3,0,18,5,,,,,,,,,228.86700220000057,None,,,,,,,,,,,,,,,,,,,,,,,,,,,,,,229.8808061000018,None,229.8808061000018,None,229.8808061000018,None,229.8808061000018,None,229.8808061000018,None,229.8808061000018,None,229.8808061000018,None,k,1,0.3686269999889191,229.8808061000018,None,,,,,,,,,,,,,13,001,2022_Oct_12_1502,Flanker,2021.2.0,239.74836015879393,
neutral right,0,k,neutral.png,neutral.png,neutral.png,right_arrow.png,neutral.png,neutral.png,neutral.png,,,,,,,,,3,1,19,5,,,,,,,,,230.26435379999748,None,,,,,,,,,,,,,,,,,,,,,,,,,,,,,,231.27811759999895,None,231.27811759999895,None,231.27811759999895,None,231.27811759999895,None,231.27811759999895,None,231.27811759999895,None,231.27811759999895,None,k,1,0.40350949999992736,231.27811759999895,None,,,,,,,,,,,,,13,001,2022_Oct_12_1502,Flanker,2021.2.0,239.74836015879393,
congruent-right.jpg,1,k,right_arrow.png,right_arrow.png,right_arrow.png,right_arrow.png,right_arrow.png,right_arrow.png,right_arrow.png,,,,,,,,,3,2,20,2,,,,,,,,,231.694974500002,None,,,,,,,,,,,,,,,,,,,,,,,,,,,,,,232.7047031999973,None,232.7047031999973,None,232.7047031999973,None,232.7047031999973,None,232.7047031999973,None,232.7047031999973,None,232.7047031999973,None,k,1,0.36910769999667536,232.7047031999973,None,,,,,,,,,,,,,13,001,2022_Oct_12_1502,Flanker,2021.2.0,239.74836015879393,
congruent-right.jpg,1,k,right_arrow.png,right_arrow.png,right_arrow.png,right_arrow.png,right_arrow.png,right_arrow.png,right_arrow.png,,,,,,,,,3,3,21,2,,,,,,,,,233.08812780000153,None,,,,,,,,,,,,,,,,,,,,,,,,,,,,,,234.09775400000217,None,234.09775400000217,None,234.09775400000217,None,234.09775400000217,None,234.09775400000217,None,234.09775400000217,None,234.09775400000217,None,k,1,0.3362519000074826,234.09775400000217,None,,,,,,,,,,,,,13,001,2022_Oct_12_1502,Flanker,2021.2.0,239.74836015879393,
congruent-left.jpg,1,a,left_arrow.png,left_arrow.png,left_arrow.png,left_arrow.png,left_arrow.png,left_arrow.png,left_arrow.png,,,,,,,,,3,4,22,0,,,,,,,,,234.44826230000763,None,,,,,,,,,,,,,,,,,,,,,,,,,,,,,,235.4576046000002,None,235.4576046000002,None,235.4576046000002,None,235.4576046000002,None,235.4576046000002,None,235.4576046000002,None,235.4576046000002,None,k,0,0.3205823999887798,235.4576046000002,None,,,,,,,,,,,,,13,001,2022_Oct_12_1502,Flanker,2021.2.0,239.74836015879393,
incongruent-left.jpg,0,a,right_arrow.png,right_arrow.png,right_arrow.png,left_arrow.png,right_arrow.png,right_arrow.png,right_arrow.png,,,,,,,,,3,5,23,1,,,,,,,,,235.79099490000226,None,,,,,,,,,,,,,,,,,,,,,,,,,,,,,,236.80041280000296,None,236.80041280000296,None,236.80041280000296,None,236.80041280000296,None,236.80041280000296,None,236.80041280000296,None,236.80041280000296,None,a,1,0.7540163000085158,236.80041280000296,None,,,,,,,,,,,,,13,001,2022_Oct_12_1502,Flanker,2021.2.0,239.74836015879393,
congruent-left.jpg,1,a,left_arrow.png,left_arrow.png,left_arrow.png,left_arrow.png,left_arrow.png,left_arrow.png,left_arrow.png,,,,,,,,,4,0,24,0,,,,,,,,,237.5678789000085,None,,,,,,,,,,,,,,,,,,,,,,,,,,,,,,238.58175250000204,None,238.58175250000204,None,238.58175250000204,None,238.58175250000204,None,238.58175250000204,None,238.58175250000204,None,238.58175250000204,None,a,1,0.4768910999991931,238.58175250000204,None,,,,,,,,,,,,,13,001,2022_Oct_12_1502,Flanker,2021.2.0,239.74836015879393,
congruent-left.jpg,1,a,left_arrow.png,left_arrow.png,left_arrow.png,left_arrow.png,left_arrow.png,left_arrow.png,left_arrow.png,,,,,,,,,4,1,25,0,,,,,,,,,239.07365890000074,None,,,,,,,,,,,,,,,,,,,,,,,,,,,,,,240.08326159999706,None,240.08326159999706,None,240.08326159999706,None,240.08326159999706,None,240.08326159999706,None,240.08326159999706,None,240.08326159999706,None,a,1,0.5195768999983557,240.08326159999706,None,,,,,,,,,,,,,13,001,2022_Oct_12_1502,Flanker,2021.2.0,239.74836015879393,
neutral right,0,k,neutral.png,neutral.png,neutral.png,right_arrow.png,neutral.png,neutral.png,neutral.png,,,,,,,,,4,2,26,5,,,,,,,,,240.6169477000076,None,,,,,,,,,,,,,,,,,,,,,,,,,,,,,,241.62656430000789,None,241.62656430000789,None,241.62656430000789,None,241.62656430000789,None,241.62656430000789,None,241.62656430000789,None,241.62656430000789,None,k,1,0.6804737000056775,241.62656430000789,None,,,,,,,,,,,,,13,001,2022_Oct_12_1502,Flanker,2021.2.0,239.74836015879393,
incongruent-right.jpg,0,k,left_arrow.png,left_arrow.png,left_arrow.png,right_arrow.png,left_arrow.png,left_arrow.png,left_arrow.png,,,,,,,,,4,3,27,3,,,,,,,,,242.31875520000176,None,,,,,,,,,,,,,,,,,,,,,,,,,,,,,,243.33681490000163,None,243.33681490000163,None,243.33681490000163,None,243.33681490000163,None,243.33681490000163,None,243.33681490000163,None,243.33681490000163,None,k,1,0.6907910000008997,243.33681490000163,None,,,,,,,,,,,,,13,001,2022_Oct_12_1502,Flanker,2021.2.0,239.74836015879393,
incongruent-right.jpg,0,k,left_arrow.png,left_arrow.png,left_arrow.png,right_arrow.png,left_arrow.png,left_arrow.png,left_arrow.png,,,,,,,,,4,4,28,3,,,,,,,,,244.04557820000628,None,,,,,,,,,,,,,,,,,,,,,,,,,,,,,,245.0549786000047,None,245.0549786000047,None,245.0549786000047,None,245.0549786000047,None,245.0549786000047,None,245.0549786000047,None,245.0549786000047,None,k,1,0.6845362000021851,245.0549786000047,None,,,,,,,,,,,,,13,001,2022_Oct_12_1502,Flanker,2021.2.0,239.74836015879393,
incongruent-right.jpg,0,k,left_arrow.png,left_arrow.png,left_arrow.png,right_arrow.png,left_arrow.png,left_arrow.png,left_arrow.png,,,,,,,,,4,5,29,3,,,,,,,,,245.75573129999975,None,,,,,,,,,,,,,,,,,,,,,,,,,,,,,,246.76961050000682,None,246.76961050000682,None,246.76961050000682,None,246.76961050000682,None,246.76961050000682,None,246.76961050000682,None,246.76961050000682,None,k,1,0.6261683000047924,246.76961050000682,None,,,,,,,,,,,,,13,001,2022_Oct_12_1502,Flanker,2021.2.0,239.74836015879393,
incongruent-right.jpg,0,k,left_arrow.png,left_arrow.png,left_arrow.png,right_arrow.png,left_arrow.png,left_arrow.png,left_arrow.png,,,,,,,,,5,0,30,3,,,,,,,,,247.41165690000344,None,,,,,,,,,,,,,,,,,,,,,,,,,,,,,,248.42136649999884,None,248.42136649999884,None,248.42136649999884,None,248.42136649999884,None,248.42136649999884,None,248.42136649999884,None,248.42136649999884,None,k,1,0.8866441999998642,248.42136649999884,None,,,,,,,,,,,,,13,001,2022_Oct_12_1502,Flanker,2021.2.0,239.74836015879393,
congruent-right.jpg,1,k,right_arrow.png,right_arrow.png,right_arrow.png,right_arrow.png,right_arrow.png,right_arrow.png,right_arrow.png,,,,,,,,,5,1,31,2,,,,,,,,,249.3220188999985,None,,,,,,,,,,,,,,,,,,,,,,,,,,,,,,250.33171749999747,None,250.33171749999747,None,250.33171749999747,None,250.33171749999747,None,250.33171749999747,None,250.33171749999747,None,250.33171749999747,None,k,1,0.6805051999981515,250.33171749999747,None,,,,,,,,,,,,,13,001,2022_Oct_12_1502,Flanker,2021.2.0,239.74836015879393,
congruent-left.jpg,1,a,left_arrow.png,left_arrow.png,left_arrow.png,left_arrow.png,left_arrow.png,left_arrow.png,left_arrow.png,,,,,,,,,5,2,32,0,,,,,,,,,251.02417970000533,None,,,,,,,,,,,,,,,,,,,,,,,,,,,,,,252.03338030001032,None,252.03338030001032,None,252.03338030001032,None,252.03338030001032,None,252.03338030001032,None,252.03338030001032,None,252.03338030001032,None,a,1,0.7071203999948921,252.03338030001032,None,,,,,,,,,,,,,13,001,2022_Oct_12_1502,Flanker,2021.2.0,239.74836015879393,
neutral left,0,a,neutral.png,neutral.png,neutral.png,left_arrow.png,neutral.png,neutral.png,neutral.png,,,,,,,,,5,3,33,4,,,,,,,,,252.75901030001114,None,,,,,,,,,,,,,,,,,,,,,,,,,,,,,,253.77288730000146,None,253.77288730000146,None,253.77288730000146,None,253.77288730000146,None,253.77288730000146,None,253.77288730000146,None,253.77288730000146,None,a,1,0.6878488999936963,253.77288730000146,None,,,,,,,,,,,,,13,001,2022_Oct_12_1502,Flanker,2021.2.0,239.74836015879393,
congruent-left.jpg,1,a,left_arrow.png,left_arrow.png,left_arrow.png,left_arrow.png,left_arrow.png,left_arrow.png,left_arrow.png,,,,,,,,,5,4,34,0,,,,,,,,,254.47362410000642,None,,,,,,,,,,,,,,,,,,,,,,,,,,,,,,255.49129950000497,None,255.49129950000497,None,255.49129950000497,None,255.49129950000497,None,255.49129950000497,None,255.49129950000497,None,255.49129950000497,None,a,1,0.4336294000095222,255.49129950000497,None,,,,,,,,,,,,,13,001,2022_Oct_12_1502,Flanker,2021.2.0,239.74836015879393,
neutral left,0,a,neutral.png,neutral.png,neutral.png,left_arrow.png,neutral.png,neutral.png,neutral.png,,,,,,,,,5,5,35,4,,,,,,,,,255.94156250001106,None,,,,,,,,,,,,,,,,,,,,,,,,,,,,,,256.95129850000376,None,256.95129850000376,None,256.95129850000376,None,256.95129850000376,None,256.95129850000376,None,256.95129850000376,None,256.95129850000376,None,a,1,0.4859853999951156,256.95129850000376,None,,,,,,,,,,,,,13,001,2022_Oct_12_1502,Flanker,2021.2.0,239.74836015879393,
congruent-right.jpg,1,k,right_arrow.png,right_arrow.png,right_arrow.png,right_arrow.png,right_arrow.png,right_arrow.png,right_arrow.png,,,,,,,,,6,0,36,2,,,,,,,,,257.45175890000246,None,,,,,,,,,,,,,,,,,,,,,,,,,,,,,,258.4650413000054,None,258.4650413000054,None,258.4650413000054,None,258.4650413000054,None,258.4650413000054,None,258.4650413000054,None,258.4650413000054,None,k,1,0.6765808000054676,258.4650413000054,None,,,,,,,,,,,,,13,001,2022_Oct_12_1502,Flanker,2021.2.0,239.74836015879393,
congruent-left.jpg,1,a,left_arrow.png,left_arrow.png,left_arrow.png,left_arrow.png,left_arrow.png,left_arrow.png,left_arrow.png,,,,,,,,,6,1,37,0,,,,,,,,,259.15772879999713,None,,,,,,,,,,,,,,,,,,,,,,,,,,,,,,260.1669896000094,None,260.1669896000094,None,260.1669896000094,None,260.1669896000094,None,260.1669896000094,None,260.1669896000094,None,260.1669896000094,None,a,1,0.6145744999957969,260.1669896000094,None,,,,,,,,,,,,,13,001,2022_Oct_12_1502,Flanker,2021.2.0,239.74836015879393,
congruent-right.jpg,1,k,right_arrow.png,right_arrow.png,right_arrow.png,right_arrow.png,right_arrow.png,right_arrow.png,right_arrow.png,,,,,,,,,6,2,38,2,,,,,,,,,260.7929346000019,None,,,,,,,,,,,,,,,,,,,,,,,,,,,,,,261.806353100008,None,261.806353100008,None,261.806353100008,None,261.806353100008,None,261.806353100008,None,261.806353100008,None,261.806353100008,None,k,1,0.4878954000014346,261.806353100008,None,,,,,,,,,,,,,13,001,2022_Oct_12_1502,Flanker,2021.2.0,239.74836015879393,
congruent-left.jpg,1,a,left_arrow.png,left_arrow.png,left_arrow.png,left_arrow.png,left_arrow.png,left_arrow.png,left_arrow.png,,,,,,,,,6,3,39,0,,,,,,,,,262.3067555000016,None,,,,,,,,,,,,,,,,,,,,,,,,,,,,,,263.3205597000051,None,263.3205597000051,None,263.3205597000051,None,263.3205597000051,None,263.3205597000051,None,263.3205597000051,None,263.3205597000051,None,a,1,0.4455630000011297,263.3205597000051,None,,,,,,,,,,,,,13,001,2022_Oct_12_1502,Flanker,2021.2.0,239.74836015879393,
incongruent-right.jpg,0,k,left_arrow.png,left_arrow.png,left_arrow.png,right_arrow.png,left_arrow.png,left_arrow.png,left_arrow.png,,,,,,,,,6,4,40,3,,,,,,,,,263.7793757000036,None,,,,,,,,,,,,,,,,,,,,,,,,,,,,,,264.7884658999974,None,264.7884658999974,None,264.7884658999974,None,264.7884658999974,None,264.7884658999974,None,264.7884658999974,None,264.7884658999974,None,k,1,0.43371379999734927,264.7884658999974,None,,,,,,,,,,,,,13,001,2022_Oct_12_1502,Flanker,2021.2.0,239.74836015879393,
congruent-right.jpg,1,k,right_arrow.png,right_arrow.png,right_arrow.png,right_arrow.png,right_arrow.png,right_arrow.png,right_arrow.png,,,,,,,,,6,5,41,2,,,,,,,,,265.2388893000025,None,,,,,,,,,,,,,,,,,,,,,,,,,,,,,,266.2485027000075,None,266.2485027000075,None,266.2485027000075,None,266.2485027000075,None,266.2485027000075,None,266.2485027000075,None,266.2485027000075,None,k,1,0.981926199994632,266.2485027000075,None,,,,,,,,,,,,,13,001,2022_Oct_12_1502,Flanker,2021.2.0,239.74836015879393,
incongruent-left.jpg,0,a,right_arrow.png,right_arrow.png,right_arrow.png,left_arrow.png,right_arrow.png,right_arrow.png,right_arrow.png,,,,,,,,,7,0,42,1,,,,,,,,,267.24934180000855,None,,,,,,,,,,,,,,,,,,,,,,,,,,,,,,268.2589578000043,None,268.2589578000043,None,268.2589578000043,None,268.2589578000043,None,268.2589578000043,None,268.2589578000043,None,268.2589578000043,None,a,1,1.3000469999969937,268.2589578000043,None,,,,,,,,,,,,,13,001,2022_Oct_12_1502,Flanker,2021.2.0,239.74836015879393,
neutral left,0,a,neutral.png,neutral.png,neutral.png,left_arrow.png,neutral.png,neutral.png,neutral.png,,,,,,,,,7,1,43,4,,,,,,,,,269.5770821000042,None,,,,,,,,,,,,,,,,,,,,,,,,,,,,,,270.5864311000041,None,270.5864311000041,None,270.5864311000041,None,270.5864311000041,None,270.5864311000041,None,270.5864311000041,None,270.5864311000041,None,a,1,0.540523600007873,270.5864311000041,None,,,,,,,,,,,,,13,001,2022_Oct_12_1502,Flanker,2021.2.0,239.74836015879393,
neutral right,0,k,neutral.png,neutral.png,neutral.png,right_arrow.png,neutral.png,neutral.png,neutral.png,,,,,,,,,7,2,44,5,,,,,,,,,271.1452208999981,None,,,,,,,,,,,,,,,,,,,,,,,,,,,,,,272.1545400000032,None,272.1545400000032,None,272.1545400000032,None,272.1545400000032,None,272.1545400000032,None,272.1545400000032,None,272.1545400000032,None,k,1,0.45263930001237895,272.1545400000032,None,,,,,,,,,,,,,13,001,2022_Oct_12_1502,Flanker,2021.2.0,239.74836015879393,
congruent-left.jpg,1,a,left_arrow.png,left_arrow.png,left_arrow.png,left_arrow.png,left_arrow.png,left_arrow.png,left_arrow.png,,,,,,,,,7,3,45,0,,,,,,,,,272.6217106000113,None,,,,,,,,,,,,,,,,,,,,,,,,,,,,,,273.63111899999785,None,273.63111899999785,None,273.63111899999785,None,273.63111899999785,None,273.63111899999785,None,273.63111899999785,None,273.63111899999785,None,a,1,0.4562294999923324,273.63111899999785,None,,,,,,,,,,,,,13,001,2022_Oct_12_1502,Flanker,2021.2.0,239.74836015879393,
incongruent-left.jpg,0,a,right_arrow.png,right_arrow.png,right_arrow.png,left_arrow.png,right_arrow.png,right_arrow.png,right_arrow.png,,,,,,,,,7,4,46,1,,,,,,,,,274.09829590001027,None,,,,,,,,,,,,,,,,,,,,,,,,,,,,,,275.1163138999982,None,275.1163138999982,None,275.1163138999982,None,275.1163138999982,None,275.1163138999982,None,275.1163138999982,None,275.1163138999982,None,a,1,0.7552766999870073,275.1163138999982,None,,,,,,,,,,,,,13,001,2022_Oct_12_1502,Flanker,2021.2.0,239.74836015879393,
neutral right,0,k,neutral.png,neutral.png,neutral.png,right_arrow.png,neutral.png,neutral.png,neutral.png,,,,,,,,,7,5,47,5,,,,,,,,,275.88351440000406,None,,,,,,,,,,,,,,,,,,,,,,,,,,,,,,276.89707669999916,None,276.89707669999916,None,276.89707669999916,None,276.89707669999916,None,276.89707669999916,None,276.89707669999916,None,276.89707669999916,None,k,1,0.4467058000009274,276.89707669999916,None,,,,,,,,,,,,,13,001,2022_Oct_12_1502,Flanker,2021.2.0,239.74836015879393,
,,,,,,,,,,,,,,,,,,,,,,,,,,,,,,,,,,,,,,,,,,,,,,,,,,,,,,,,,,,,,,,,,,,,,,,,,,,,,,,,277.36842500000785,None,space,7.368413700009114,277.36842500000785,None,,,,,,,13,001,2022_Oct_12_1502,Flanker,2021.2.0,239.74836015879393,
neutral right,0,k,neutral.png,neutral.png,neutral.png,right_arrow.png,neutral.png,neutral.png,neutral.png,,,,,,,,,,,,,0,0,0,5,,,,,284.75967470000614,None,,,,,,,,,,,,,,,,,,,,,,,,,,,,,,285.7608518000052,None,285.7608518000052,None,285.7608518000052,None,285.7608518000052,None,285.7608518000052,None,285.7608518000052,None,285.7608518000052,None,k,1,0.5523152000096161,285.7608518000052,None,,,,,,,,,,,,,13,001,2022_Oct_12_1502,Flanker,2021.2.0,239.74836015879393,
neutral left,0,a,neutral.png,neutral.png,neutral.png,left_arrow.png,neutral.png,neutral.png,neutral.png,,,,,,,,,,,,,0,1,1,4,,,,,286.32798170000024,None,,,,,,,,,,,,,,,,,,,,,,,,,,,,,,287.3417538000067,None,287.3417538000067,None,287.3417538000067,None,287.3417538000067,None,287.3417538000067,None,287.3417538000067,None,287.3417538000067,None,a,1,0.49174510000739247,287.3417538000067,None,,,,,,,,,,,,,13,001,2022_Oct_12_1502,Flanker,2021.2.0,239.74836015879393,
congruent-right.jpg,1,k,right_arrow.png,right_arrow.png,right_arrow.png,right_arrow.png,right_arrow.png,right_arrow.png,right_arrow.png,,,,,,,,,,,,,0,2,2,2,,,,,287.850623899998,None,,,,,,,,,,,,,,,,,,,,,,,,,,,,,,288.8597715000069,None,288.8597715000069,None,288.8597715000069,None,288.8597715000069,None,288.8597715000069,None,288.8597715000069,None,288.8597715000069,None,k,1,0.5016838000010466,288.8597715000069,None,,,,,,,,,,,,,13,001,2022_Oct_12_1502,Flanker,2021.2.0,239.74836015879393,
congruent-right.jpg,1,k,right_arrow.png,right_arrow.png,right_arrow.png,right_arrow.png,right_arrow.png,right_arrow.png,right_arrow.png,,,,,,,,,,,,,0,3,3,2,,,,,289.3770744000067,None,,,,,,,,,,,,,,,,,,,,,,,,,,,,,,290.38665919999767,None,290.38665919999767,None,290.38665919999767,None,290.38665919999767,None,290.38665919999767,None,290.38665919999767,None,290.38665919999767,None,k,1,0.4709831999934977,290.38665919999767,None,,,,,,,,,,,,,13,001,2022_Oct_12_1502,Flanker,2021.2.0,239.74836015879393,
congruent-right.jpg,1,k,right_arrow.png,right_arrow.png,right_arrow.png,right_arrow.png,right_arrow.png,right_arrow.png,right_arrow.png,,,,,,,,,,,,,0,4,4,2,,,,,290.87051520000387,None,,,,,,,,,,,,,,,,,,,,,,,,,,,,,,291.8841454000067,None,291.8841454000067,None,291.8841454000067,None,291.8841454000067,None,291.8841454000067,None,291.8841454000067,None,291.8841454000067,None,k,1,0.6057130999979563,291.8841454000067,None,,,,,,,,,,,,,13,001,2022_Oct_12_1502,Flanker,2021.2.0,239.74836015879393,
congruent-right.jpg,1,k,right_arrow.png,right_arrow.png,right_arrow.png,right_arrow.png,right_arrow.png,right_arrow.png,right_arrow.png,,,,,,,,,,,,,0,5,5,2,,,,,292.5011197999993,None,,,,,,,,,,,,,,,,,,,,,,,,,,,,,,293.5105110000004,None,293.5105110000004,None,293.5105110000004,None,293.5105110000004,None,293.5105110000004,None,293.5105110000004,None,293.5105110000004,None,k,1,0.4195583999971859,293.5105110000004,None,,,,,,,,,,,,,13,001,2022_Oct_12_1502,Flanker,2021.2.0,239.74836015879393,
neutral left,0,a,neutral.png,neutral.png,neutral.png,left_arrow.png,neutral.png,neutral.png,neutral.png,,,,,,,,,,,,,1,0,6,4,,,,,293.9443043000065,None,,,,,,,,,,,,,,,,,,,,,,,,,,,,,,294.9579078000097,None,294.9579078000097,None,294.9579078000097,None,294.9579078000097,None,294.9579078000097,None,294.9579078000097,None,294.9579078000097,None,a,1,0.6283889999904204,294.9579078000097,None,,,,,,,,,,,,,13,001,2022_Oct_12_1502,Flanker,2021.2.0,239.74836015879393,
neutral left,0,a,neutral.png,neutral.png,neutral.png,left_arrow.png,neutral.png,neutral.png,neutral.png,,,,,,,,,,,,,1,1,7,4,,,,,295.60021360000246,None,,,,,,,,,,,,,,,,,,,,,,,,,,,,,,296.6096857000084,None,296.6096857000084,None,296.6096857000084,None,296.6096857000084,None,296.6096857000084,None,296.6096857000084,None,296.6096857000084,None,a,1,0.3848040000011679,296.6096857000084,None,,,,,,,,,,,,,13,001,2022_Oct_12_1502,Flanker,2021.2.0,239.74836015879393,
incongruent-left.jpg,0,a,right_arrow.png,right_arrow.png,right_arrow.png,left_arrow.png,right_arrow.png,right_arrow.png,right_arrow.png,,,,,,,,,,,,,1,2,8,1,,,,,297.0101455999975,None,,,,,,,,,,,,,,,,,,,,,,,,,,,,,,298.0237320000015,None,298.0237320000015,None,298.0237320000015,None,298.0237320000015,None,298.0237320000015,None,298.0237320000015,None,298.0237320000015,None,a,1,1.2910778000077698,298.0237320000015,None,,,,,,,,,,,,,13,001,2022_Oct_12_1502,Flanker,2021.2.0,239.74836015879393,
congruent-left.jpg,1,a,left_arrow.png,left_arrow.png,left_arrow.png,left_arrow.png,left_arrow.png,left_arrow.png,left_arrow.png,,,,,,,,,,,,,1,3,9,0,,,,,299.3333791000041,None,,,,,,,,,,,,,,,,,,,,,,,,,,,,,,300.33860610000556,None,300.33860610000556,None,300.33860610000556,None,300.33860610000556,None,300.33860610000556,None,300.33860610000556,None,300.33860610000556,None,a,1,1.008769400010351,300.33860610000556,None,,,,,,,,,,,,,13,001,2022_Oct_12_1502,Flanker,2021.2.0,239.74836015879393,
incongruent-right.jpg,0,k,left_arrow.png,left_arrow.png,left_arrow.png,right_arrow.png,left_arrow.png,left_arrow.png,left_arrow.png,,,,,,,,,,,,,1,4,10,3,,,,,301.36478329999954,None,,,,,,,,,,,,,,,,,,,,,,,,,,,,,,302.3784190000006,None,302.3784190000006,None,302.3784190000006,None,302.3784190000006,None,302.3784190000006,None,302.3784190000006,None,302.3784190000006,None,k,1,0.8410840000142343,302.3784190000006,None,,,,,,,,,,,,,13,001,2022_Oct_12_1502,Flanker,2021.2.0,239.74836015879393,
incongruent-left.jpg,0,a,right_arrow.png,right_arrow.png,right_arrow.png,left_arrow.png,right_arrow.png,right_arrow.png,right_arrow.png,,,,,,,,,,,,,1,5,11,1,,,,,303.2376367000106,None,,,,,,,,,,,,,,,,,,,,,,,,,,,,,,304.2510700999992,None,304.2510700999992,None,304.2510700999992,None,304.2510700999992,None,304.2510700999992,None,304.2510700999992,None,304.2510700999992,None,a,1,0.512508700005128,304.2510700999992,None,,,,,,,,,,,,,13,001,2022_Oct_12_1502,Flanker,2021.2.0,239.74836015879393,
incongruent-left.jpg,0,a,right_arrow.png,right_arrow.png,right_arrow.png,left_arrow.png,right_arrow.png,right_arrow.png,right_arrow.png,,,,,,,,,,,,,2,0,12,1,,,,,304.77666060000774,None,,,,,,,,,,,,,,,,,,,,,,,,,,,,,,305.7860662000021,None,305.7860662000021,None,305.7860662000021,None,305.7860662000021,None,305.7860662000021,None,305.7860662000021,None,305.7860662000021,None,a,1,0.7056845999904908,305.7860662000021,None,,,,,,,,,,,,,13,001,2022_Oct_12_1502,Flanker,2021.2.0,239.74836015879393,
congruent-left.jpg,1,a,left_arrow.png,left_arrow.png,left_arrow.png,left_arrow.png,left_arrow.png,left_arrow.png,left_arrow.png,,,,,,,,,,,,,2,1,13,0,,,,,306.50348980000126,None,,,,,,,,,,,,,,,,,,,,,,,,,,,,,,307.5130203000008,None,307.5130203000008,None,307.5130203000008,None,307.5130203000008,None,307.5130203000008,None,307.5130203000008,None,307.5130203000008,None,a,1,0.6669977999990806,307.5130203000008,None,,,,,,,,,,,,,13,001,2022_Oct_12_1502,Flanker,2021.2.0,239.74836015879393,
incongruent-right.jpg,0,k,left_arrow.png,left_arrow.png,left_arrow.png,right_arrow.png,left_arrow.png,left_arrow.png,left_arrow.png,,,,,,,,,,,,,2,2,14,3,,,,,308.19707150000613,None,,,,,,,,,,,,,,,,,,,,,,,,,,,,,,309.2105142000073,None,309.2105142000073,None,309.2105142000073,None,309.2105142000073,None,309.2105142000073,None,309.2105142000073,None,309.2105142000073,None,k,1,0.8017467000026954,309.2105142000073,None,,,,,,,,,,,,,13,001,2022_Oct_12_1502,Flanker,2021.2.0,239.74836015879393,
incongruent-right.jpg,0,k,left_arrow.png,left_arrow.png,left_arrow.png,right_arrow.png,left_arrow.png,left_arrow.png,left_arrow.png,,,,,,,,,,,,,2,3,15,3,,,,,310.02816080000775,None,,,,,,,,,,,,,,,,,,,,,,,,,,,,,,311.0417684999993,None,311.0417684999993,None,311.0417684999993,None,311.0417684999993,None,311.0417684999993,None,311.0417684999993,None,311.0417684999993,None,k,1,0.6907516999926884,311.0417684999993,None,,,,,,,,,,,,,13,001,2022_Oct_12_1502,Flanker,2021.2.0,239.74836015879393,
congruent-right.jpg,1,k,right_arrow.png,right_arrow.png,right_arrow.png,right_arrow.png,right_arrow.png,right_arrow.png,right_arrow.png,,,,,,,,,,,,,2,4,16,2,,,,,311.750906900008,None,,,,,,,,,,,,,,,,,,,,,,,,,,,,,,312.7645313000103,None,312.7645313000103,None,312.7645313000103,None,312.7645313000103,None,312.7645313000103,None,312.7645313000103,None,312.7645313000103,None,k,1,0.5442107999988366,312.7645313000103,None,,,,,,,,,,,,,13,001,2022_Oct_12_1502,Flanker,2021.2.0,239.74836015879393,
congruent-right.jpg,1,k,right_arrow.png,right_arrow.png,right_arrow.png,right_arrow.png,right_arrow.png,right_arrow.png,right_arrow.png,,,,,,,,,,,,,2,5,17,2,,,,,313.32327510000323,None,,,,,,,,,,,,,,,,,,,,,,,,,,,,,,314.32844450000266,None,314.32844450000266,None,314.32844450000266,None,314.32844450000266,None,314.32844450000266,None,314.32844450000266,None,314.32844450000266,None,k,1,0.5484736999933375,314.32844450000266,None,,,,,,,,,,,,,13,001,2022_Oct_12_1502,Flanker,2021.2.0,239.74836015879393,
incongruent-left.jpg,0,a,right_arrow.png,right_arrow.png,right_arrow.png,left_arrow.png,right_arrow.png,right_arrow.png,right_arrow.png,,,,,,,,,,,,,3,0,18,1,,,,,314.8957037000073,None,,,,,,,,,,,,,,,,,,,,,,,,,,,,,,315.9095101999992,None,315.9095101999992,None,315.9095101999992,None,315.9095101999992,None,315.9095101999992,None,315.9095101999992,None,315.9095101999992,None,a,1,0.7596618000097806,315.9095101999992,None,,,,,,,,,,,,,13,001,2022_Oct_12_1502,Flanker,2021.2.0,239.74836015879393,
neutral right,0,k,neutral.png,neutral.png,neutral.png,right_arrow.png,neutral.png,neutral.png,neutral.png,,,,,,,,,,,,,3,1,19,5,,,,,316.6853756000055,None,,,,,,,,,,,,,,,,,,,,,,,,,,,,,,317.69448450001073,None,317.69448450001073,None,317.69448450001073,None,317.69448450001073,None,317.69448450001073,None,317.69448450001073,None,317.69448450001073,None,k,1,0.46288069999718573,317.69448450001073,None,,,,,,,,,,,,,13,001,2022_Oct_12_1502,Flanker,2021.2.0,239.74836015879393,
congruent-left.jpg,1,a,left_arrow.png,left_arrow.png,left_arrow.png,left_arrow.png,left_arrow.png,left_arrow.png,left_arrow.png,,,,,,,,,,,,,3,2,20,0,,,,,318.1700151999976,None,,,,,,,,,,,,,,,,,,,,,,,,,,,,,,319.1797981999989,None,319.1797981999989,None,319.1797981999989,None,319.1797981999989,None,319.1797981999989,None,319.1797981999989,None,319.1797981999989,None,a,1,0.4257653999957256,319.1797981999989,None,,,,,,,,,,,,,13,001,2022_Oct_12_1502,Flanker,2021.2.0,239.74836015879393,
incongruent-right.jpg,0,k,left_arrow.png,left_arrow.png,left_arrow.png,right_arrow.png,left_arrow.png,left_arrow.png,left_arrow.png,,,,,,,,,,,,,3,3,21,3,,,,,319.6218188000057,None,,,,,,,,,,,,,,,,,,,,,,,,,,,,,,320.6309309000062,None,320.6309309000062,None,320.6309309000062,None,320.6309309000062,None,320.6309309000062,None,320.6309309000062,None,320.6309309000062,None,k,1,0.5428264000074705,320.6309309000062,None,,,,,,,,,,,,,13,001,2022_Oct_12_1502,Flanker,2021.2.0,239.74836015879393,
incongruent-right.jpg,0,k,left_arrow.png,left_arrow.png,left_arrow.png,right_arrow.png,left_arrow.png,left_arrow.png,left_arrow.png,,,,,,,,,,,,,3,4,22,3,,,,,321.18994130000647,None,,,,,,,,,,,,,,,,,,,,,,,,,,,,,,322.2036733999994,None,322.2036733999994,None,322.2036733999994,None,322.2036733999994,None,322.2036733999994,None,322.2036733999994,None,322.2036733999994,None,k,1,0.5382797999918694,322.2036733999994,None,,,,,,,,,,,,,13,001,2022_Oct_12_1502,Flanker,2021.2.0,239.74836015879393,
neutral right,0,k,neutral.png,neutral.png,neutral.png,right_arrow.png,neutral.png,neutral.png,neutral.png,,,,,,,,,,,,,3,5,23,5,,,,,322.75438399999985,None,,,,,,,,,,,,,,,,,,,,,,,,,,,,,,323.7675833000103,None,323.7675833000103,None,323.7675833000103,None,323.7675833000103,None,323.7675833000103,None,323.7675833000103,None,323.7675833000103,None,k,1,0.4866039000044111,323.7675833000103,None,,,,,,,,,,,,,13,001,2022_Oct_12_1502,Flanker,2021.2.0,239.74836015879393,
congruent-left.jpg,1,a,left_arrow.png,left_arrow.png,left_arrow.png,left_arrow.png,left_arrow.png,left_arrow.png,left_arrow.png,,,,,,,,,,,,,4,0,24,0,,,,,324.26813019999827,None,,,,,,,,,,,,,,,,,,,,,,,,,,,,,,325.2775401000108,None,325.2775401000108,None,325.2775401000108,None,325.2775401000108,None,325.2775401000108,None,325.2775401000108,None,325.2775401000108,None,a,1,0.4888308999943547,325.2775401000108,None,,,,,,,,,,,,,13,001,2022_Oct_12_1502,Flanker,2021.2.0,239.74836015879393,
incongruent-left.jpg,0,a,right_arrow.png,right_arrow.png,right_arrow.png,left_arrow.png,right_arrow.png,right_arrow.png,right_arrow.png,,,,,,,,,,,,,4,1,25,1,,,,,325.7781248000101,None,,,,,,,,,,,,,,,,,,,,,,,,,,,,,,326.7958396000031,None,326.7958396000031,None,326.7958396000031,None,326.7958396000031,None,326.7958396000031,None,326.7958396000031,None,326.7958396000031,None,a,1,3.043506299989531,326.7958396000031,None,,,,,,,,,,,,,13,001,2022_Oct_12_1502,Flanker,2021.2.0,239.74836015879393,
incongruent-left.jpg,0,a,right_arrow.png,right_arrow.png,right_arrow.png,left_arrow.png,right_arrow.png,right_arrow.png,right_arrow.png,,,,,,,,,,,,,4,2,26,1,,,,,329.8573994000035,None,,,,,,,,,,,,,,,,,,,,,,,,,,,,,,330.87101590000384,None,330.87101590000384,None,330.87101590000384,None,330.87101590000384,None,330.87101590000384,None,330.87101590000384,None,330.87101590000384,None,a,1,0.5121522999979788,330.87101590000384,None,,,,,,,,,,,,,13,001,2022_Oct_12_1502,Flanker,2021.2.0,239.74836015879393,
neutral right,0,k,neutral.png,neutral.png,neutral.png,right_arrow.png,neutral.png,neutral.png,neutral.png,,,,,,,,,,,,,4,3,27,5,,,,,331.39658939999936,None,,,,,,,,,,,,,,,,,,,,,,,,,,,,,,332.41018800000893,None,332.41018800000893,None,332.41018800000893,None,332.41018800000893,None,332.41018800000893,None,332.41018800000893,None,332.41018800000893,None,k,1,0.4851723000028869,332.41018800000893,None,,,,,,,,,,,,,13,001,2022_Oct_12_1502,Flanker,2021.2.0,239.74836015879393,
neutral left,0,a,neutral.png,neutral.png,neutral.png,left_arrow.png,neutral.png,neutral.png,neutral.png,,,,,,,,,,,,,4,4,28,4,,,,,332.91095750000386,None,,,,,,,,,,,,,,,,,,,,,,,,,,,,,,333.92034930000955,None,333.92034930000955,None,333.92034930000955,None,333.92034930000955,None,333.92034930000955,None,333.92034930000955,None,333.92034930000955,None,a,1,0.40743859999929555,333.92034930000955,None,,,,,,,,,,,,,13,001,2022_Oct_12_1502,Flanker,2021.2.0,239.74836015879393,
incongruent-left.jpg,0,a,right_arrow.png,right_arrow.png,right_arrow.png,left_arrow.png,right_arrow.png,right_arrow.png,right_arrow.png,,,,,,,,,,,,,4,5,29,1,,,,,334.3457672000077,None,,,,,,,,,,,,,,,,,,,,,,,,,,,,,,335.3590400000103,None,335.3590400000103,None,335.3590400000103,None,335.3590400000103,None,335.3590400000103,None,335.3590400000103,None,335.3590400000103,None,a,1,0.5607399000000441,335.3590400000103,None,,,,,,,,,,,,,13,001,2022_Oct_12_1502,Flanker,2021.2.0,239.74836015879393,
congruent-right.jpg,1,k,right_arrow.png,right_arrow.png,right_arrow.png,right_arrow.png,right_arrow.png,right_arrow.png,right_arrow.png,,,,,,,,,,,,,5,0,30,2,,,,,335.93464780000795,None,,,,,,,,,,,,,,,,,,,,,,,,,,,,,,336.94847290001053,None,336.94847290001053,None,336.94847290001053,None,336.94847290001053,None,336.94847290001053,None,336.94847290001053,None,336.94847290001053,None,k,1,0.4918035000009695,336.94847290001053,None,,,,,,,,,,,,,13,001,2022_Oct_12_1502,Flanker,2021.2.0,239.74836015879393,
neutral right,0,k,neutral.png,neutral.png,neutral.png,right_arrow.png,neutral.png,neutral.png,neutral.png,,,,,,,,,,,,,5,1,31,5,,,,,337.4571004000027,None,,,,,,,,,,,,,,,,,,,,,,,,,,,,,,338.4707600999973,None,338.4707600999973,None,338.4707600999973,None,338.4707600999973,None,338.4707600999973,None,338.4707600999973,None,338.4707600999973,None,k,1,0.449423799989745,338.4707600999973,None,,,,,,,,,,,,,13,001,2022_Oct_12_1502,Flanker,2021.2.0,239.74836015879393,
incongruent-right.jpg,0,k,left_arrow.png,left_arrow.png,left_arrow.png,right_arrow.png,left_arrow.png,left_arrow.png,left_arrow.png,,,,,,,,,,,,,5,2,32,3,,,,,338.9378998000029,None,,,,,,,,,,,,,,,,,,,,,,,,,,,,,,339.95155520000844,None,339.95155520000844,None,339.95155520000844,None,339.95155520000844,None,339.95155520000844,None,339.95155520000844,None,339.95155520000844,None,k,1,0.6888333999959286,339.95155520000844,None,,,,,,,,,,,,,13,001,2022_Oct_12_1502,Flanker,2021.2.0,239.74836015879393,
congruent-left.jpg,1,a,left_arrow.png,left_arrow.png,left_arrow.png,left_arrow.png,left_arrow.png,left_arrow.png,left_arrow.png,,,,,,,,,,,,,5,3,33,0,,,,,340.6521466999984,None,,,,,,,,,,,,,,,,,,,,,,,,,,,,,,341.6615441000031,None,341.6615441000031,None,341.6615441000031,None,341.6615441000031,None,341.6615441000031,None,341.6615441000031,None,341.6615441000031,None,a,1,0.5150573999999324,341.6615441000031,None,,,,,,,,,,,,,13,001,2022_Oct_12_1502,Flanker,2021.2.0,239.74836015879393,
incongruent-right.jpg,0,k,left_arrow.png,left_arrow.png,left_arrow.png,right_arrow.png,left_arrow.png,left_arrow.png,left_arrow.png,,,,,,,,,,,,,5,4,34,3,,,,,342.19547910000256,None,,,,,,,,,,,,,,,,,,,,,,,,,,,,,,343.20460379999713,None,343.20460379999713,None,343.20460379999713,None,343.20460379999713,None,343.20460379999713,None,343.20460379999713,None,343.20460379999713,None,k,1,0.43623150000348687,343.20460379999713,None,,,,,,,,,,,,,13,001,2022_Oct_12_1502,Flanker,2021.2.0,239.74836015879393,
neutral right,0,k,neutral.png,neutral.png,neutral.png,right_arrow.png,neutral.png,neutral.png,neutral.png,,,,,,,,,,,,,5,5,35,5,,,,,343.6553244000097,None,,,,,,,,,,,,,,,,,,,,,,,,,,,,,,344.66495700000087,None,344.66495700000087,None,344.66495700000087,None,344.66495700000087,None,344.66495700000087,None,344.66495700000087,None,344.66495700000087,None,k,1,0.4960696999914944,344.66495700000087,None,,,,,,,,,,,,,13,001,2022_Oct_12_1502,Flanker,2021.2.0,239.74836015879393,
neutral left,0,a,neutral.png,neutral.png,neutral.png,left_arrow.png,neutral.png,neutral.png,neutral.png,,,,,,,,,,,,,6,0,36,4,,,,,345.1736149000062,None,,,,,,,,,,,,,,,,,,,,,,,,,,,,,,346.18753140000626,None,346.18753140000626,None,346.18753140000626,None,346.18753140000626,None,346.18753140000626,None,346.18753140000626,None,346.18753140000626,None,a,1,0.3817033000086667,346.18753140000626,None,,,,,,,,,,,,,13,001,2022_Oct_12_1502,Flanker,2021.2.0,239.74836015879393,
neutral right,0,k,neutral.png,neutral.png,neutral.png,right_arrow.png,neutral.png,neutral.png,neutral.png,,,,,,,,,,,,,6,1,37,5,,,,,346.58760240000265,None,,,,,,,,,,,,,,,,,,,,,,,,,,,,,,347.60119820000546,None,347.60119820000546,None,347.60119820000546,None,347.60119820000546,None,347.60119820000546,None,347.60119820000546,None,347.60119820000546,None,k,1,0.3522151000070153,347.60119820000546,None,,,,,,,,,,,,,13,001,2022_Oct_12_1502,Flanker,2021.2.0,239.74836015879393,
incongruent-right.jpg,0,k,left_arrow.png,left_arrow.png,left_arrow.png,right_arrow.png,left_arrow.png,left_arrow.png,left_arrow.png,,,,,,,,,,,,,6,2,38,3,,,,,347.9682446000079,None,,,,,,,,,,,,,,,,,,,,,,,,,,,,,,348.9818230000092,None,348.9818230000092,None,348.9818230000092,None,348.9818230000092,None,348.9818230000092,None,348.9818230000092,None,348.9818230000092,None,k,1,0.8598726999916835,348.9818230000092,None,,,,,,,,,,,,,13,001,2022_Oct_12_1502,Flanker,2021.2.0,239.74836015879393,
congruent-left.jpg,1,a,left_arrow.png,left_arrow.png,left_arrow.png,left_arrow.png,left_arrow.png,left_arrow.png,left_arrow.png,,,,,,,,,,,,,6,3,39,0,,,,,349.8577331999986,None,,,,,,,,,,,,,,,,,,,,,,,,,,,,,,350.86745180000435,None,350.86745180000435,None,350.86745180000435,None,350.86745180000435,None,350.86745180000435,None,350.86745180000435,None,350.86745180000435,None,a,1,0.5264329999918118,350.86745180000435,None,,,,,,,,,,,,,13,001,2022_Oct_12_1502,Flanker,2021.2.0,239.74836015879393,
congruent-right.jpg,1,k,right_arrow.png,right_arrow.png,right_arrow.png,right_arrow.png,right_arrow.png,right_arrow.png,right_arrow.png,,,,,,,,,,,,,6,4,40,2,,,,,351.40973720001057,None,,,,,,,,,,,,,,,,,,,,,,,,,,,,,,352.41881339999964,None,352.41881339999964,None,352.41881339999964,None,352.41881339999964,None,352.41881339999964,None,352.41881339999964,None,352.41881339999964,None,k,1,0.49530029999732506,352.41881339999964,None,,,,,,,,,,,,,13,001,2022_Oct_12_1502,Flanker,2021.2.0,239.74836015879393,
congruent-left.jpg,1,a,left_arrow.png,left_arrow.png,left_arrow.png,left_arrow.png,left_arrow.png,left_arrow.png,left_arrow.png,,,,,,,,,,,,,6,5,41,0,,,,,352.9276872000046,None,,,,,,,,,,,,,,,,,,,,,,,,,,,,,,353.93715410000004,None,353.93715410000004,None,353.93715410000004,None,353.93715410000004,None,353.93715410000004,None,353.93715410000004,None,353.93715410000004,None,a,1,0.5292401000042446,353.93715410000004,None,,,,,,,,,,,,,13,001,2022_Oct_12_1502,Flanker,2021.2.0,239.74836015879393,
incongruent-left.jpg,0,a,right_arrow.png,right_arrow.png,right_arrow.png,left_arrow.png,right_arrow.png,right_arrow.png,right_arrow.png,,,,,,,,,,,,,7,0,42,1,,,,,354.4793268000067,None,,,,,,,,,,,,,,,,,,,,,,,,,,,,,,355.48900570000114,None,355.48900570000114,None,355.48900570000114,None,355.48900570000114,None,355.48900570000114,None,355.48900570000114,None,355.48900570000114,None,a,1,0.48947380000026897,355.48900570000114,None,,,,,,,,,,,,,13,001,2022_Oct_12_1502,Flanker,2021.2.0,239.74836015879393,
neutral left,0,a,neutral.png,neutral.png,neutral.png,left_arrow.png,neutral.png,neutral.png,neutral.png,,,,,,,,,,,,,7,1,43,4,,,,,355.9975947000057,None,,,,,,,,,,,,,,,,,,,,,,,,,,,,,,357.0154126999987,None,357.0154126999987,None,357.0154126999987,None,357.0154126999987,None,357.0154126999987,None,357.0154126999987,None,357.0154126999987,None,a,1,0.39527010000892915,357.0154126999987,None,,,,,,,,,,,,,13,001,2022_Oct_12_1502,Flanker,2021.2.0,239.74836015879393,
neutral left,0,a,neutral.png,neutral.png,neutral.png,left_arrow.png,neutral.png,neutral.png,neutral.png,,,,,,,,,,,,,7,2,44,4,,,,,357.424111100001,None,,,,,,,,,,,,,,,,,,,,,,,,,,,,,,358.433051400003,None,358.433051400003,None,358.433051400003,None,358.433051400003,None,358.433051400003,None,358.433051400003,None,358.433051400003,None,a,1,0.41780049999943003,358.433051400003,None,,,,,,,,,,,,,13,001,2022_Oct_12_1502,Flanker,2021.2.0,239.74836015879393,
neutral left,0,a,neutral.png,neutral.png,neutral.png,left_arrow.png,neutral.png,neutral.png,neutral.png,,,,,,,,,,,,,7,3,45,4,,,,,358.8635792999994,None,,,,,,,,,,,,,,,,,,,,,,,,,,,,,,359.87280589999864,None,359.87280589999864,None,359.87280589999864,None,359.87280589999864,None,359.87280589999864,None,359.87280589999864,None,359.87280589999864,None,a,1,0.48252489999867976,359.87280589999864,None,,,,,,,,,,,,,13,001,2022_Oct_12_1502,Flanker,2021.2.0,239.74836015879393,
neutral right,0,k,neutral.png,neutral.png,neutral.png,right_arrow.png,neutral.png,neutral.png,neutral.png,,,,,,,,,,,,,7,4,46,5,,,,,360.3734112000093,None,,,,,,,,,,,,,,,,,,,,,,,,,,,,,,361.38664750001044,None,361.38664750001044,None,361.38664750001044,None,361.38664750001044,None,361.38664750001044,None,361.38664750001044,None,361.38664750001044,None,k,1,0.5047118999937084,361.38664750001044,None,,,,,,,,,,,,,13,001,2022_Oct_12_1502,Flanker,2021.2.0,239.74836015879393,
congruent-left.jpg,1,a,left_arrow.png,left_arrow.png,left_arrow.png,left_arrow.png,left_arrow.png,left_arrow.png,left_arrow.png,,,,,,,,,,,,,7,5,47,0,,,,,361.9043054000067,None,,,,,,,,,,,,,,,,,,,,,,,,,,,,,,362.91740839999693,None,362.91740839999693,None,362.91740839999693,None,362.91740839999693,None,362.91740839999693,None,362.91740839999693,None,362.91740839999693,None,a,1,0.7261380999989342,362.91740839999693,None,,,,,,,,,,,,,13,001,2022_Oct_12_1502,Flanker,2021.2.0,239.74836015879393,
,,,,,,,,,,,,,,,,,,,,,,,,,,,,,,,,,,,,,,,,,,,,,,,,,,,,,,,,,,,,,,,,,,,,,,,,,,,,,,,,363.67269079999824,None,space,5.875646800006507,363.67269079999824,None,,,,,,,13,001,2022_Oct_12_1502,Flanker,2021.2.0,239.74836015879393,
,,,,,,,,,,,,,,,,,,,,,,,,,,,,,,,,,,,,,,,,,,,,,,,,,,,,,,,,,,,,,,,,,,,,,,,,,,,,,,,,,,,,,,369.5619694000052,None,space,2.2429182000050787,369.5619694000052,None,13,001,2022_Oct_12_1502,Flanker,2021.2.0,239.74836015879393,
