images,congruentcy,corrAns,arrow_1,arrow_2,arrow_3,target,arrow_5,arrow_6,arrow_7,practice.thisRepN,practice.thisTrialN,practice.thisN,practice.thisIndex,trials.thisRepN,trials.thisTrialN,trials.thisN,trials.thisIndex,trials_2.thisRepN,trials_2.thisTrialN,trials_2.thisN,trials_2.thisIndex,trials_3.thisRepN,trials_3.thisTrialN,trials_3.thisN,trials_3.thisIndex,instr_text.started,instr_text.stopped,instr_resp.keys,instr_resp.rt,polygon.started,polygon.stopped,arrow1_.started,arrow1_.stopped,arrow2_.started,arrow2_.stopped,arrow3_.started,arrow3_.stopped,target_p.started,target_p.stopped,arrow5_.started,arrow5_.stopped,arrow6_.started,arrow6_.stopped,arrow7_.started,arrow7_.stopped,key_resp_P.keys,key_resp_P.corr,key_resp_P.rt,key_resp_P.started,key_resp_P.stopped,text_2.started,text_2.stopped,text_3.started,text_3.stopped,text_4.started,text_4.stopped,key_resp_2.keys,key_resp_2.rt,key_resp_2.started,key_resp_2.stopped,arrow1.started,arrow1.stopped,arrow2.started,arrow2.stopped,arrow3.started,arrow3.stopped,target_t.started,target_t.stopped,arrow5.started,arrow5.stopped,arrow6.started,arrow6.stopped,arrow7.started,arrow7.stopped,key_resp.keys,key_resp.corr,key_resp.rt,key_resp.started,key_resp.stopped,text_5.started,text_5.stopped,key_resp_3.keys,key_resp_3.rt,key_resp_3.started,key_resp_3.stopped,text_6.started,text_6.stopped,key_resp_4.keys,key_resp_4.rt,key_resp_4.started,key_resp_4.stopped,participant,session,date,expName,psychopyVersion,frameRate,
,,,,,,,,,,,,,,,,,,,,,,,,,,16.31380599999102,None,space,21.98532099998556,,,,,,,,,,,,,,,,,,,,,,,,,,,,,,,,,,,,,,,,,,,,,,,,,,,,,,,,,,,,,,,14,001,2022_Oct_13_1200,Flanker,2021.2.0,239.94222191993802,
neutral right,0,k,neutral.png,neutral.png,neutral.png,right_arrow.png,neutral.png,neutral.png,neutral.png,0,0,0,5,,,,,,,,,,,,,,,,,38.3266354999796,None,39.33599909997429,None,39.33599909997429,None,39.33599909997429,None,39.33599909997429,None,39.33599909997429,None,39.33599909997429,None,39.33599909997429,None,k,1,0.6432929000002332,39.33599909997429,None,40.00333129998762,None,,,,,,,,,,,,,,,,,,,,,,,,,,,,,,,,,,,,,,,,14,001,2022_Oct_13_1200,Flanker,2021.2.0,239.94222191993802,
incongruent-left.jpg,0,a,right_arrow.png,right_arrow.png,right_arrow.png,left_arrow.png,right_arrow.png,right_arrow.png,right_arrow.png,0,1,1,1,,,,,,,,,,,,,,,,,41.50061709998408,None,42.51019259999157,None,42.51019259999157,None,42.51019259999157,None,42.51019259999157,None,42.51019259999157,None,42.51019259999157,None,42.51019259999157,None,a,1,5.638174699997762,42.51019259999157,None,48.16594819998136,None,,,,,,,,,,,,,,,,,,,,,,,,,,,,,,,,,,,,,,,,14,001,2022_Oct_13_1200,Flanker,2021.2.0,239.94222191993802,
incongruent-left.jpg,0,a,right_arrow.png,right_arrow.png,right_arrow.png,left_arrow.png,right_arrow.png,right_arrow.png,right_arrow.png,0,2,2,1,,,,,,,,,,,,,,,,,49.66775849999976,None,50.67734599998221,None,50.67734599998221,None,50.67734599998221,None,50.67734599998221,None,50.67734599998221,None,50.67734599998221,None,50.67734599998221,None,a,1,0.9435809999995399,50.67734599998221,None,51.63648979997379,None,,,,,,,,,,,,,,,,,,,,,,,,,,,,,,,,,,,,,,,,14,001,2022_Oct_13_1200,Flanker,2021.2.0,239.94222191993802,
incongruent-left.jpg,0,a,right_arrow.png,right_arrow.png,right_arrow.png,left_arrow.png,right_arrow.png,right_arrow.png,right_arrow.png,0,3,3,1,,,,,,,,,,,,,,,,,53.14226339999004,None,54.1475021999795,None,54.1475021999795,None,54.1475021999795,None,54.1475021999795,None,54.1475021999795,None,54.1475021999795,None,54.1475021999795,None,a,1,0.7137696999998298,54.1475021999795,None,54.873335099982796,None,,,,,,,,,,,,,,,,,,,,,,,,,,,,,,,,,,,,,,,,14,001,2022_Oct_13_1200,Flanker,2021.2.0,239.94222191993802,
neutral right,0,k,neutral.png,neutral.png,neutral.png,right_arrow.png,neutral.png,neutral.png,neutral.png,0,4,4,5,,,,,,,,,,,,,,,,,56.37487939998391,None,57.388550099974964,None,57.388550099974964,None,57.388550099974964,None,57.388550099974964,None,57.388550099974964,None,57.388550099974964,None,57.388550099974964,None,k,1,0.5691824999812525,57.388550099974964,None,57.97216320000007,None,,,,,,,,,,,,,,,,,,,,,,,,,,,,,,,,,,,,,,,,14,001,2022_Oct_13_1200,Flanker,2021.2.0,239.94222191993802,
neutral left,0,a,neutral.png,neutral.png,neutral.png,left_arrow.png,neutral.png,neutral.png,neutral.png,0,5,5,4,,,,,,,,,,,,,,,,,59.47796209997614,None,60.48317909997422,None,60.48317909997422,None,60.48317909997422,None,60.48317909997422,None,60.48317909997422,None,60.48317909997422,None,60.48317909997422,None,a,1,0.49114580001332797,60.48317909997422,None,60.99223159998655,None,,,,,,,,,,,,,,,,,,,,,,,,,,,,,,,,,,,,,,,,14,001,2022_Oct_13_1200,Flanker,2021.2.0,239.94222191993802,
congruent-right.jpg,1,k,right_arrow.png,right_arrow.png,right_arrow.png,right_arrow.png,right_arrow.png,right_arrow.png,right_arrow.png,1,0,6,2,,,,,,,,,,,,,,,,,62.49383880000096,None,63.50744129999657,None,63.50744129999657,None,63.50744129999657,None,63.50744129999657,None,63.50744129999657,None,63.50744129999657,None,63.50744129999657,None,k,1,0.6512608999910299,63.50744129999657,None,64.17476239998359,None,,,,,,,,,,,,,,,,,,,,,,,,,,,,,,,,,,,,,,,,14,001,2022_Oct_13_1200,Flanker,2021.2.0,239.94222191993802,
neutral left,0,a,neutral.png,neutral.png,neutral.png,left_arrow.png,neutral.png,neutral.png,neutral.png,1,1,7,4,,,,,,,,,,,,,,,,,65.67639499998768,None,66.68559899998945,None,66.68559899998945,None,66.68559899998945,None,66.68559899998945,None,66.68559899998945,None,66.68559899998945,None,66.68559899998945,None,a,1,0.48136259999591857,66.68559899998945,None,67.17795899999328,None,,,,,,,,,,,,,,,,,,,,,,,,,,,,,,,,,,,,,,,,14,001,2022_Oct_13_1200,Flanker,2021.2.0,239.94222191993802,
neutral right,0,k,neutral.png,neutral.png,neutral.png,right_arrow.png,neutral.png,neutral.png,neutral.png,1,2,8,5,,,,,,,,,,,,,,,,,68.67956419999246,None,69.69307209999533,None,69.69307209999533,None,69.69307209999533,None,69.69307209999533,None,69.69307209999533,None,69.69307209999533,None,69.69307209999533,None,k,1,0.49054959998466074,69.69307209999533,None,70.2017821999907,None,,,,,,,,,,,,,,,,,,,,,,,,,,,,,,,,,,,,,,,,14,001,2022_Oct_13_1200,Flanker,2021.2.0,239.94222191993802,
congruent-right.jpg,1,k,right_arrow.png,right_arrow.png,right_arrow.png,right_arrow.png,right_arrow.png,right_arrow.png,right_arrow.png,1,3,9,2,,,,,,,,,,,,,,,,,71.7033730999974,None,72.71692459998303,None,72.71692459998303,None,72.71692459998303,None,72.71692459998303,None,72.71692459998303,None,72.71692459998303,None,72.71692459998303,None,k,1,0.6671595000079833,72.71692459998303,None,73.40122699999483,None,,,,,,,,,,,,,,,,,,,,,,,,,,,,,,,,,,,,,,,,14,001,2022_Oct_13_1200,Flanker,2021.2.0,239.94222191993802,
neutral left,0,a,neutral.png,neutral.png,neutral.png,left_arrow.png,neutral.png,neutral.png,neutral.png,1,4,10,4,,,,,,,,,,,,,,,,,74.90691999997944,None,75.91650419999496,None,75.91650419999496,None,75.91650419999496,None,75.91650419999496,None,75.91650419999496,None,75.91650419999496,None,75.91650419999496,None,a,1,0.6204132999991998,75.91650419999496,None,76.55040439998265,None,,,,,,,,,,,,,,,,,,,,,,,,,,,,,,,,,,,,,,,,14,001,2022_Oct_13_1200,Flanker,2021.2.0,239.94222191993802,
congruent-left.jpg,1,a,left_arrow.png,left_arrow.png,left_arrow.png,left_arrow.png,left_arrow.png,left_arrow.png,left_arrow.png,1,5,11,0,,,,,,,,,,,,,,,,,78.0519780999748,None,79.06140379997669,None,79.06140379997669,None,79.06140379997669,None,79.06140379997669,None,79.06140379997669,None,79.06140379997669,None,79.06140379997669,None,a,1,0.835658100026194,79.06140379997669,None,79.91231839999091,None,,,,,,,,,,,,,,,,,,,,,,,,,,,,,,,,,,,,,,,,14,001,2022_Oct_13_1200,Flanker,2021.2.0,239.94222191993802,
incongruent-right.jpg,0,k,left_arrow.png,left_arrow.png,left_arrow.png,right_arrow.png,left_arrow.png,left_arrow.png,left_arrow.png,2,0,12,3,,,,,,,,,,,,,,,,,81.41393749997951,None,82.42759579999256,None,82.42759579999256,None,82.42759579999256,None,82.42759579999256,None,82.42759579999256,None,82.42759579999256,None,82.42759579999256,None,k,1,0.597498999995878,82.42759579999256,None,83.03653729998041,None,,,,,,,,,,,,,,,,,,,,,,,,,,,,,,,,,,,,,,,,14,001,2022_Oct_13_1200,Flanker,2021.2.0,239.94222191993802,
incongruent-right.jpg,0,k,left_arrow.png,left_arrow.png,left_arrow.png,right_arrow.png,left_arrow.png,left_arrow.png,left_arrow.png,2,1,13,3,,,,,,,,,,,,,,,,,84.5378200999985,None,85.54745600000024,None,85.54745600000024,None,85.54745600000024,None,85.54745600000024,None,85.54745600000024,None,85.54745600000024,None,85.54745600000024,None,k,1,0.662082199996803,85.54745600000024,None,86.22294179999153,None,,,,,,,,,,,,,,,,,,,,,,,,,,,,,,,,,,,,,,,,14,001,2022_Oct_13_1200,Flanker,2021.2.0,239.94222191993802,
incongruent-right.jpg,0,k,left_arrow.png,left_arrow.png,left_arrow.png,right_arrow.png,left_arrow.png,left_arrow.png,left_arrow.png,2,2,14,3,,,,,,,,,,,,,,,,,87.72453300000052,None,88.73813269997481,None,88.73813269997481,None,88.73813269997481,None,88.73813269997481,None,88.73813269997481,None,88.73813269997481,None,88.73813269997481,None,k,1,0.7118595999781974,88.73813269997481,None,89.46386959997471,None,,,,,,,,,,,,,,,,,,,,,,,,,,,,,,,,,,,,,,,,14,001,2022_Oct_13_1200,Flanker,2021.2.0,239.94222191993802,
congruent-right.jpg,1,k,right_arrow.png,right_arrow.png,right_arrow.png,right_arrow.png,right_arrow.png,right_arrow.png,right_arrow.png,2,3,15,2,,,,,,,,,,,,,,,,,90.96565969998483,None,91.97941669999273,None,91.97941669999273,None,91.97941669999273,None,91.97941669999273,None,91.97941669999273,None,91.97941669999273,None,91.97941669999273,None,k,1,0.7590024000091944,91.97941669999273,None,92.75493159997859,None,,,,,,,,,,,,,,,,,,,,,,,,,,,,,,,,,,,,,,,,14,001,2022_Oct_13_1200,Flanker,2021.2.0,239.94222191993802,
incongruent-left.jpg,0,a,right_arrow.png,right_arrow.png,right_arrow.png,left_arrow.png,right_arrow.png,right_arrow.png,right_arrow.png,2,4,16,1,,,,,,,,,,,,,,,,,94.2567819999822,None,95.26585559998057,None,95.26585559998057,None,95.26585559998057,None,95.26585559998057,None,95.26585559998057,None,95.26585559998057,None,95.26585559998057,None,a,1,0.6252133000234608,95.26585559998057,None,95.90819969997392,None,,,,,,,,,,,,,,,,,,,,,,,,,,,,,,,,,,,,,,,,14,001,2022_Oct_13_1200,Flanker,2021.2.0,239.94222191993802,
congruent-left.jpg,1,a,left_arrow.png,left_arrow.png,left_arrow.png,left_arrow.png,left_arrow.png,left_arrow.png,left_arrow.png,2,5,17,0,,,,,,,,,,,,,,,,,97.40979629999492,None,98.42337259999476,None,98.42337259999476,None,98.42337259999476,None,98.42337259999476,None,98.42337259999476,None,98.42337259999476,None,98.42337259999476,None,a,1,0.5718607000017073,98.42337259999476,None,99.0073133999831,None,,,,,,,,,,,,,,,,,,,,,,,,,,,,,,,,,,,,,,,,14,001,2022_Oct_13_1200,Flanker,2021.2.0,239.94222191993802,
incongruent-right.jpg,0,k,left_arrow.png,left_arrow.png,left_arrow.png,right_arrow.png,left_arrow.png,left_arrow.png,left_arrow.png,3,0,18,3,,,,,,,,,,,,,,,,,100.50933019997319,None,101.51831649997621,None,101.51831649997621,None,101.51831649997621,None,101.51831649997621,None,101.51831649997621,None,101.51831649997621,None,101.51831649997621,None,k,1,0.5013486999960151,101.51831649997621,None,102.03552889998537,None,,,,,,,,,,,,,,,,,,,,,,,,,,,,,,,,,,,,,,,,14,001,2022_Oct_13_1200,Flanker,2021.2.0,239.94222191993802,
neutral right,0,k,neutral.png,neutral.png,neutral.png,right_arrow.png,neutral.png,neutral.png,neutral.png,3,1,19,5,,,,,,,,,,,,,,,,,103.53736899999785,None,104.5465075999964,None,104.5465075999964,None,104.5465075999964,None,104.5465075999964,None,104.5465075999964,None,104.5465075999964,None,104.5465075999964,None,k,1,0.5376412000041455,104.5465075999964,None,105.09710169999744,None,,,,,,,,,,,,,,,,,,,,,,,,,,,,,,,,,,,,,,,,14,001,2022_Oct_13_1200,Flanker,2021.2.0,239.94222191993802,
congruent-left.jpg,1,a,left_arrow.png,left_arrow.png,left_arrow.png,left_arrow.png,left_arrow.png,left_arrow.png,left_arrow.png,3,2,20,0,,,,,,,,,,,,,,,,,106.5987622999819,None,107.61233289999655,None,107.61233289999655,None,107.61233289999655,None,107.61233289999655,None,107.61233289999655,None,107.61233289999655,None,107.61233289999655,None,a,1,0.5921442999970168,107.61233289999655,None,108.22125299999607,None,,,,,,,,,,,,,,,,,,,,,,,,,,,,,,,,,,,,,,,,14,001,2022_Oct_13_1200,Flanker,2021.2.0,239.94222191993802,
congruent-left.jpg,1,a,left_arrow.png,left_arrow.png,left_arrow.png,left_arrow.png,left_arrow.png,left_arrow.png,left_arrow.png,3,3,21,0,,,,,,,,,,,,,,,,,109.72300839997479,None,110.73253579999437,None,110.73253579999437,None,110.73253579999437,None,110.73253579999437,None,110.73253579999437,None,110.73253579999437,None,110.73253579999437,None,a,1,0.6087437999958638,110.73253579999437,None,111.35790419997647,None,,,,,,,,,,,,,,,,,,,,,,,,,,,,,,,,,,,,,,,,14,001,2022_Oct_13_1200,Flanker,2021.2.0,239.94222191993802,
congruent-right.jpg,1,k,right_arrow.png,right_arrow.png,right_arrow.png,right_arrow.png,right_arrow.png,right_arrow.png,right_arrow.png,3,4,22,2,,,,,,,,,,,,,,,,,112.85969769998337,None,113.86904709998635,None,113.86904709998635,None,113.86904709998635,None,113.86904709998635,None,113.86904709998635,None,113.86904709998635,None,113.86904709998635,None,k,1,0.5525228999904357,113.86904709998635,None,114.43646979998448,None,,,,,,,,,,,,,,,,,,,,,,,,,,,,,,,,,,,,,,,,14,001,2022_Oct_13_1200,Flanker,2021.2.0,239.94222191993802,
neutral left,0,a,neutral.png,neutral.png,neutral.png,left_arrow.png,neutral.png,neutral.png,neutral.png,3,5,23,4,,,,,,,,,,,,,,,,,115.9421738999954,None,116.94713449999108,None,116.94713449999108,None,116.94713449999108,None,116.94713449999108,None,116.94713449999108,None,116.94713449999108,None,116.94713449999108,None,a,1,0.5949760999938007,116.94713449999108,None,117.56052319999435,None,,,,,,,,,,,,,,,,,,,,,,,,,,,,,,,,,,,,,,,,14,001,2022_Oct_13_1200,Flanker,2021.2.0,239.94222191993802,
,,,,,,,,,,,,,,,,,,,,,,,,,,,,,,,,,,,,,,,,,,,,,,,,,,,,,119.07878839998739,None,121.0639705999929,None,space,0.7983824999828357,121.0639705999929,None,,,,,,,,,,,,,,,,,,,,,,,,,,,,,,,,14,001,2022_Oct_13_1200,Flanker,2021.2.0,239.94222191993802,
neutral left,0,a,neutral.png,neutral.png,neutral.png,left_arrow.png,neutral.png,neutral.png,neutral.png,,,,,0,0,0,4,,,,,,,,,,,,,121.88570829998935,None,,,,,,,,,,,,,,,,,,,,,,,,,,,,,,122.89126269999542,None,122.89126269999542,None,122.89126269999542,None,122.89126269999542,None,122.89126269999542,None,122.89126269999542,None,122.89126269999542,None,a,1,0.5552339999994729,122.89126269999542,None,,,,,,,,,,,,,14,001,2022_Oct_13_1200,Flanker,2021.2.0,239.94222191993802,
incongruent-right.jpg,0,k,left_arrow.png,left_arrow.png,left_arrow.png,right_arrow.png,left_arrow.png,left_arrow.png,left_arrow.png,,,,,0,1,1,3,,,,,,,,,,,,,123.45834209999884,None,,,,,,,,,,,,,,,,,,,,,,,,,,,,,,124.47593239997514,None,124.47593239997514,None,124.47593239997514,None,124.47593239997514,None,124.47593239997514,None,124.47593239997514,None,124.47593239997514,None,k,1,0.53877729998203,124.47593239997514,None,,,,,,,,,,,,,14,001,2022_Oct_13_1200,Flanker,2021.2.0,239.94222191993802,
congruent-left.jpg,1,a,left_arrow.png,left_arrow.png,left_arrow.png,left_arrow.png,left_arrow.png,left_arrow.png,left_arrow.png,,,,,0,2,2,0,,,,,,,,,,,,,125.02677579998272,None,,,,,,,,,,,,,,,,,,,,,,,,,,,,,,126.04035009999643,None,126.04035009999643,None,126.04035009999643,None,126.04035009999643,None,126.04035009999643,None,126.04035009999643,None,126.04035009999643,None,a,1,0.5266056999971624,126.04035009999643,None,,,,,,,,,,,,,14,001,2022_Oct_13_1200,Flanker,2021.2.0,239.94222191993802,
neutral left,0,a,neutral.png,neutral.png,neutral.png,left_arrow.png,neutral.png,neutral.png,neutral.png,,,,,0,3,3,4,,,,,,,,,,,,,126.58242479999899,None,,,,,,,,,,,,,,,,,,,,,,,,,,,,,,127.6004584999755,None,127.6004584999755,None,127.6004584999755,None,127.6004584999755,None,127.6004584999755,None,127.6004584999755,None,127.6004584999755,None,a,1,0.5426991999847814,127.6004584999755,None,,,,,,,,,,,,,14,001,2022_Oct_13_1200,Flanker,2021.2.0,239.94222191993802,
incongruent-left.jpg,0,a,right_arrow.png,right_arrow.png,right_arrow.png,left_arrow.png,right_arrow.png,right_arrow.png,right_arrow.png,,,,,0,4,4,1,,,,,,,,,,,,,128.1590066999779,None,,,,,,,,,,,,,,,,,,,,,,,,,,,,,,129.17259209998883,None,129.17259209998883,None,129.17259209998883,None,129.17259209998883,None,129.17259209998883,None,129.17259209998883,None,129.17259209998883,None,a,1,0.5387445999949705,129.17259209998883,None,,,,,,,,,,,,,14,001,2022_Oct_13_1200,Flanker,2021.2.0,239.94222191993802,
neutral left,0,a,neutral.png,neutral.png,neutral.png,left_arrow.png,neutral.png,neutral.png,neutral.png,,,,,0,5,5,4,,,,,,,,,,,,,129.72325329997693,None,,,,,,,,,,,,,,,,,,,,,,,,,,,,,,130.74118639997323,None,130.74118639997323,None,130.74118639997323,None,130.74118639997323,None,130.74118639997323,None,130.74118639997323,None,130.74118639997323,None,a,1,0.5223804999841377,130.74118639997323,None,,,,,,,,,,,,,14,001,2022_Oct_13_1200,Flanker,2021.2.0,239.94222191993802,
incongruent-left.jpg,0,a,right_arrow.png,right_arrow.png,right_arrow.png,left_arrow.png,right_arrow.png,right_arrow.png,right_arrow.png,,,,,1,0,6,1,,,,,,,,,,,,,131.2748260999797,None,,,,,,,,,,,,,,,,,,,,,,,,,,,,,,132.2886233999743,None,132.2886233999743,None,132.2886233999743,None,132.2886233999743,None,132.2886233999743,None,132.2886233999743,None,132.2886233999743,None,a,1,0.4711764000239782,132.2886233999743,None,,,,,,,,,,,,,14,001,2022_Oct_13_1200,Flanker,2021.2.0,239.94222191993802,
incongruent-left.jpg,0,a,right_arrow.png,right_arrow.png,right_arrow.png,left_arrow.png,right_arrow.png,right_arrow.png,right_arrow.png,,,,,1,1,7,1,,,,,,,,,,,,,132.77252129997942,None,,,,,,,,,,,,,,,,,,,,,,,,,,,,,,133.78602979998686,None,133.78602979998686,None,133.78602979998686,None,133.78602979998686,None,133.78602979998686,None,133.78602979998686,None,133.78602979998686,None,a,1,0.6621423999895342,133.78602979998686,None,,,,,,,,,,,,,14,001,2022_Oct_13_1200,Flanker,2021.2.0,239.94222191993802,
congruent-right.jpg,1,k,right_arrow.png,right_arrow.png,right_arrow.png,right_arrow.png,right_arrow.png,right_arrow.png,right_arrow.png,,,,,1,2,8,2,,,,,,,,,,,,,134.46178109999164,None,,,,,,,,,,,,,,,,,,,,,,,,,,,,,,135.47528899999452,None,135.47528899999452,None,135.47528899999452,None,135.47528899999452,None,135.47528899999452,None,135.47528899999452,None,135.47528899999452,None,k,1,0.5330852000042796,135.47528899999452,None,,,,,,,,,,,,,14,001,2022_Oct_13_1200,Flanker,2021.2.0,239.94222191993802,
neutral right,0,k,neutral.png,neutral.png,neutral.png,right_arrow.png,neutral.png,neutral.png,neutral.png,,,,,1,3,9,5,,,,,,,,,,,,,136.02591159997974,None,,,,,,,,,,,,,,,,,,,,,,,,,,,,,,137.03959459997714,None,137.03959459997714,None,137.03959459997714,None,137.03959459997714,None,137.03959459997714,None,137.03959459997714,None,137.03959459997714,None,k,1,0.5451607999857515,137.03959459997714,None,,,,,,,,,,,,,14,001,2022_Oct_13_1200,Flanker,2021.2.0,239.94222191993802,
congruent-left.jpg,1,a,left_arrow.png,left_arrow.png,left_arrow.png,left_arrow.png,left_arrow.png,left_arrow.png,left_arrow.png,,,,,1,4,10,0,,,,,,,,,,,,,137.59840519999852,None,,,,,,,,,,,,,,,,,,,,,,,,,,,,,,138.6119953999878,None,138.6119953999878,None,138.6119953999878,None,138.6119953999878,None,138.6119953999878,None,138.6119953999878,None,138.6119953999878,None,a,1,0.5566765000112355,138.6119953999878,None,,,,,,,,,,,,,14,001,2022_Oct_13_1200,Flanker,2021.2.0,239.94222191993802,
neutral left,0,a,neutral.png,neutral.png,neutral.png,left_arrow.png,neutral.png,neutral.png,neutral.png,,,,,1,5,11,4,,,,,,,,,,,,,139.18760149998707,None,,,,,,,,,,,,,,,,,,,,,,,,,,,,,,140.20094749997952,None,140.20094749997952,None,140.20094749997952,None,140.20094749997952,None,140.20094749997952,None,140.20094749997952,None,140.20094749997952,None,a,1,0.6319281000178307,140.20094749997952,None,,,,,,,,,,,,,14,001,2022_Oct_13_1200,Flanker,2021.2.0,239.94222191993802,
congruent-left.jpg,1,a,left_arrow.png,left_arrow.png,left_arrow.png,left_arrow.png,left_arrow.png,left_arrow.png,left_arrow.png,,,,,2,0,12,0,,,,,,,,,,,,,140.85186169997905,None,,,,,,,,,,,,,,,,,,,,,,,,,,,,,,141.869595999975,None,141.869595999975,None,141.869595999975,None,141.869595999975,None,141.869595999975,None,141.869595999975,None,141.869595999975,None,a,1,0.5154975000186823,141.869595999975,None,,,,,,,,,,,,,14,001,2022_Oct_13_1200,Flanker,2021.2.0,239.94222191993802,
congruent-right.jpg,1,k,right_arrow.png,right_arrow.png,right_arrow.png,right_arrow.png,right_arrow.png,right_arrow.png,right_arrow.png,,,,,2,1,13,2,,,,,,,,,,,,,142.4035007999919,None,,,,,,,,,,,,,,,,,,,,,,,,,,,,,,143.41296229997533,None,143.41296229997533,None,143.41296229997533,None,143.41296229997533,None,143.41296229997533,None,143.41296229997533,None,143.41296229997533,None,k,1,0.7245000999828335,143.41296229997533,None,,,,,,,,,,,,,14,001,2022_Oct_13_1200,Flanker,2021.2.0,239.94222191993802,
incongruent-right.jpg,0,k,left_arrow.png,left_arrow.png,left_arrow.png,right_arrow.png,left_arrow.png,left_arrow.png,left_arrow.png,,,,,2,2,14,3,,,,,,,,,,,,,144.15511039999546,None,,,,,,,,,,,,,,,,,,,,,,,,,,,,,,145.16896469998755,None,145.16896469998755,None,145.16896469998755,None,145.16896469998755,None,145.16896469998755,None,145.16896469998755,None,145.16896469998755,None,k,1,0.7926407000049949,145.16896469998755,None,,,,,,,,,,,,,14,001,2022_Oct_13_1200,Flanker,2021.2.0,239.94222191993802,
congruent-right.jpg,1,k,right_arrow.png,right_arrow.png,right_arrow.png,right_arrow.png,right_arrow.png,right_arrow.png,right_arrow.png,,,,,2,3,15,2,,,,,,,,,,,,,145.97791089999373,None,,,,,,,,,,,,,,,,,,,,,,,,,,,,,,146.9874923999887,None,146.9874923999887,None,146.9874923999887,None,146.9874923999887,None,146.9874923999887,None,146.9874923999887,None,146.9874923999887,None,k,1,0.5983295000041835,146.9874923999887,None,,,,,,,,,,,,,14,001,2022_Oct_13_1200,Flanker,2021.2.0,239.94222191993802,
neutral left,0,a,neutral.png,neutral.png,neutral.png,left_arrow.png,neutral.png,neutral.png,neutral.png,,,,,2,4,16,4,,,,,,,,,,,,,147.6046296999848,None,,,,,,,,,,,,,,,,,,,,,,,,,,,,,,148.6140452999971,None,148.6140452999971,None,148.6140452999971,None,148.6140452999971,None,148.6140452999971,None,148.6140452999971,None,148.6140452999971,None,a,1,0.611998099979246,148.6140452999971,None,,,,,,,,,,,,,14,001,2022_Oct_13_1200,Flanker,2021.2.0,239.94222191993802,
congruent-left.jpg,1,a,left_arrow.png,left_arrow.png,left_arrow.png,left_arrow.png,left_arrow.png,left_arrow.png,left_arrow.png,,,,,2,5,17,0,,,,,,,,,,,,,149.2397127999866,None,,,,,,,,,,,,,,,,,,,,,,,,,,,,,,150.2491205999977,None,150.2491205999977,None,150.2491205999977,None,150.2491205999977,None,150.2491205999977,None,150.2491205999977,None,150.2491205999977,None,a,1,0.4970438999880571,150.2491205999977,None,,,,,,,,,,,,,14,001,2022_Oct_13_1200,Flanker,2021.2.0,239.94222191993802,
incongruent-left.jpg,0,a,right_arrow.png,right_arrow.png,right_arrow.png,left_arrow.png,right_arrow.png,right_arrow.png,right_arrow.png,,,,,3,0,18,1,,,,,,,,,,,,,150.75821759999963,None,,,,,,,,,,,,,,,,,,,,,,,,,,,,,,151.7673747999943,None,151.7673747999943,None,151.7673747999943,None,151.7673747999943,None,151.7673747999943,None,151.7673747999943,None,151.7673747999943,None,a,1,0.627077899989672,151.7673747999943,None,,,,,,,,,,,,,14,001,2022_Oct_13_1200,Flanker,2021.2.0,239.94222191993802,
congruent-right.jpg,1,k,right_arrow.png,right_arrow.png,right_arrow.png,right_arrow.png,right_arrow.png,right_arrow.png,right_arrow.png,,,,,3,1,19,2,,,,,,,,,,,,,152.40971269999864,None,,,,,,,,,,,,,,,,,,,,,,,,,,,,,,153.42772099998547,None,153.42772099998547,None,153.42772099998547,None,153.42772099998547,None,153.42772099998547,None,153.42772099998547,None,153.42772099998547,None,k,1,0.7509989000100177,153.42772099998547,None,,,,,,,,,,,,,14,001,2022_Oct_13_1200,Flanker,2021.2.0,239.94222191993802,
neutral right,0,k,neutral.png,neutral.png,neutral.png,right_arrow.png,neutral.png,neutral.png,neutral.png,,,,,3,2,20,5,,,,,,,,,,,,,154.19494439999107,None,,,,,,,,,,,,,,,,,,,,,,,,,,,,,,155.20434599998407,None,155.20434599998407,None,155.20434599998407,None,155.20434599998407,None,155.20434599998407,None,155.20434599998407,None,155.20434599998407,None,k,1,1.0305702000041492,155.20434599998407,None,,,,,,,,,,,,,14,001,2022_Oct_13_1200,Flanker,2021.2.0,239.94222191993802,
incongruent-left.jpg,0,a,right_arrow.png,right_arrow.png,right_arrow.png,left_arrow.png,right_arrow.png,right_arrow.png,right_arrow.png,,,,,3,3,21,1,,,,,,,,,,,,,156.24747449997813,None,,,,,,,,,,,,,,,,,,,,,,,,,,,,,,157.26068879998638,None,157.26068879998638,None,157.26068879998638,None,157.26068879998638,None,157.26068879998638,None,157.26068879998638,None,157.26068879998638,None,a,1,0.6705149000044912,157.26068879998638,None,,,,,,,,,,,,,14,001,2022_Oct_13_1200,Flanker,2021.2.0,239.94222191993802,
incongruent-left.jpg,0,a,right_arrow.png,right_arrow.png,right_arrow.png,left_arrow.png,right_arrow.png,right_arrow.png,right_arrow.png,,,,,3,4,22,1,,,,,,,,,,,,,157.94473459999426,None,,,,,,,,,,,,,,,,,,,,,,,,,,,,,,158.95444409997435,None,158.95444409997435,None,158.95444409997435,None,158.95444409997435,None,158.95444409997435,None,158.95444409997435,None,158.95444409997435,None,a,1,0.6889323999930639,158.95444409997435,None,,,,,,,,,,,,,14,001,2022_Oct_13_1200,Flanker,2021.2.0,239.94222191993802,
congruent-right.jpg,1,k,right_arrow.png,right_arrow.png,right_arrow.png,right_arrow.png,right_arrow.png,right_arrow.png,right_arrow.png,,,,,3,5,23,2,,,,,,,,,,,,,159.65496369998436,None,,,,,,,,,,,,,,,,,,,,,,,,,,,,,,160.66452089999802,None,160.66452089999802,None,160.66452089999802,None,160.66452089999802,None,160.66452089999802,None,160.66452089999802,None,160.66452089999802,None,k,1,0.6193665000027977,160.66452089999802,None,,,,,,,,,,,,,14,001,2022_Oct_13_1200,Flanker,2021.2.0,239.94222191993802,
incongruent-right.jpg,0,k,left_arrow.png,left_arrow.png,left_arrow.png,right_arrow.png,left_arrow.png,left_arrow.png,left_arrow.png,,,,,4,0,24,3,,,,,,,,,,,,,161.29836739998427,None,,,,,,,,,,,,,,,,,,,,,,,,,,,,,,162.3078829999722,None,162.3078829999722,None,162.3078829999722,None,162.3078829999722,None,162.3078829999722,None,162.3078829999722,None,162.3078829999722,None,k,1,0.5439767999923788,162.3078829999722,None,,,,,,,,,,,,,14,001,2022_Oct_13_1200,Flanker,2021.2.0,239.94222191993802,
incongruent-right.jpg,0,k,left_arrow.png,left_arrow.png,left_arrow.png,right_arrow.png,left_arrow.png,left_arrow.png,left_arrow.png,,,,,4,1,25,3,,,,,,,,,,,,,162.86670149999554,None,,,,,,,,,,,,,,,,,,,,,,,,,,,,,,163.8804696999723,None,163.8804696999723,None,163.8804696999723,None,163.8804696999723,None,163.8804696999723,None,163.8804696999723,None,163.8804696999723,None,k,1,0.6278093000000808,163.8804696999723,None,,,,,,,,,,,,,14,001,2022_Oct_13_1200,Flanker,2021.2.0,239.94222191993802,
incongruent-right.jpg,0,k,left_arrow.png,left_arrow.png,left_arrow.png,right_arrow.png,left_arrow.png,left_arrow.png,left_arrow.png,,,,,4,2,26,3,,,,,,,,,,,,,164.522785499983,None,,,,,,,,,,,,,,,,,,,,,,,,,,,,,,165.53634709998732,None,165.53634709998732,None,165.53634709998732,None,165.53634709998732,None,165.53634709998732,None,165.53634709998732,None,165.53634709998732,None,k,1,0.4522292999899946,165.53634709998732,None,,,,,,,,,,,,,14,001,2022_Oct_13_1200,Flanker,2021.2.0,239.94222191993802,
incongruent-right.jpg,0,k,left_arrow.png,left_arrow.png,left_arrow.png,right_arrow.png,left_arrow.png,left_arrow.png,left_arrow.png,,,,,4,3,27,3,,,,,,,,,,,,,166.0035517999786,None,,,,,,,,,,,,,,,,,,,,,,,,,,,,,,167.0170166999742,None,167.0170166999742,None,167.0170166999742,None,167.0170166999742,None,167.0170166999742,None,167.0170166999742,None,167.0170166999742,None,k,1,0.6996104000136256,167.0170166999742,None,,,,,,,,,,,,,14,001,2022_Oct_13_1200,Flanker,2021.2.0,239.94222191993802,
neutral right,0,k,neutral.png,neutral.png,neutral.png,right_arrow.png,neutral.png,neutral.png,neutral.png,,,,,4,4,28,5,,,,,,,,,,,,,167.7344996999891,None,,,,,,,,,,,,,,,,,,,,,,,,,,,,,,168.7480693999969,None,168.7480693999969,None,168.7480693999969,None,168.7480693999969,None,168.7480693999969,None,168.7480693999969,None,168.7480693999969,None,k,1,0.4486159000080079,168.7480693999969,None,,,,,,,,,,,,,14,001,2022_Oct_13_1200,Flanker,2021.2.0,239.94222191993802,
congruent-right.jpg,1,k,right_arrow.png,right_arrow.png,right_arrow.png,right_arrow.png,right_arrow.png,right_arrow.png,right_arrow.png,,,,,4,5,29,2,,,,,,,,,,,,,169.21503199997824,None,,,,,,,,,,,,,,,,,,,,,,,,,,,,,,170.22484989999793,None,170.22484989999793,None,170.22484989999793,None,170.22484989999793,None,170.22484989999793,None,170.22484989999793,None,170.22484989999793,None,k,1,0.4360222000104841,170.22484989999793,None,,,,,,,,,,,,,14,001,2022_Oct_13_1200,Flanker,2021.2.0,239.94222191993802,
neutral left,0,a,neutral.png,neutral.png,neutral.png,left_arrow.png,neutral.png,neutral.png,neutral.png,,,,,5,0,30,4,,,,,,,,,,,,,170.67490809998708,None,,,,,,,,,,,,,,,,,,,,,,,,,,,,,,171.68465879998985,None,171.68465879998985,None,171.68465879998985,None,171.68465879998985,None,171.68465879998985,None,171.68465879998985,None,171.68465879998985,None,a,1,0.5044674999953713,171.68465879998985,None,,,,,,,,,,,,,14,001,2022_Oct_13_1200,Flanker,2021.2.0,239.94222191993802,
incongruent-left.jpg,0,a,right_arrow.png,right_arrow.png,right_arrow.png,left_arrow.png,right_arrow.png,right_arrow.png,right_arrow.png,,,,,5,1,31,1,,,,,,,,,,,,,172.20148849999532,None,,,,,,,,,,,,,,,,,,,,,,,,,,,,,,173.21550859999843,None,173.21550859999843,None,173.21550859999843,None,173.21550859999843,None,173.21550859999843,None,173.21550859999843,None,173.21550859999843,None,a,1,0.5098311000037938,173.21550859999843,None,,,,,,,,,,,,,14,001,2022_Oct_13_1200,Flanker,2021.2.0,239.94222191993802,
neutral right,0,k,neutral.png,neutral.png,neutral.png,right_arrow.png,neutral.png,neutral.png,neutral.png,,,,,5,2,32,5,,,,,,,,,,,,,173.74064539998653,None,,,,,,,,,,,,,,,,,,,,,,,,,,,,,,174.75446209998336,None,174.75446209998336,None,174.75446209998336,None,174.75446209998336,None,174.75446209998336,None,174.75446209998336,None,174.75446209998336,None,k,1,0.403069099993445,174.75446209998336,None,,,,,,,,,,,,,14,001,2022_Oct_13_1200,Flanker,2021.2.0,239.94222191993802,
congruent-right.jpg,1,k,right_arrow.png,right_arrow.png,right_arrow.png,right_arrow.png,right_arrow.png,right_arrow.png,right_arrow.png,,,,,5,3,33,2,,,,,,,,,,,,,175.1714066999848,None,,,,,,,,,,,,,,,,,,,,,,,,,,,,,,176.1852642999729,None,176.1852642999729,None,176.1852642999729,None,176.1852642999729,None,176.1852642999729,None,176.1852642999729,None,176.1852642999729,None,k,1,0.5724242999858689,176.1852642999729,None,,,,,,,,,,,,,14,001,2022_Oct_13_1200,Flanker,2021.2.0,239.94222191993802,
neutral right,0,k,neutral.png,neutral.png,neutral.png,right_arrow.png,neutral.png,neutral.png,neutral.png,,,,,5,4,34,5,,,,,,,,,,,,,176.76886999999988,None,,,,,,,,,,,,,,,,,,,,,,,,,,,,,,177.78269889997318,None,177.78269889997318,None,177.78269889997318,None,177.78269889997318,None,177.78269889997318,None,177.78269889997318,None,177.78269889997318,None,k,1,0.4872583999822382,177.78269889997318,None,,,,,,,,,,,,,14,001,2022_Oct_13_1200,Flanker,2021.2.0,239.94222191993802,
incongruent-right.jpg,0,k,left_arrow.png,left_arrow.png,left_arrow.png,right_arrow.png,left_arrow.png,left_arrow.png,left_arrow.png,,,,,5,5,35,3,,,,,,,,,,,,,178.2829681999865,None,,,,,,,,,,,,,,,,,,,,,,,,,,,,,,179.29237139999168,None,179.29237139999168,None,179.29237139999168,None,179.29237139999168,None,179.29237139999168,None,179.29237139999168,None,179.29237139999168,None,k,1,0.7297713999869302,179.29237139999168,None,,,,,,,,,,,,,14,001,2022_Oct_13_1200,Flanker,2021.2.0,239.94222191993802,
congruent-left.jpg,1,a,left_arrow.png,left_arrow.png,left_arrow.png,left_arrow.png,left_arrow.png,left_arrow.png,left_arrow.png,,,,,6,0,36,0,,,,,,,,,,,,,180.0397780999774,None,,,,,,,,,,,,,,,,,,,,,,,,,,,,,,181.0484042999742,None,181.0484042999742,None,181.0484042999742,None,181.0484042999742,None,181.0484042999742,None,181.0484042999742,None,181.0484042999742,None,a,1,0.5503115000028629,181.0484042999742,None,,,,,,,,,,,,,14,001,2022_Oct_13_1200,Flanker,2021.2.0,239.94222191993802,
neutral left,0,a,neutral.png,neutral.png,neutral.png,left_arrow.png,neutral.png,neutral.png,neutral.png,,,,,6,1,37,4,,,,,,,,,,,,,181.61565599997994,None,,,,,,,,,,,,,,,,,,,,,,,,,,,,,,182.62533289997373,None,182.62533289997373,None,182.62533289997373,None,182.62533289997373,None,182.62533289997373,None,182.62533289997373,None,182.62533289997373,None,a,1,0.5493951000098605,182.62533289997373,None,,,,,,,,,,,,,14,001,2022_Oct_13_1200,Flanker,2021.2.0,239.94222191993802,
congruent-left.jpg,1,a,left_arrow.png,left_arrow.png,left_arrow.png,left_arrow.png,left_arrow.png,left_arrow.png,left_arrow.png,,,,,6,2,38,0,,,,,,,,,,,,,183.19267769998987,None,,,,,,,,,,,,,,,,,,,,,,,,,,,,,,184.20170609999332,None,184.20170609999332,None,184.20170609999332,None,184.20170609999332,None,184.20170609999332,None,184.20170609999332,None,184.20170609999332,None,a,1,0.6210832000069786,184.20170609999332,None,,,,,,,,,,,,,14,001,2022_Oct_13_1200,Flanker,2021.2.0,239.94222191993802,
neutral right,0,k,neutral.png,neutral.png,neutral.png,right_arrow.png,neutral.png,neutral.png,neutral.png,,,,,6,3,39,5,,,,,,,,,,,,,184.83573769999202,None,,,,,,,,,,,,,,,,,,,,,,,,,,,,,,185.84537389999605,None,185.84537389999605,None,185.84537389999605,None,185.84537389999605,None,185.84537389999605,None,185.84537389999605,None,185.84537389999605,None,k,1,0.46558570000343025,185.84537389999605,None,,,,,,,,,,,,,14,001,2022_Oct_13_1200,Flanker,2021.2.0,239.94222191993802,
incongruent-left.jpg,0,a,right_arrow.png,right_arrow.png,right_arrow.png,left_arrow.png,right_arrow.png,right_arrow.png,right_arrow.png,,,,,6,4,40,1,,,,,,,,,,,,,186.3290571999969,None,,,,,,,,,,,,,,,,,,,,,,,,,,,,,,187.3386587999994,None,187.3386587999994,None,187.3386587999994,None,187.3386587999994,None,187.3386587999994,None,187.3386587999994,None,187.3386587999994,None,a,1,0.6045488999807276,187.3386587999994,None,,,,,,,,,,,,,14,001,2022_Oct_13_1200,Flanker,2021.2.0,239.94222191993802,
congruent-right.jpg,1,k,right_arrow.png,right_arrow.png,right_arrow.png,right_arrow.png,right_arrow.png,right_arrow.png,right_arrow.png,,,,,6,5,41,2,,,,,,,,,,,,,187.95569819997763,None,,,,,,,,,,,,,,,,,,,,,,,,,,,,,,188.96537919997354,None,188.96537919997354,None,188.96537919997354,None,188.96537919997354,None,188.96537919997354,None,188.96537919997354,None,188.96537919997354,None,k,1,0.6420256000128575,188.96537919997354,None,,,,,,,,,,,,,14,001,2022_Oct_13_1200,Flanker,2021.2.0,239.94222191993802,
neutral right,0,k,neutral.png,neutral.png,neutral.png,right_arrow.png,neutral.png,neutral.png,neutral.png,,,,,7,0,42,5,,,,,,,,,,,,,189.6242431999999,None,,,,,,,,,,,,,,,,,,,,,,,,,,,,,,190.63354329997674,None,190.63354329997674,None,190.63354329997674,None,190.63354329997674,None,190.63354329997674,None,190.63354329997674,None,190.63354329997674,None,k,1,0.45409439998911694,190.63354329997674,None,,,,,,,,,,,,,14,001,2022_Oct_13_1200,Flanker,2021.2.0,239.94222191993802,
congruent-left.jpg,1,a,left_arrow.png,left_arrow.png,left_arrow.png,left_arrow.png,left_arrow.png,left_arrow.png,left_arrow.png,,,,,7,1,43,0,,,,,,,,,,,,,191.10092219998478,None,,,,,,,,,,,,,,,,,,,,,,,,,,,,,,192.1142775999906,None,192.1142775999906,None,192.1142775999906,None,192.1142775999906,None,192.1142775999906,None,192.1142775999906,None,192.1142775999906,None,a,1,0.5735723999969196,192.1142775999906,None,,,,,,,,,,,,,14,001,2022_Oct_13_1200,Flanker,2021.2.0,239.94222191993802,
congruent-left.jpg,1,a,left_arrow.png,left_arrow.png,left_arrow.png,left_arrow.png,left_arrow.png,left_arrow.png,left_arrow.png,,,,,7,2,44,0,,,,,,,,,,,,,192.70663389997208,None,,,,,,,,,,,,,,,,,,,,,,,,,,,,,,193.72042429997236,None,193.72042429997236,None,193.72042429997236,None,193.72042429997236,None,193.72042429997236,None,193.72042429997236,None,193.72042429997236,None,a,1,0.5836548999941442,193.72042429997236,None,,,,,,,,,,,,,14,001,2022_Oct_13_1200,Flanker,2021.2.0,239.94222191993802,
neutral right,0,k,neutral.png,neutral.png,neutral.png,right_arrow.png,neutral.png,neutral.png,neutral.png,,,,,7,3,45,5,,,,,,,,,,,,,194.32077479999862,None,,,,,,,,,,,,,,,,,,,,,,,,,,,,,,195.3343395999982,None,195.3343395999982,None,195.3343395999982,None,195.3343395999982,None,195.3343395999982,None,195.3343395999982,None,195.3343395999982,None,k,1,0.5460496000014246,195.3343395999982,None,,,,,,,,,,,,,14,001,2022_Oct_13_1200,Flanker,2021.2.0,239.94222191993802,
incongruent-right.jpg,0,k,left_arrow.png,left_arrow.png,left_arrow.png,right_arrow.png,left_arrow.png,left_arrow.png,left_arrow.png,,,,,7,4,46,3,,,,,,,,,,,,,195.89335829997435,None,,,,,,,,,,,,,,,,,,,,,,,,,,,,,,196.90710189999663,None,196.90710189999663,None,196.90710189999663,None,196.90710189999663,None,196.90710189999663,None,196.90710189999663,None,196.90710189999663,None,k,1,0.5093978999939281,196.90710189999663,None,,,,,,,,,,,,,14,001,2022_Oct_13_1200,Flanker,2021.2.0,239.94222191993802,
neutral left,0,a,neutral.png,neutral.png,neutral.png,left_arrow.png,neutral.png,neutral.png,neutral.png,,,,,7,5,47,4,,,,,,,,,,,,,197.43241839998518,None,,,,,,,,,,,,,,,,,,,,,,,,,,,,,,198.44624549997388,None,198.44624549997388,None,198.44624549997388,None,198.44624549997388,None,198.44624549997388,None,198.44624549997388,None,198.44624549997388,None,a,1,0.8666536999808159,198.44624549997388,None,,,,,,,,,,,,,14,001,2022_Oct_13_1200,Flanker,2021.2.0,239.94222191993802,
,,,,,,,,,,,,,,,,,,,,,,,,,,,,,,,,,,,,,,,,,,,,,,,,,,,,,,,,,,,,,,,,,,,,,,,,,,,,,,,,199.34274579997873,None,space,1.6344062999996822,199.34274579997873,None,,,,,,,14,001,2022_Oct_13_1200,Flanker,2021.2.0,239.94222191993802,
congruent-left.jpg,1,a,left_arrow.png,left_arrow.png,left_arrow.png,left_arrow.png,left_arrow.png,left_arrow.png,left_arrow.png,,,,,,,,,0,0,0,0,,,,,,,,,201.0028684999852,None,,,,,,,,,,,,,,,,,,,,,,,,,,,,,,202.00393069998245,None,202.00393069998245,None,202.00393069998245,None,202.00393069998245,None,202.00393069998245,None,202.00393069998245,None,202.00393069998245,None,a,1,0.957294699997874,202.00393069998245,None,,,,,,,,,,,,,14,001,2022_Oct_13_1200,Flanker,2021.2.0,239.94222191993802,
incongruent-left.jpg,0,a,right_arrow.png,right_arrow.png,right_arrow.png,left_arrow.png,right_arrow.png,right_arrow.png,right_arrow.png,,,,,,,,,0,1,1,1,,,,,,,,,202.97996249998687,None,,,,,,,,,,,,,,,,,,,,,,,,,,,,,,203.9934937999933,None,203.9934937999933,None,203.9934937999933,None,203.9934937999933,None,203.9934937999933,None,203.9934937999933,None,203.9934937999933,None,a,1,0.5761271999799646,203.9934937999933,None,,,,,,,,,,,,,14,001,2022_Oct_13_1200,Flanker,2021.2.0,239.94222191993802,
neutral right,0,k,neutral.png,neutral.png,neutral.png,right_arrow.png,neutral.png,neutral.png,neutral.png,,,,,,,,,0,2,2,5,,,,,,,,,204.58611179998843,None,,,,,,,,,,,,,,,,,,,,,,,,,,,,,,205.59548039999208,None,205.59548039999208,None,205.59548039999208,None,205.59548039999208,None,205.59548039999208,None,205.59548039999208,None,205.59548039999208,None,k,1,0.44616859999950975,205.59548039999208,None,,,,,,,,,,,,,14,001,2022_Oct_13_1200,Flanker,2021.2.0,239.94222191993802,
incongruent-left.jpg,0,a,right_arrow.png,right_arrow.png,right_arrow.png,left_arrow.png,right_arrow.png,right_arrow.png,right_arrow.png,,,,,,,,,0,3,3,1,,,,,,,,,206.05400979999104,None,,,,,,,,,,,,,,,,,,,,,,,,,,,,,,207.06783219997305,None,207.06783219997305,None,207.06783219997305,None,207.06783219997305,None,207.06783219997305,None,207.06783219997305,None,207.06783219997305,None,a,1,0.47819029999664053,207.06783219997305,None,,,,,,,,,,,,,14,001,2022_Oct_13_1200,Flanker,2021.2.0,239.94222191993802,
neutral left,0,a,neutral.png,neutral.png,neutral.png,left_arrow.png,neutral.png,neutral.png,neutral.png,,,,,,,,,0,4,4,4,,,,,,,,,207.56019819999347,None,,,,,,,,,,,,,,,,,,,,,,,,,,,,,,208.57352909998735,None,208.57352909998735,None,208.57352909998735,None,208.57352909998735,None,208.57352909998735,None,208.57352909998735,None,208.57352909998735,None,a,1,0.5565125999855809,208.57352909998735,None,,,,,,,,,,,,,14,001,2022_Oct_13_1200,Flanker,2021.2.0,239.94222191993802,
neutral left,0,a,neutral.png,neutral.png,neutral.png,left_arrow.png,neutral.png,neutral.png,neutral.png,,,,,,,,,0,5,5,4,,,,,,,,,209.1492208999989,None,,,,,,,,,,,,,,,,,,,,,,,,,,,,,,210.15435459997389,None,210.15435459997389,None,210.15435459997389,None,210.15435459997389,None,210.15435459997389,None,210.15435459997389,None,210.15435459997389,None,a,1,0.6963358000211883,210.15435459997389,None,,,,,,,,,,,,,14,001,2022_Oct_13_1200,Flanker,2021.2.0,239.94222191993802,
congruent-right.jpg,1,k,right_arrow.png,right_arrow.png,right_arrow.png,right_arrow.png,right_arrow.png,right_arrow.png,right_arrow.png,,,,,,,,,1,0,6,2,,,,,,,,,210.86360859998967,None,,,,,,,,,,,,,,,,,,,,,,,,,,,,,,211.87271909997799,None,211.87271909997799,None,211.87271909997799,None,211.87271909997799,None,211.87271909997799,None,211.87271909997799,None,211.87271909997799,None,k,1,0.5137543000164442,211.87271909997799,None,,,,,,,,,,,,,14,001,2022_Oct_13_1200,Flanker,2021.2.0,239.94222191993802,
congruent-right.jpg,1,k,right_arrow.png,right_arrow.png,right_arrow.png,right_arrow.png,right_arrow.png,right_arrow.png,right_arrow.png,,,,,,,,,1,1,7,2,,,,,,,,,212.3982618000009,None,,,,,,,,,,,,,,,,,,,,,,,,,,,,,,213.40784949998488,None,213.40784949998488,None,213.40784949998488,None,213.40784949998488,None,213.40784949998488,None,213.40784949998488,None,213.40784949998488,None,k,1,0.5068542000080924,213.40784949998488,None,,,,,,,,,,,,,14,001,2022_Oct_13_1200,Flanker,2021.2.0,239.94222191993802,
incongruent-left.jpg,0,a,right_arrow.png,right_arrow.png,right_arrow.png,left_arrow.png,right_arrow.png,right_arrow.png,right_arrow.png,,,,,,,,,1,2,8,1,,,,,,,,,213.93321319998358,None,,,,,,,,,,,,,,,,,,,,,,,,,,,,,,214.95114969997667,None,214.95114969997667,None,214.95114969997667,None,214.95114969997667,None,214.95114969997667,None,214.95114969997667,None,214.95114969997667,None,a,1,0.5637687999987975,214.95114969997667,None,,,,,,,,,,,,,14,001,2022_Oct_13_1200,Flanker,2021.2.0,239.94222191993802,
incongruent-right.jpg,0,k,left_arrow.png,left_arrow.png,left_arrow.png,right_arrow.png,left_arrow.png,left_arrow.png,left_arrow.png,,,,,,,,,1,3,9,3,,,,,,,,,215.526676199981,None,,,,,,,,,,,,,,,,,,,,,,,,,,,,,,216.53180439997232,None,216.53180439997232,None,216.53180439997232,None,216.53180439997232,None,216.53180439997232,None,216.53180439997232,None,216.53180439997232,None,k,1,0.5273416999843903,216.53180439997232,None,,,,,,,,,,,,,14,001,2022_Oct_13_1200,Flanker,2021.2.0,239.94222191993802,
neutral left,0,a,neutral.png,neutral.png,neutral.png,left_arrow.png,neutral.png,neutral.png,neutral.png,,,,,,,,,1,4,10,4,,,,,,,,,217.07411609997507,None,,,,,,,,,,,,,,,,,,,,,,,,,,,,,,218.08371149998857,None,218.08371149998857,None,218.08371149998857,None,218.08371149998857,None,218.08371149998857,None,218.08371149998857,None,218.08371149998857,None,a,1,0.5196278000075836,218.08371149998857,None,,,,,,,,,,,,,14,001,2022_Oct_13_1200,Flanker,2021.2.0,239.94222191993802,
neutral right,0,k,neutral.png,neutral.png,neutral.png,right_arrow.png,neutral.png,neutral.png,neutral.png,,,,,,,,,1,5,11,5,,,,,,,,,218.617313499999,None,,,,,,,,,,,,,,,,,,,,,,,,,,,,,,219.62257659999887,None,219.62257659999887,None,219.62257659999887,None,219.62257659999887,None,219.62257659999887,None,219.62257659999887,None,219.62257659999887,None,k,1,0.4769734999863431,219.62257659999887,None,,,,,,,,,,,,,14,001,2022_Oct_13_1200,Flanker,2021.2.0,239.94222191993802,
incongruent-right.jpg,0,k,left_arrow.png,left_arrow.png,left_arrow.png,right_arrow.png,left_arrow.png,left_arrow.png,left_arrow.png,,,,,,,,,2,0,12,3,,,,,,,,,220.11477209997247,None,,,,,,,,,,,,,,,,,,,,,,,,,,,,,,221.1244458000001,None,221.1244458000001,None,221.1244458000001,None,221.1244458000001,None,221.1244458000001,None,221.1244458000001,None,221.1244458000001,None,k,1,0.5193139999755658,221.1244458000001,None,,,,,,,,,,,,,14,001,2022_Oct_13_1200,Flanker,2021.2.0,239.94222191993802,
incongruent-right.jpg,0,k,left_arrow.png,left_arrow.png,left_arrow.png,right_arrow.png,left_arrow.png,left_arrow.png,left_arrow.png,,,,,,,,,2,1,13,3,,,,,,,,,221.65807729997323,None,,,,,,,,,,,,,,,,,,,,,,,,,,,,,,222.67182589997537,None,222.67182589997537,None,222.67182589997537,None,222.67182589997537,None,222.67182589997537,None,222.67182589997537,None,222.67182589997537,None,k,1,0.644185799988918,222.67182589997537,None,,,,,,,,,,,,,14,001,2022_Oct_13_1200,Flanker,2021.2.0,239.94222191993802,
incongruent-left.jpg,0,a,right_arrow.png,right_arrow.png,right_arrow.png,left_arrow.png,right_arrow.png,right_arrow.png,right_arrow.png,,,,,,,,,2,2,14,1,,,,,,,,,223.33069669999531,None,,,,,,,,,,,,,,,,,,,,,,,,,,,,,,224.34026099997573,None,224.34026099997573,None,224.34026099997573,None,224.34026099997573,None,224.34026099997573,None,224.34026099997573,None,224.34026099997573,None,a,1,0.5839082000020426,224.34026099997573,None,,,,,,,,,,,,,14,001,2022_Oct_13_1200,Flanker,2021.2.0,239.94222191993802,
congruent-right.jpg,1,k,right_arrow.png,right_arrow.png,right_arrow.png,right_arrow.png,right_arrow.png,right_arrow.png,right_arrow.png,,,,,,,,,2,3,15,2,,,,,,,,,224.9410690999939,None,,,,,,,,,,,,,,,,,,,,,,,,,,,,,,225.9503873999929,None,225.9503873999929,None,225.9503873999929,None,225.9503873999929,None,225.9503873999929,None,225.9503873999929,None,225.9503873999929,None,k,1,0.9340851999877486,225.9503873999929,None,,,,,,,,,,,,,14,001,2022_Oct_13_1200,Flanker,2021.2.0,239.94222191993802,
neutral left,0,a,neutral.png,neutral.png,neutral.png,left_arrow.png,neutral.png,neutral.png,neutral.png,,,,,,,,,2,4,16,4,,,,,,,,,226.90119689999847,None,,,,,,,,,,,,,,,,,,,,,,,,,,,,,,227.91470769999432,None,227.91470769999432,None,227.91470769999432,None,227.91470769999432,None,227.91470769999432,None,227.91470769999432,None,227.91470769999432,None,a,1,0.5539605999947526,227.91470769999432,None,,,,,,,,,,,,,14,001,2022_Oct_13_1200,Flanker,2021.2.0,239.94222191993802,
congruent-left.jpg,1,a,left_arrow.png,left_arrow.png,left_arrow.png,left_arrow.png,left_arrow.png,left_arrow.png,left_arrow.png,,,,,,,,,2,5,17,0,,,,,,,,,228.48204139998415,None,,,,,,,,,,,,,,,,,,,,,,,,,,,,,,229.49163699999917,None,229.49163699999917,None,229.49163699999917,None,229.49163699999917,None,229.49163699999917,None,229.49163699999917,None,229.49163699999917,None,a,1,0.5932581999804825,229.49163699999917,None,,,,,,,,,,,,,14,001,2022_Oct_13_1200,Flanker,2021.2.0,239.94222191993802,
neutral left,0,a,neutral.png,neutral.png,neutral.png,left_arrow.png,neutral.png,neutral.png,neutral.png,,,,,,,,,3,0,18,4,,,,,,,,,230.1006382999767,None,,,,,,,,,,,,,,,,,,,,,,,,,,,,,,231.1139800999954,None,231.1139800999954,None,231.1139800999954,None,231.1139800999954,None,231.1139800999954,None,231.1139800999954,None,231.1139800999954,None,a,1,0.6031479999946896,231.1139800999954,None,,,,,,,,,,,,,14,001,2022_Oct_13_1200,Flanker,2021.2.0,239.94222191993802,
congruent-left.jpg,1,a,left_arrow.png,left_arrow.png,left_arrow.png,left_arrow.png,left_arrow.png,left_arrow.png,left_arrow.png,,,,,,,,,3,1,19,0,,,,,,,,,231.7312438999943,None,,,,,,,,,,,,,,,,,,,,,,,,,,,,,,232.74481730000116,None,232.74481730000116,None,232.74481730000116,None,232.74481730000116,None,232.74481730000116,None,232.74481730000116,None,232.74481730000116,None,a,1,0.5645006999839097,232.74481730000116,None,,,,,,,,,,,,,14,001,2022_Oct_13_1200,Flanker,2021.2.0,239.94222191993802,
incongruent-right.jpg,0,k,left_arrow.png,left_arrow.png,left_arrow.png,right_arrow.png,left_arrow.png,left_arrow.png,left_arrow.png,,,,,,,,,3,2,20,3,,,,,,,,,233.32043529997463,None,,,,,,,,,,,,,,,,,,,,,,,,,,,,,,234.3257102999778,None,234.3257102999778,None,234.3257102999778,None,234.3257102999778,None,234.3257102999778,None,234.3257102999778,None,234.3257102999778,None,k,1,0.5758163999998942,234.3257102999778,None,,,,,,,,,,,,,14,001,2022_Oct_13_1200,Flanker,2021.2.0,239.94222191993802,
congruent-left.jpg,1,a,left_arrow.png,left_arrow.png,left_arrow.png,left_arrow.png,left_arrow.png,left_arrow.png,left_arrow.png,,,,,,,,,3,3,21,0,,,,,,,,,234.91794590000063,None,,,,,,,,,,,,,,,,,,,,,,,,,,,,,,235.9277449999936,None,235.9277449999936,None,235.9277449999936,None,235.9277449999936,None,235.9277449999936,None,235.9277449999936,None,235.9277449999936,None,a,1,0.7581846000102814,235.9277449999936,None,,,,,,,,,,,,,14,001,2022_Oct_13_1200,Flanker,2021.2.0,239.94222191993802,
incongruent-left.jpg,0,a,right_arrow.png,right_arrow.png,right_arrow.png,left_arrow.png,right_arrow.png,right_arrow.png,right_arrow.png,,,,,,,,,3,4,22,1,,,,,,,,,236.70317729999078,None,,,,,,,,,,,,,,,,,,,,,,,,,,,,,,237.7125643999898,None,237.7125643999898,None,237.7125643999898,None,237.7125643999898,None,237.7125643999898,None,237.7125643999898,None,237.7125643999898,None,a,1,0.6694533000118099,237.7125643999898,None,,,,,,,,,,,,,14,001,2022_Oct_13_1200,Flanker,2021.2.0,239.94222191993802,
neutral right,0,k,neutral.png,neutral.png,neutral.png,right_arrow.png,neutral.png,neutral.png,neutral.png,,,,,,,,,3,5,23,5,,,,,,,,,238.39664079999784,None,,,,,,,,,,,,,,,,,,,,,,,,,,,,,,239.41022389999125,None,239.41022389999125,None,239.41022389999125,None,239.41022389999125,None,239.41022389999125,None,239.41022389999125,None,239.41022389999125,None,k,1,0.6121372999914456,239.41022389999125,None,,,,,,,,,,,,,14,001,2022_Oct_13_1200,Flanker,2021.2.0,239.94222191993802,
neutral right,0,k,neutral.png,neutral.png,neutral.png,right_arrow.png,neutral.png,neutral.png,neutral.png,,,,,,,,,4,0,24,5,,,,,,,,,240.04050249999273,None,,,,,,,,,,,,,,,,,,,,,,,,,,,,,,241.05773539998336,None,241.05773539998336,None,241.05773539998336,None,241.05773539998336,None,241.05773539998336,None,241.05773539998336,None,241.05773539998336,None,k,1,1.00480970001081,241.05773539998336,None,,,,,,,,,,,,,14,001,2022_Oct_13_1200,Flanker,2021.2.0,239.94222191993802,
neutral left,0,a,neutral.png,neutral.png,neutral.png,left_arrow.png,neutral.png,neutral.png,neutral.png,,,,,,,,,4,1,25,4,,,,,,,,,242.0755322999903,None,,,,,,,,,,,,,,,,,,,,,,,,,,,,,,243.093453199981,None,243.093453199981,None,243.093453199981,None,243.093453199981,None,243.093453199981,None,243.093453199981,None,243.093453199981,None,a,1,0.72934850002639,243.093453199981,None,,,,,,,,,,,,,14,001,2022_Oct_13_1200,Flanker,2021.2.0,239.94222191993802,
incongruent-right.jpg,0,k,left_arrow.png,left_arrow.png,left_arrow.png,right_arrow.png,left_arrow.png,left_arrow.png,left_arrow.png,,,,,,,,,4,2,26,3,,,,,,,,,243.83574439998483,None,,,,,,,,,,,,,,,,,,,,,,,,,,,,,,244.84549439998227,None,244.84549439998227,None,244.84549439998227,None,244.84549439998227,None,244.84549439998227,None,244.84549439998227,None,244.84549439998227,None,k,1,0.7214357000193559,244.84549439998227,None,,,,,,,,,,,,,14,001,2022_Oct_13_1200,Flanker,2021.2.0,239.94222191993802,
incongruent-left.jpg,0,a,right_arrow.png,right_arrow.png,right_arrow.png,left_arrow.png,right_arrow.png,right_arrow.png,right_arrow.png,,,,,,,,,4,3,27,1,,,,,,,,,245.57925599999726,None,,,,,,,,,,,,,,,,,,,,,,,,,,,,,,246.5886354999966,None,246.5886354999966,None,246.5886354999966,None,246.5886354999966,None,246.5886354999966,None,246.5886354999966,None,246.5886354999966,None,a,1,0.6825347999983933,246.5886354999966,None,,,,,,,,,,,,,14,001,2022_Oct_13_1200,Flanker,2021.2.0,239.94222191993802,
incongruent-right.jpg,0,k,left_arrow.png,left_arrow.png,left_arrow.png,right_arrow.png,left_arrow.png,left_arrow.png,left_arrow.png,,,,,,,,,4,4,28,3,,,,,,,,,247.28938169998582,None,,,,,,,,,,,,,,,,,,,,,,,,,,,,,,248.2990521999891,None,248.2990521999891,None,248.2990521999891,None,248.2990521999891,None,248.2990521999891,None,248.2990521999891,None,248.2990521999891,None,k,1,0.5487223000091035,248.2990521999891,None,,,,,,,,,,,,,14,001,2022_Oct_13_1200,Flanker,2021.2.0,239.94222191993802,
congruent-left.jpg,1,a,left_arrow.png,left_arrow.png,left_arrow.png,left_arrow.png,left_arrow.png,left_arrow.png,left_arrow.png,,,,,,,,,4,5,29,0,,,,,,,,,248.86605649997364,None,,,,,,,,,,,,,,,,,,,,,,,,,,,,,,249.8757908999978,None,249.8757908999978,None,249.8757908999978,None,249.8757908999978,None,249.8757908999978,None,249.8757908999978,None,249.8757908999978,None,a,1,0.43592099999659695,249.8757908999978,None,,,,,,,,,,,,,14,001,2022_Oct_13_1200,Flanker,2021.2.0,239.94222191993802,
congruent-right.jpg,1,k,right_arrow.png,right_arrow.png,right_arrow.png,right_arrow.png,right_arrow.png,right_arrow.png,right_arrow.png,,,,,,,,,5,0,30,2,,,,,,,,,250.32591839999077,None,,,,,,,,,,,,,,,,,,,,,,,,,,,,,,251.33564139998634,None,251.33564139998634,None,251.33564139998634,None,251.33564139998634,None,251.33564139998634,None,251.33564139998634,None,251.33564139998634,None,k,1,0.536200500006089,251.33564139998634,None,,,,,,,,,,,,,14,001,2022_Oct_13_1200,Flanker,2021.2.0,239.94222191993802,
congruent-left.jpg,1,a,left_arrow.png,left_arrow.png,left_arrow.png,left_arrow.png,left_arrow.png,left_arrow.png,left_arrow.png,,,,,,,,,5,1,31,0,,,,,,,,,251.88593339998624,None,,,,,,,,,,,,,,,,,,,,,,,,,,,,,,252.89566099998774,None,252.89566099998774,None,252.89566099998774,None,252.89566099998774,None,252.89566099998774,None,252.89566099998774,None,252.89566099998774,None,a,1,0.4803251000121236,252.89566099998774,None,,,,,,,,,,,,,14,001,2022_Oct_13_1200,Flanker,2021.2.0,239.94222191993802,
neutral right,0,k,neutral.png,neutral.png,neutral.png,right_arrow.png,neutral.png,neutral.png,neutral.png,,,,,,,,,5,2,32,5,,,,,,,,,253.3875261999783,None,,,,,,,,,,,,,,,,,,,,,,,,,,,,,,254.4015232999809,None,254.4015232999809,None,254.4015232999809,None,254.4015232999809,None,254.4015232999809,None,254.4015232999809,None,254.4015232999809,None,k,1,0.5427161999978125,254.4015232999809,None,,,,,,,,,,,,,14,001,2022_Oct_13_1200,Flanker,2021.2.0,239.94222191993802,
congruent-right.jpg,1,k,right_arrow.png,right_arrow.png,right_arrow.png,right_arrow.png,right_arrow.png,right_arrow.png,right_arrow.png,,,,,,,,,5,3,33,2,,,,,,,,,254.96017700000084,None,,,,,,,,,,,,,,,,,,,,,,,,,,,,,,255.96942609999678,None,255.96942609999678,None,255.96942609999678,None,255.96942609999678,None,255.96942609999678,None,255.96942609999678,None,255.96942609999678,None,k,1,0.6069958999869414,255.96942609999678,None,,,,,,,,,,,,,14,001,2022_Oct_13_1200,Flanker,2021.2.0,239.94222191993802,
neutral right,0,k,neutral.png,neutral.png,neutral.png,right_arrow.png,neutral.png,neutral.png,neutral.png,,,,,,,,,5,4,34,5,,,,,,,,,256.5950730999757,None,,,,,,,,,,,,,,,,,,,,,,,,,,,,,,257.6044789000007,None,257.6044789000007,None,257.6044789000007,None,257.6044789000007,None,257.6044789000007,None,257.6044789000007,None,257.6044789000007,None,k,1,0.6522012999921571,257.6044789000007,None,,,,,,,,,,,,,14,001,2022_Oct_13_1200,Flanker,2021.2.0,239.94222191993802,
congruent-left.jpg,1,a,left_arrow.png,left_arrow.png,left_arrow.png,left_arrow.png,left_arrow.png,left_arrow.png,left_arrow.png,,,,,,,,,5,5,35,0,,,,,,,,,258.271926299989,None,,,,,,,,,,,,,,,,,,,,,,,,,,,,,,259.28128379999544,None,259.28128379999544,None,259.28128379999544,None,259.28128379999544,None,259.28128379999544,None,259.28128379999544,None,259.28128379999544,None,a,1,0.7356414999812841,259.28128379999544,None,,,,,,,,,,,,,14,001,2022_Oct_13_1200,Flanker,2021.2.0,239.94222191993802,
congruent-right.jpg,1,k,right_arrow.png,right_arrow.png,right_arrow.png,right_arrow.png,right_arrow.png,right_arrow.png,right_arrow.png,,,,,,,,,6,0,36,2,,,,,,,,,260.0321031999774,None,,,,,,,,,,,,,,,,,,,,,,,,,,,,,,261.04569739999715,None,261.04569739999715,None,261.04569739999715,None,261.04569739999715,None,261.04569739999715,None,261.04569739999715,None,261.04569739999715,None,k,1,0.5553719000017736,261.04569739999715,None,,,,,,,,,,,,,14,001,2022_Oct_13_1200,Flanker,2021.2.0,239.94222191993802,
neutral right,0,k,neutral.png,neutral.png,neutral.png,right_arrow.png,neutral.png,neutral.png,neutral.png,,,,,,,,,6,1,37,5,,,,,,,,,261.613160399982,None,,,,,,,,,,,,,,,,,,,,,,,,,,,,,,262.62260149998474,None,262.62260149998474,None,262.62260149998474,None,262.62260149998474,None,262.62260149998474,None,262.62260149998474,None,262.62260149998474,None,k,1,0.49099849999765866,262.62260149998474,None,,,,,,,,,,,,,14,001,2022_Oct_13_1200,Flanker,2021.2.0,239.94222191993802,
incongruent-right.jpg,0,k,left_arrow.png,left_arrow.png,left_arrow.png,right_arrow.png,left_arrow.png,left_arrow.png,left_arrow.png,,,,,,,,,6,2,38,3,,,,,,,,,263.1313177999982,None,,,,,,,,,,,,,,,,,,,,,,,,,,,,,,264.14086389998556,None,264.14086389998556,None,264.14086389998556,None,264.14086389998556,None,264.14086389998556,None,264.14086389998556,None,264.14086389998556,None,k,1,0.5489207000064198,264.14086389998556,None,,,,,,,,,,,,,14,001,2022_Oct_13_1200,Flanker,2021.2.0,239.94222191993802,
incongruent-left.jpg,0,a,right_arrow.png,right_arrow.png,right_arrow.png,left_arrow.png,right_arrow.png,right_arrow.png,right_arrow.png,,,,,,,,,6,3,39,1,,,,,,,,,264.70783699999447,None,,,,,,,,,,,,,,,,,,,,,,,,,,,,,,265.72142560000066,None,265.72142560000066,None,265.72142560000066,None,265.72142560000066,None,265.72142560000066,None,265.72142560000066,None,265.72142560000066,None,a,1,0.5603192999842577,265.72142560000066,None,,,,,,,,,,,,,14,001,2022_Oct_13_1200,Flanker,2021.2.0,239.94222191993802,
neutral right,0,k,neutral.png,neutral.png,neutral.png,right_arrow.png,neutral.png,neutral.png,neutral.png,,,,,,,,,6,4,40,5,,,,,,,,,266.29703009998775,None,,,,,,,,,,,,,,,,,,,,,,,,,,,,,,267.30651289998787,None,267.30651289998787,None,267.30651289998787,None,267.30651289998787,None,267.30651289998787,None,267.30651289998787,None,267.30651289998787,None,k,1,0.4714207999932114,267.30651289998787,None,,,,,,,,,,,,,14,001,2022_Oct_13_1200,Flanker,2021.2.0,239.94222191993802,
congruent-right.jpg,1,k,right_arrow.png,right_arrow.png,right_arrow.png,right_arrow.png,right_arrow.png,right_arrow.png,right_arrow.png,,,,,,,,,6,5,41,2,,,,,,,,,267.7903563999862,None,,,,,,,,,,,,,,,,,,,,,,,,,,,,,,268.8039006999752,None,268.8039006999752,None,268.8039006999752,None,268.8039006999752,None,268.8039006999752,None,268.8039006999752,None,268.8039006999752,None,k,1,0.598223799985135,268.8039006999752,None,,,,,,,,,,,,,14,001,2022_Oct_13_1200,Flanker,2021.2.0,239.94222191993802,
congruent-left.jpg,1,a,left_arrow.png,left_arrow.png,left_arrow.png,left_arrow.png,left_arrow.png,left_arrow.png,left_arrow.png,,,,,,,,,7,0,42,0,,,,,,,,,269.4211742999905,None,,,,,,,,,,,,,,,,,,,,,,,,,,,,,,270.43059129998437,None,270.43059129998437,None,270.43059129998437,None,270.43059129998437,None,270.43059129998437,None,270.43059129998437,None,270.43059129998437,None,a,1,0.6118102000036743,270.43059129998437,None,,,,,,,,,,,,,14,001,2022_Oct_13_1200,Flanker,2021.2.0,239.94222191993802,
incongruent-right.jpg,0,k,left_arrow.png,left_arrow.png,left_arrow.png,right_arrow.png,left_arrow.png,left_arrow.png,left_arrow.png,,,,,,,,,7,1,43,3,,,,,,,,,271.05631109999376,None,,,,,,,,,,,,,,,,,,,,,,,,,,,,,,272.0700620999851,None,272.0700620999851,None,272.0700620999851,None,272.0700620999851,None,272.0700620999851,None,272.0700620999851,None,272.0700620999851,None,k,1,0.5804996000078972,272.0700620999851,None,,,,,,,,,,,,,14,001,2022_Oct_13_1200,Flanker,2021.2.0,239.94222191993802,
congruent-right.jpg,1,k,right_arrow.png,right_arrow.png,right_arrow.png,right_arrow.png,right_arrow.png,right_arrow.png,right_arrow.png,,,,,,,,,7,2,44,2,,,,,,,,,272.66217179998057,None,,,,,,,,,,,,,,,,,,,,,,,,,,,,,,273.67182749998756,None,273.67182749998756,None,273.67182749998756,None,273.67182749998756,None,273.67182749998756,None,273.67182749998756,None,273.67182749998756,None,k,1,0.6911803999973927,273.67182749998756,None,,,,,,,,,,,,,14,001,2022_Oct_13_1200,Flanker,2021.2.0,239.94222191993802,
neutral left,0,a,neutral.png,neutral.png,neutral.png,left_arrow.png,neutral.png,neutral.png,neutral.png,,,,,,,,,7,3,45,4,,,,,,,,,274.38067119999323,None,,,,,,,,,,,,,,,,,,,,,,,,,,,,,,275.39447859997745,None,275.39447859997745,None,275.39447859997745,None,275.39447859997745,None,275.39447859997745,None,275.39447859997745,None,275.39447859997745,None,a,1,0.5125371000031009,275.39447859997745,None,,,,,,,,,,,,,14,001,2022_Oct_13_1200,Flanker,2021.2.0,239.94222191993802,
neutral left,0,a,neutral.png,neutral.png,neutral.png,left_arrow.png,neutral.png,neutral.png,neutral.png,,,,,,,,,7,4,46,4,,,,,,,,,275.9197318999795,None,,,,,,,,,,,,,,,,,,,,,,,,,,,,,,276.9250190999883,None,276.9250190999883,None,276.9250190999883,None,276.9250190999883,None,276.9250190999883,None,276.9250190999883,None,276.9250190999883,None,a,1,0.6382420000154525,276.9250190999883,None,,,,,,,,,,,,,14,001,2022_Oct_13_1200,Flanker,2021.2.0,239.94222191993802,
incongruent-left.jpg,0,a,right_arrow.png,right_arrow.png,right_arrow.png,left_arrow.png,right_arrow.png,right_arrow.png,right_arrow.png,,,,,,,,,7,5,47,1,,,,,,,,,277.57563509998727,None,,,,,,,,,,,,,,,,,,,,,,,,,,,,,,278.5892087999964,None,278.5892087999964,None,278.5892087999964,None,278.5892087999964,None,278.5892087999964,None,278.5892087999964,None,278.5892087999964,None,a,1,0.7742621999932453,278.5892087999964,None,,,,,,,,,,,,,14,001,2022_Oct_13_1200,Flanker,2021.2.0,239.94222191993802,
,,,,,,,,,,,,,,,,,,,,,,,,,,,,,,,,,,,,,,,,,,,,,,,,,,,,,,,,,,,,,,,,,,,,,,,,,,,,,,,,279.3902065999864,None,space,1.0694429999857675,279.3902065999864,None,,,,,,,14,001,2022_Oct_13_1200,Flanker,2021.2.0,239.94222191993802,
congruent-right.jpg,1,k,right_arrow.png,right_arrow.png,right_arrow.png,right_arrow.png,right_arrow.png,right_arrow.png,right_arrow.png,,,,,,,,,,,,,0,0,0,2,,,,,280.48290189998806,None,,,,,,,,,,,,,,,,,,,,,,,,,,,,,,281.4842011999863,None,281.4842011999863,None,281.4842011999863,None,281.4842011999863,None,281.4842011999863,None,281.4842011999863,None,281.4842011999863,None,k,1,0.5036518000124488,281.4842011999863,None,,,,,,,,,,,,,14,001,2022_Oct_13_1200,Flanker,2021.2.0,239.94222191993802,
incongruent-right.jpg,0,k,left_arrow.png,left_arrow.png,left_arrow.png,right_arrow.png,left_arrow.png,left_arrow.png,left_arrow.png,,,,,,,,,,,,,0,1,1,3,,,,,282.0012271999731,None,,,,,,,,,,,,,,,,,,,,,,,,,,,,,,283.0105538999778,None,283.0105538999778,None,283.0105538999778,None,283.0105538999778,None,283.0105538999778,None,283.0105538999778,None,283.0105538999778,None,k,1,0.5134670000115875,283.0105538999778,None,,,,,,,,,,,,,14,001,2022_Oct_13_1200,Flanker,2021.2.0,239.94222191993802,
congruent-left.jpg,1,a,left_arrow.png,left_arrow.png,left_arrow.png,left_arrow.png,left_arrow.png,left_arrow.png,left_arrow.png,,,,,,,,,,,,,0,2,2,0,,,,,283.536137099989,None,,,,,,,,,,,,,,,,,,,,,,,,,,,,,,284.5457869999809,None,284.5457869999809,None,284.5457869999809,None,284.5457869999809,None,284.5457869999809,None,284.5457869999809,None,284.5457869999809,None,a,1,0.40248069999506697,284.5457869999809,None,,,,,,,,,,,,,14,001,2022_Oct_13_1200,Flanker,2021.2.0,239.94222191993802,
neutral left,0,a,neutral.png,neutral.png,neutral.png,left_arrow.png,neutral.png,neutral.png,neutral.png,,,,,,,,,,,,,0,3,3,4,,,,,284.9626336999936,None,,,,,,,,,,,,,,,,,,,,,,,,,,,,,,285.97621409999556,None,285.97621409999556,None,285.97621409999556,None,285.97621409999556,None,285.97621409999556,None,285.97621409999556,None,285.97621409999556,None,a,1,0.48427299998002127,285.97621409999556,None,,,,,,,,,,,,,14,001,2022_Oct_13_1200,Flanker,2021.2.0,239.94222191993802,
incongruent-left.jpg,0,a,right_arrow.png,right_arrow.png,right_arrow.png,left_arrow.png,right_arrow.png,right_arrow.png,right_arrow.png,,,,,,,,,,,,,0,4,4,1,,,,,286.47699909997755,None,,,,,,,,,,,,,,,,,,,,,,,,,,,,,,287.48613889998524,None,287.48613889998524,None,287.48613889998524,None,287.48613889998524,None,287.48613889998524,None,287.48613889998524,None,287.48613889998524,None,a,1,0.5905326000065543,287.48613889998524,None,,,,,,,,,,,,,14,001,2022_Oct_13_1200,Flanker,2021.2.0,239.94222191993802,
congruent-left.jpg,1,a,left_arrow.png,left_arrow.png,left_arrow.png,left_arrow.png,left_arrow.png,left_arrow.png,left_arrow.png,,,,,,,,,,,,,0,5,5,0,,,,,288.09511019999627,None,,,,,,,,,,,,,,,,,,,,,,,,,,,,,,289.1086548999883,None,289.1086548999883,None,289.1086548999883,None,289.1086548999883,None,289.1086548999883,None,289.1086548999883,None,289.1086548999883,None,a,1,0.5921967999893241,289.1086548999883,None,,,,,,,,,,,,,14,001,2022_Oct_13_1200,Flanker,2021.2.0,239.94222191993802,
incongruent-right.jpg,0,k,left_arrow.png,left_arrow.png,left_arrow.png,right_arrow.png,left_arrow.png,left_arrow.png,left_arrow.png,,,,,,,,,,,,,1,0,6,3,,,,,289.7176338999998,None,,,,,,,,,,,,,,,,,,,,,,,,,,,,,,290.7271437999734,None,290.7271437999734,None,290.7271437999734,None,290.7271437999734,None,290.7271437999734,None,290.7271437999734,None,290.7271437999734,None,k,1,0.4859674999897834,290.7271437999734,None,,,,,,,,,,,,,14,001,2022_Oct_13_1200,Flanker,2021.2.0,239.94222191993802,
neutral left,0,a,neutral.png,neutral.png,neutral.png,left_arrow.png,neutral.png,neutral.png,neutral.png,,,,,,,,,,,,,1,1,7,4,,,,,291.2280633999908,None,,,,,,,,,,,,,,,,,,,,,,,,,,,,,,292.241183599981,None,292.241183599981,None,292.241183599981,None,292.241183599981,None,292.241183599981,None,292.241183599981,None,292.241183599981,None,a,1,0.5320948000007775,292.241183599981,None,,,,,,,,,,,,,14,001,2022_Oct_13_1200,Flanker,2021.2.0,239.94222191993802,
neutral left,0,a,neutral.png,neutral.png,neutral.png,left_arrow.png,neutral.png,neutral.png,neutral.png,,,,,,,,,,,,,1,2,8,4,,,,,292.79183360000025,None,,,,,,,,,,,,,,,,,,,,,,,,,,,,,,293.80536209998536,None,293.80536209998536,None,293.80536209998536,None,293.80536209998536,None,293.80536209998536,None,293.80536209998536,None,293.80536209998536,None,a,1,0.4641239000193309,293.80536209998536,None,,,,,,,,,,,,,14,001,2022_Oct_13_1200,Flanker,2021.2.0,239.94222191993802,
incongruent-left.jpg,0,a,right_arrow.png,right_arrow.png,right_arrow.png,left_arrow.png,right_arrow.png,right_arrow.png,right_arrow.png,,,,,,,,,,,,,1,3,9,1,,,,,294.2808145999734,None,,,,,,,,,,,,,,,,,,,,,,,,,,,,,,295.2947508999787,None,295.2947508999787,None,295.2947508999787,None,295.2947508999787,None,295.2947508999787,None,295.2947508999787,None,295.2947508999787,None,a,1,0.6069512999965809,295.2947508999787,None,,,,,,,,,,,,,14,001,2022_Oct_13_1200,Flanker,2021.2.0,239.94222191993802,
neutral left,0,a,neutral.png,neutral.png,neutral.png,left_arrow.png,neutral.png,neutral.png,neutral.png,,,,,,,,,,,,,1,4,10,4,,,,,295.9200543999905,None,,,,,,,,,,,,,,,,,,,,,,,,,,,,,,296.9298141999752,None,296.9298141999752,None,296.9298141999752,None,296.9298141999752,None,296.9298141999752,None,296.9298141999752,None,296.9298141999752,None,a,1,0.4841234000050463,296.9298141999752,None,,,,,,,,,,,,,14,001,2022_Oct_13_1200,Flanker,2021.2.0,239.94222191993802,
congruent-left.jpg,1,a,left_arrow.png,left_arrow.png,left_arrow.png,left_arrow.png,left_arrow.png,left_arrow.png,left_arrow.png,,,,,,,,,,,,,1,5,11,0,,,,,297.4300527999876,None,,,,,,,,,,,,,,,,,,,,,,,,,,,,,,298.43946359999245,None,298.43946359999245,None,298.43946359999245,None,298.43946359999245,None,298.43946359999245,None,298.43946359999245,None,298.43946359999245,None,a,1,0.5506741999997757,298.43946359999245,None,,,,,,,,,,,,,14,001,2022_Oct_13_1200,Flanker,2021.2.0,239.94222191993802,
incongruent-right.jpg,0,k,left_arrow.png,left_arrow.png,left_arrow.png,right_arrow.png,left_arrow.png,left_arrow.png,left_arrow.png,,,,,,,,,,,,,2,0,12,3,,,,,299.0066499999957,None,,,,,,,,,,,,,,,,,,,,,,,,,,,,,,300.0163794999826,None,300.0163794999826,None,300.0163794999826,None,300.0163794999826,None,300.0163794999826,None,300.0163794999826,None,300.0163794999826,None,k,1,0.581956000009086,300.0163794999826,None,,,,,,,,,,,,,14,001,2022_Oct_13_1200,Flanker,2021.2.0,239.94222191993802,
congruent-right.jpg,1,k,right_arrow.png,right_arrow.png,right_arrow.png,right_arrow.png,right_arrow.png,right_arrow.png,right_arrow.png,,,,,,,,,,,,,2,1,13,2,,,,,300.6167623999936,None,,,,,,,,,,,,,,,,,,,,,,,,,,,,,,301.62611369998194,None,301.62611369998194,None,301.62611369998194,None,301.62611369998194,None,301.62611369998194,None,301.62611369998194,None,301.62611369998194,None,k,1,0.6524692000239156,301.62611369998194,None,,,,,,,,,,,,,14,001,2022_Oct_13_1200,Flanker,2021.2.0,239.94222191993802,
congruent-left.jpg,1,a,left_arrow.png,left_arrow.png,left_arrow.png,left_arrow.png,left_arrow.png,left_arrow.png,left_arrow.png,,,,,,,,,,,,,2,2,14,0,,,,,302.29385479999473,None,,,,,,,,,,,,,,,,,,,,,,,,,,,,,,303.302881599986,None,303.302881599986,None,303.302881599986,None,303.302881599986,None,303.302881599986,None,303.302881599986,None,303.302881599986,None,a,1,0.5199073000112548,303.302881599986,None,,,,,,,,,,,,,14,001,2022_Oct_13_1200,Flanker,2021.2.0,239.94222191993802,
incongruent-left.jpg,0,a,right_arrow.png,right_arrow.png,right_arrow.png,left_arrow.png,right_arrow.png,right_arrow.png,right_arrow.png,,,,,,,,,,,,,2,3,15,1,,,,,303.8368497999909,None,,,,,,,,,,,,,,,,,,,,,,,,,,,,,,304.84618319998845,None,304.84618319998845,None,304.84618319998845,None,304.84618319998845,None,304.84618319998845,None,304.84618319998845,None,304.84618319998845,None,a,1,0.5368113000004087,304.84618319998845,None,,,,,,,,,,,,,14,001,2022_Oct_13_1200,Flanker,2021.2.0,239.94222191993802,
congruent-left.jpg,1,a,left_arrow.png,left_arrow.png,left_arrow.png,left_arrow.png,left_arrow.png,left_arrow.png,left_arrow.png,,,,,,,,,,,,,2,4,16,0,,,,,305.3967538999859,None,,,,,,,,,,,,,,,,,,,,,,,,,,,,,,306.41475569998147,None,306.41475569998147,None,306.41475569998147,None,306.41475569998147,None,306.41475569998147,None,306.41475569998147,None,306.41475569998147,None,a,1,0.6644481999974232,306.41475569998147,None,,,,,,,,,,,,,14,001,2022_Oct_13_1200,Flanker,2021.2.0,239.94222191993802,
incongruent-left.jpg,0,a,right_arrow.png,right_arrow.png,right_arrow.png,left_arrow.png,right_arrow.png,right_arrow.png,right_arrow.png,,,,,,,,,,,,,2,5,17,1,,,,,307.0902165999869,None,,,,,,,,,,,,,,,,,,,,,,,,,,,,,,308.0999953999999,None,308.0999953999999,None,308.0999953999999,None,308.0999953999999,None,308.0999953999999,None,308.0999953999999,None,308.0999953999999,None,a,1,0.6034470000013243,308.0999953999999,None,,,,,,,,,,,,,14,001,2022_Oct_13_1200,Flanker,2021.2.0,239.94222191993802,
congruent-right.jpg,1,k,right_arrow.png,right_arrow.png,right_arrow.png,right_arrow.png,right_arrow.png,right_arrow.png,right_arrow.png,,,,,,,,,,,,,3,0,18,2,,,,,308.7169359999825,None,,,,,,,,,,,,,,,,,,,,,,,,,,,,,,309.7266963000002,None,309.7266963000002,None,309.7266963000002,None,309.7266963000002,None,309.7266963000002,None,309.7266963000002,None,309.7266963000002,None,k,1,0.520957400003681,309.7266963000002,None,,,,,,,,,,,,,14,001,2022_Oct_13_1200,Flanker,2021.2.0,239.94222191993802,
congruent-right.jpg,1,k,right_arrow.png,right_arrow.png,right_arrow.png,right_arrow.png,right_arrow.png,right_arrow.png,right_arrow.png,,,,,,,,,,,,,3,1,19,2,,,,,310.2602509999997,None,,,,,,,,,,,,,,,,,,,,,,,,,,,,,,311.2698871999746,None,311.2698871999746,None,311.2698871999746,None,311.2698871999746,None,311.2698871999746,None,311.2698871999746,None,311.2698871999746,None,k,1,0.5619791000208352,311.2698871999746,None,,,,,,,,,,,,,14,001,2022_Oct_13_1200,Flanker,2021.2.0,239.94222191993802,
incongruent-right.jpg,0,k,left_arrow.png,left_arrow.png,left_arrow.png,right_arrow.png,left_arrow.png,left_arrow.png,left_arrow.png,,,,,,,,,,,,,3,2,20,3,,,,,311.84525129999383,None,,,,,,,,,,,,,,,,,,,,,,,,,,,,,,312.86331469999277,None,312.86331469999277,None,312.86331469999277,None,312.86331469999277,None,312.86331469999277,None,312.86331469999277,None,312.86331469999277,None,k,1,0.5447449999919627,312.86331469999277,None,,,,,,,,,,,,,14,001,2022_Oct_13_1200,Flanker,2021.2.0,239.94222191993802,
incongruent-left.jpg,0,a,right_arrow.png,right_arrow.png,right_arrow.png,left_arrow.png,right_arrow.png,right_arrow.png,right_arrow.png,,,,,,,,,,,,,3,3,21,1,,,,,313.42191499998444,None,,,,,,,,,,,,,,,,,,,,,,,,,,,,,,314.4357216999924,None,314.4357216999924,None,314.4357216999924,None,314.4357216999924,None,314.4357216999924,None,314.4357216999924,None,314.4357216999924,None,a,1,0.5965288000006694,314.4357216999924,None,,,,,,,,,,,,,14,001,2022_Oct_13_1200,Flanker,2021.2.0,239.94222191993802,
neutral left,0,a,neutral.png,neutral.png,neutral.png,left_arrow.png,neutral.png,neutral.png,neutral.png,,,,,,,,,,,,,3,4,22,4,,,,,315.0447750999883,None,,,,,,,,,,,,,,,,,,,,,,,,,,,,,,316.0580441999773,None,316.0580441999773,None,316.0580441999773,None,316.0580441999773,None,316.0580441999773,None,316.0580441999773,None,316.0580441999773,None,a,1,0.4704589000029955,316.0580441999773,None,,,,,,,,,,,,,14,001,2022_Oct_13_1200,Flanker,2021.2.0,239.94222191993802,
incongruent-right.jpg,0,k,left_arrow.png,left_arrow.png,left_arrow.png,right_arrow.png,left_arrow.png,left_arrow.png,left_arrow.png,,,,,,,,,,,,,3,5,23,3,,,,,316.5419123999891,None,,,,,,,,,,,,,,,,,,,,,,,,,,,,,,317.5554600999749,None,317.5554600999749,None,317.5554600999749,None,317.5554600999749,None,317.5554600999749,None,317.5554600999749,None,317.5554600999749,None,k,1,0.629261599999154,317.5554600999749,None,,,,,,,,,,,,,14,001,2022_Oct_13_1200,Flanker,2021.2.0,239.94222191993802,
congruent-right.jpg,1,k,right_arrow.png,right_arrow.png,right_arrow.png,right_arrow.png,right_arrow.png,right_arrow.png,right_arrow.png,,,,,,,,,,,,,4,0,24,2,,,,,318.19797829998424,None,,,,,,,,,,,,,,,,,,,,,,,,,,,,,,319.2074818999972,None,319.2074818999972,None,319.2074818999972,None,319.2074818999972,None,319.2074818999972,None,319.2074818999972,None,319.2074818999972,None,k,1,0.55345359997591,319.2074818999972,None,,,,,,,,,,,,,14,001,2022_Oct_13_1200,Flanker,2021.2.0,239.94222191993802,
neutral right,0,k,neutral.png,neutral.png,neutral.png,right_arrow.png,neutral.png,neutral.png,neutral.png,,,,,,,,,,,,,4,1,25,5,,,,,319.77484639998875,None,,,,,,,,,,,,,,,,,,,,,,,,,,,,,,320.78388499998255,None,320.78388499998255,None,320.78388499998255,None,320.78388499998255,None,320.78388499998255,None,320.78388499998255,None,320.78388499998255,None,k,1,0.5214153999986593,320.78388499998255,None,,,,,,,,,,,,,14,001,2022_Oct_13_1200,Flanker,2021.2.0,239.94222191993802,
congruent-left.jpg,1,a,left_arrow.png,left_arrow.png,left_arrow.png,left_arrow.png,left_arrow.png,left_arrow.png,left_arrow.png,,,,,,,,,,,,,4,2,26,0,,,,,321.3177934999985,None,,,,,,,,,,,,,,,,,,,,,,,,,,,,,,322.32757789999596,None,322.32757789999596,None,322.32757789999596,None,322.32757789999596,None,322.32757789999596,None,322.32757789999596,None,322.32757789999596,None,a,1,0.674027799977921,322.32757789999596,None,,,,,,,,,,,,,14,001,2022_Oct_13_1200,Flanker,2021.2.0,239.94222191993802,
neutral right,0,k,neutral.png,neutral.png,neutral.png,right_arrow.png,neutral.png,neutral.png,neutral.png,,,,,,,,,,,,,4,3,27,5,,,,,323.01965499998187,None,,,,,,,,,,,,,,,,,,,,,,,,,,,,,,324.0332434999873,None,324.0332434999873,None,324.0332434999873,None,324.0332434999873,None,324.0332434999873,None,324.0332434999873,None,324.0332434999873,None,k,1,0.4402846999873873,324.0332434999873,None,,,,,,,,,,,,,14,001,2022_Oct_13_1200,Flanker,2021.2.0,239.94222191993802,
congruent-right.jpg,1,k,right_arrow.png,right_arrow.png,right_arrow.png,right_arrow.png,right_arrow.png,right_arrow.png,right_arrow.png,,,,,,,,,,,,,4,4,28,2,,,,,324.4919732999988,None,,,,,,,,,,,,,,,,,,,,,,,,,,,,,,325.50556219997816,None,325.50556219997816,None,325.50556219997816,None,325.50556219997816,None,325.50556219997816,None,325.50556219997816,None,325.50556219997816,None,k,1,0.648188500024844,325.50556219997816,None,,,,,,,,,,,,,14,001,2022_Oct_13_1200,Flanker,2021.2.0,239.94222191993802,
incongruent-left.jpg,0,a,right_arrow.png,right_arrow.png,right_arrow.png,left_arrow.png,right_arrow.png,right_arrow.png,right_arrow.png,,,,,,,,,,,,,4,5,29,1,,,,,326.1729254999955,None,,,,,,,,,,,,,,,,,,,,,,,,,,,,,,327.19083329997375,None,327.19083329997375,None,327.19083329997375,None,327.19083329997375,None,327.19083329997375,None,327.19083329997375,None,327.19083329997375,None,a,1,0.595174300018698,327.19083329997375,None,,,,,,,,,,,,,14,001,2022_Oct_13_1200,Flanker,2021.2.0,239.94222191993802,
neutral right,0,k,neutral.png,neutral.png,neutral.png,right_arrow.png,neutral.png,neutral.png,neutral.png,,,,,,,,,,,,,5,0,30,5,,,,,327.79996869998286,None,,,,,,,,,,,,,,,,,,,,,,,,,,,,,,328.80922339999233,None,328.80922339999233,None,328.80922339999233,None,328.80922339999233,None,328.80922339999233,None,328.80922339999233,None,328.80922339999233,None,k,1,0.5449937999946997,328.80922339999233,None,,,,,,,,,,,,,14,001,2022_Oct_13_1200,Flanker,2021.2.0,239.94222191993802,
incongruent-right.jpg,0,k,left_arrow.png,left_arrow.png,left_arrow.png,right_arrow.png,left_arrow.png,left_arrow.png,left_arrow.png,,,,,,,,,,,,,5,1,31,3,,,,,329.36806029998115,None,,,,,,,,,,,,,,,,,,,,,,,,,,,,,,330.38189539997256,None,330.38189539997256,None,330.38189539997256,None,330.38189539997256,None,330.38189539997256,None,330.38189539997256,None,330.38189539997256,None,k,1,0.5565202000143472,330.38189539997256,None,,,,,,,,,,,,,14,001,2022_Oct_13_1200,Flanker,2021.2.0,239.94222191993802,
neutral left,0,a,neutral.png,neutral.png,neutral.png,left_arrow.png,neutral.png,neutral.png,neutral.png,,,,,,,,,,,,,5,2,32,4,,,,,330.95715299999574,None,,,,,,,,,,,,,,,,,,,,,,,,,,,,,,331.97093509999104,None,331.97093509999104,None,331.97093509999104,None,331.97093509999104,None,331.97093509999104,None,331.97093509999104,None,331.97093509999104,None,a,1,0.5757145000097807,331.97093509999104,None,,,,,,,,,,,,,14,001,2022_Oct_13_1200,Flanker,2021.2.0,239.94222191993802,
neutral left,0,a,neutral.png,neutral.png,neutral.png,left_arrow.png,neutral.png,neutral.png,neutral.png,,,,,,,,,,,,,5,3,33,4,,,,,332.56337929997244,None,,,,,,,,,,,,,,,,,,,,,,,,,,,,,,333.57243049997487,None,333.57243049997487,None,333.57243049997487,None,333.57243049997487,None,333.57243049997487,None,333.57243049997487,None,333.57243049997487,None,a,1,0.6704350000072736,333.57243049997487,None,,,,,,,,,,,,,14,001,2022_Oct_13_1200,Flanker,2021.2.0,239.94222191993802,
incongruent-left.jpg,0,a,right_arrow.png,right_arrow.png,right_arrow.png,left_arrow.png,right_arrow.png,right_arrow.png,right_arrow.png,,,,,,,,,,,,,5,4,34,1,,,,,334.2565398000006,None,,,,,,,,,,,,,,,,,,,,,,,,,,,,,,335.2662225999811,None,335.2662225999811,None,335.2662225999811,None,335.2662225999811,None,335.2662225999811,None,335.2662225999811,None,335.2662225999811,None,a,1,0.7288800000096671,335.2662225999811,None,,,,,,,,,,,,,14,001,2022_Oct_13_1200,Flanker,2021.2.0,239.94222191993802,
incongruent-right.jpg,0,k,left_arrow.png,left_arrow.png,left_arrow.png,right_arrow.png,left_arrow.png,left_arrow.png,left_arrow.png,,,,,,,,,,,,,5,5,35,3,,,,,336.00834999998915,None,,,,,,,,,,,,,,,,,,,,,,,,,,,,,,337.0177532999951,None,337.0177532999951,None,337.0177532999951,None,337.0177532999951,None,337.0177532999951,None,337.0177532999951,None,337.0177532999951,None,k,1,0.5295615999784786,337.0177532999951,None,,,,,,,,,,,,,14,001,2022_Oct_13_1200,Flanker,2021.2.0,239.94222191993802,
neutral left,0,a,neutral.png,neutral.png,neutral.png,left_arrow.png,neutral.png,neutral.png,neutral.png,,,,,,,,,,,,,6,0,36,4,,,,,337.55998139997246,None,,,,,,,,,,,,,,,,,,,,,,,,,,,,,,338.5735607999959,None,338.5735607999959,None,338.5735607999959,None,338.5735607999959,None,338.5735607999959,None,338.5735607999959,None,338.5735607999959,None,a,1,0.582256800000323,338.5735607999959,None,,,,,,,,,,,,,14,001,2022_Oct_13_1200,Flanker,2021.2.0,239.94222191993802,
congruent-right.jpg,1,k,right_arrow.png,right_arrow.png,right_arrow.png,right_arrow.png,right_arrow.png,right_arrow.png,right_arrow.png,,,,,,,,,,,,,6,1,37,2,,,,,339.17421219998505,None,,,,,,,,,,,,,,,,,,,,,,,,,,,,,,340.1836174999771,None,340.1836174999771,None,340.1836174999771,None,340.1836174999771,None,340.1836174999771,None,340.1836174999771,None,340.1836174999771,None,k,1,0.5401388000173029,340.1836174999771,None,,,,,,,,,,,,,14,001,2022_Oct_13_1200,Flanker,2021.2.0,239.94222191993802,
neutral right,0,k,neutral.png,neutral.png,neutral.png,right_arrow.png,neutral.png,neutral.png,neutral.png,,,,,,,,,,,,,6,2,38,5,,,,,340.74252729999716,None,,,,,,,,,,,,,,,,,,,,,,,,,,,,,,341.75611979997484,None,341.75611979997484,None,341.75611979997484,None,341.75611979997484,None,341.75611979997484,None,341.75611979997484,None,341.75611979997484,None,k,1,0.5278369000006933,341.75611979997484,None,,,,,,,,,,,,,14,001,2022_Oct_13_1200,Flanker,2021.2.0,239.94222191993802,
congruent-right.jpg,1,k,right_arrow.png,right_arrow.png,right_arrow.png,right_arrow.png,right_arrow.png,right_arrow.png,right_arrow.png,,,,,,,,,,,,,6,3,39,2,,,,,342.2983664999774,None,,,,,,,,,,,,,,,,,,,,,,,,,,,,,,343.3119131999847,None,343.3119131999847,None,343.3119131999847,None,343.3119131999847,None,343.3119131999847,None,343.3119131999847,None,343.3119131999847,None,k,1,0.5402407000074163,343.3119131999847,None,,,,,,,,,,,,,14,001,2022_Oct_13_1200,Flanker,2021.2.0,239.94222191993802,
neutral right,0,k,neutral.png,neutral.png,neutral.png,right_arrow.png,neutral.png,neutral.png,neutral.png,,,,,,,,,,,,,6,4,40,5,,,,,343.8708782999893,None,,,,,,,,,,,,,,,,,,,,,,,,,,,,,,344.888912800001,None,344.888912800001,None,344.888912800001,None,344.888912800001,None,344.888912800001,None,344.888912800001,None,344.888912800001,None,k,1,0.49181039998074993,344.888912800001,None,,,,,,,,,,,,,14,001,2022_Oct_13_1200,Flanker,2021.2.0,239.94222191993802,
incongruent-left.jpg,0,a,right_arrow.png,right_arrow.png,right_arrow.png,left_arrow.png,right_arrow.png,right_arrow.png,right_arrow.png,,,,,,,,,,,,,6,5,41,1,,,,,345.39754839998204,None,,,,,,,,,,,,,,,,,,,,,,,,,,,,,,346.4068623999774,None,346.4068623999774,None,346.4068623999774,None,346.4068623999774,None,346.4068623999774,None,346.4068623999774,None,346.4068623999774,None,a,1,0.5017054000054486,346.4068623999774,None,,,,,,,,,,,,,14,001,2022_Oct_13_1200,Flanker,2021.2.0,239.94222191993802,
incongruent-right.jpg,0,k,left_arrow.png,left_arrow.png,left_arrow.png,right_arrow.png,left_arrow.png,left_arrow.png,left_arrow.png,,,,,,,,,,,,,7,0,42,3,,,,,346.9240837999969,None,,,,,,,,,,,,,,,,,,,,,,,,,,,,,,347.93789159998414,None,347.93789159998414,None,347.93789159998414,None,347.93789159998414,None,347.93789159998414,None,347.93789159998414,None,347.93789159998414,None,k,1,0.5228768000088166,347.93789159998414,None,,,,,,,,,,,,,14,001,2022_Oct_13_1200,Flanker,2021.2.0,239.94222191993802,
congruent-left.jpg,1,a,left_arrow.png,left_arrow.png,left_arrow.png,left_arrow.png,left_arrow.png,left_arrow.png,left_arrow.png,,,,,,,,,,,,,7,1,43,0,,,,,348.4799096999923,None,,,,,,,,,,,,,,,,,,,,,,,,,,,,,,349.49382119998336,None,349.49382119998336,None,349.49382119998336,None,349.49382119998336,None,349.49382119998336,None,349.49382119998336,None,349.49382119998336,None,a,1,0.49517790001118556,349.49382119998336,None,,,,,,,,,,,,,14,001,2022_Oct_13_1200,Flanker,2021.2.0,239.94222191993802,
neutral right,0,k,neutral.png,neutral.png,neutral.png,right_arrow.png,neutral.png,neutral.png,neutral.png,,,,,,,,,,,,,7,2,44,5,,,,,350.00236259997473,None,,,,,,,,,,,,,,,,,,,,,,,,,,,,,,351.0159196999739,None,351.0159196999739,None,351.0159196999739,None,351.0159196999739,None,351.0159196999739,None,351.0159196999739,None,351.0159196999739,None,k,1,0.49326440002187155,351.0159196999739,None,,,,,,,,,,,,,14,001,2022_Oct_13_1200,Flanker,2021.2.0,239.94222191993802,
neutral right,0,k,neutral.png,neutral.png,neutral.png,right_arrow.png,neutral.png,neutral.png,neutral.png,,,,,,,,,,,,,7,3,45,5,,,,,351.5247760999773,None,,,,,,,,,,,,,,,,,,,,,,,,,,,,,,352.5426915999851,None,352.5426915999851,None,352.5426915999851,None,352.5426915999851,None,352.5426915999851,None,352.5426915999851,None,352.5426915999851,None,k,1,0.5347307000192814,352.5426915999851,None,,,,,,,,,,,,,14,001,2022_Oct_13_1200,Flanker,2021.2.0,239.94222191993802,
congruent-left.jpg,1,a,left_arrow.png,left_arrow.png,left_arrow.png,left_arrow.png,left_arrow.png,left_arrow.png,left_arrow.png,,,,,,,,,,,,,7,4,46,0,,,,,353.0931109999947,None,,,,,,,,,,,,,,,,,,,,,,,,,,,,,,354.11093549997895,None,354.11093549997895,None,354.11093549997895,None,354.11093549997895,None,354.11093549997895,None,354.11093549997895,None,354.11093549997895,None,a,1,0.6546944000001531,354.11093549997895,None,,,,,,,,,,,,,14,001,2022_Oct_13_1200,Flanker,2021.2.0,239.94222191993802,
neutral right,0,k,neutral.png,neutral.png,neutral.png,right_arrow.png,neutral.png,neutral.png,neutral.png,,,,,,,,,,,,,7,5,47,5,,,,,354.77831329999026,None,,,,,,,,,,,,,,,,,,,,,,,,,,,,,,355.7918111999752,None,355.7918111999752,None,355.7918111999752,None,355.7918111999752,None,355.7918111999752,None,355.7918111999752,None,355.7918111999752,None,k,1,0.47834110000985675,355.7918111999752,None,,,,,,,,,,,,,14,001,2022_Oct_13_1200,Flanker,2021.2.0,239.94222191993802,
,,,,,,,,,,,,,,,,,,,,,,,,,,,,,,,,,,,,,,,,,,,,,,,,,,,,,,,,,,,,,,,,,,,,,,,,,,,,,,,,356.29235229999176,None,space,0.9859564999933355,356.29235229999176,None,,,,,,,14,001,2022_Oct_13_1200,Flanker,2021.2.0,239.94222191993802,
,,,,,,,,,,,,,,,,,,,,,,,,,,,,,,,,,,,,,,,,,,,,,,,,,,,,,,,,,,,,,,,,,,,,,,,,,,,,,,,,,,,,,,357.29356859999825,None,space,3.048831899999641,357.29356859999825,None,14,001,2022_Oct_13_1200,Flanker,2021.2.0,239.94222191993802,
