images,congruentcy,corrAns,arrow_1,arrow_2,arrow_3,target,arrow_5,arrow_6,arrow_7,practice.thisRepN,practice.thisTrialN,practice.thisN,practice.thisIndex,trials.thisRepN,trials.thisTrialN,trials.thisN,trials.thisIndex,trials_2.thisRepN,trials_2.thisTrialN,trials_2.thisN,trials_2.thisIndex,trials_3.thisRepN,trials_3.thisTrialN,trials_3.thisN,trials_3.thisIndex,instr_text.started,instr_text.stopped,instr_resp.keys,instr_resp.rt,polygon.started,polygon.stopped,arrow1_.started,arrow1_.stopped,arrow2_.started,arrow2_.stopped,arrow3_.started,arrow3_.stopped,target_p.started,target_p.stopped,arrow5_.started,arrow5_.stopped,arrow6_.started,arrow6_.stopped,arrow7_.started,arrow7_.stopped,key_resp_P.keys,key_resp_P.corr,key_resp_P.rt,key_resp_P.started,key_resp_P.stopped,text_2.started,text_2.stopped,text_3.started,text_3.stopped,text_4.started,text_4.stopped,key_resp_2.keys,key_resp_2.rt,key_resp_2.started,key_resp_2.stopped,arrow1.started,arrow1.stopped,arrow2.started,arrow2.stopped,arrow3.started,arrow3.stopped,target_t.started,target_t.stopped,arrow5.started,arrow5.stopped,arrow6.started,arrow6.stopped,arrow7.started,arrow7.stopped,key_resp.keys,key_resp.corr,key_resp.rt,key_resp.started,key_resp.stopped,text_5.started,text_5.stopped,key_resp_3.keys,key_resp_3.rt,key_resp_3.started,key_resp_3.stopped,text_6.started,text_6.stopped,key_resp_4.keys,key_resp_4.rt,key_resp_4.started,key_resp_4.stopped,participant,session,date,expName,psychopyVersion,frameRate,
,,,,,,,,,,,,,,,,,,,,,,,,,,56.52631299999999,None,space,34.87077690000001,,,,,,,,,,,,,,,,,,,,,,,,,,,,,,,,,,,,,,,,,,,,,,,,,,,,,,,,,,,,,,,15,001,2022_Oct_19_1215,Flanker,2021.2.0,238.5587236154853,
neutral right,0,k,neutral.png,neutral.png,neutral.png,right_arrow.png,neutral.png,neutral.png,neutral.png,0,0,0,5,,,,,,,,,,,,,,,,,91.4539331,None,92.46795339999997,None,92.46795339999997,None,92.46795339999997,None,92.46795339999997,None,92.46795339999997,None,92.46795339999997,None,92.46795339999997,None,k,1,0.7857222000000093,92.46795339999997,None,93.27672559999999,None,,,,,,,,,,,,,,,,,,,,,,,,,,,,,,,,,,,,,,,,15,001,2022_Oct_19_1215,Flanker,2021.2.0,238.5587236154853,
incongruent-left.jpg,0,a,right_arrow.png,right_arrow.png,right_arrow.png,left_arrow.png,right_arrow.png,right_arrow.png,right_arrow.png,0,1,1,1,,,,,,,,,,,,,,,,,94.77412589999997,None,95.7961215,None,95.7961215,None,95.7961215,None,95.7961215,None,95.7961215,None,95.7961215,None,95.7961215,None,a,1,2.4340689999999654,95.7961215,None,98.2487204,None,,,,,,,,,,,,,,,,,,,,,,,,,,,,,,,,,,,,,,,,15,001,2022_Oct_19_1215,Flanker,2021.2.0,238.5587236154853,
neutral left,0,a,neutral.png,neutral.png,neutral.png,left_arrow.png,neutral.png,neutral.png,neutral.png,0,2,2,4,,,,,,,,,,,,,,,,,99.75032739999997,None,100.76404399999998,None,100.76404399999998,None,100.76404399999998,None,100.76404399999998,None,100.76404399999998,None,100.76404399999998,None,100.76404399999998,None,a,1,0.6104637000000253,100.76404399999998,None,101.38963320000002,None,,,,,,,,,,,,,,,,,,,,,,,,,,,,,,,,,,,,,,,,15,001,2022_Oct_19_1215,Flanker,2021.2.0,238.5587236154853,
incongruent-left.jpg,0,a,right_arrow.png,right_arrow.png,right_arrow.png,left_arrow.png,right_arrow.png,right_arrow.png,right_arrow.png,0,3,3,1,,,,,,,,,,,,,,,,,102.891444,None,103.90062789999999,None,103.90062789999999,None,103.90062789999999,None,103.90062789999999,None,103.90062789999999,None,103.90062789999999,None,103.90062789999999,None,a,1,0.7702510999999959,103.90062789999999,None,104.68480250000002,None,,,,,,,,,,,,,,,,,,,,,,,,,,,,,,,,,,,,,,,,15,001,2022_Oct_19_1215,Flanker,2021.2.0,238.5587236154853,
incongruent-right.jpg,0,k,left_arrow.png,left_arrow.png,left_arrow.png,right_arrow.png,left_arrow.png,left_arrow.png,left_arrow.png,0,4,4,3,,,,,,,,,,,,,,,,,106.1864032,None,107.19579680000001,None,107.19579680000001,None,107.19579680000001,None,107.19579680000001,None,107.19579680000001,None,107.19579680000001,None,107.19579680000001,None,k,1,0.5555070000000342,107.19579680000001,None,107.76307339999997,None,,,,,,,,,,,,,,,,,,,,,,,,,,,,,,,,,,,,,,,,15,001,2022_Oct_19_1215,Flanker,2021.2.0,238.5587236154853,
congruent-left.jpg,1,a,left_arrow.png,left_arrow.png,left_arrow.png,left_arrow.png,left_arrow.png,left_arrow.png,left_arrow.png,0,5,5,0,,,,,,,,,,,,,,,,,109.26885760000002,None,110.27408829999999,None,110.27408829999999,None,110.27408829999999,None,110.27408829999999,None,110.27408829999999,None,110.27408829999999,None,110.27408829999999,None,a,1,0.6860317999999666,110.27408829999999,None,110.97467989999998,None,,,,,,,,,,,,,,,,,,,,,,,,,,,,,,,,,,,,,,,,15,001,2022_Oct_19_1215,Flanker,2021.2.0,238.5587236154853,
incongruent-right.jpg,0,k,left_arrow.png,left_arrow.png,left_arrow.png,right_arrow.png,left_arrow.png,left_arrow.png,left_arrow.png,1,0,6,3,,,,,,,,,,,,,,,,,112.4766577,None,113.4859509,None,113.4859509,None,113.4859509,None,113.4859509,None,113.4859509,None,113.4859509,None,113.4859509,None,k,1,0.47429990000000544,113.4859509,None,113.9778623,None,,,,,,,,,,,,,,,,,,,,,,,,,,,,,,,,,,,,,,,,15,001,2022_Oct_19_1215,Flanker,2021.2.0,238.5587236154853,
neutral left,0,a,neutral.png,neutral.png,neutral.png,left_arrow.png,neutral.png,neutral.png,neutral.png,1,1,7,4,,,,,,,,,,,,,,,,,115.4838316,None,116.49328640000002,None,116.49328640000002,None,116.49328640000002,None,116.49328640000002,None,116.49328640000002,None,116.49328640000002,None,116.49328640000002,None,a,1,0.4592655999999806,116.49328640000002,None,116.96852950000002,None,,,,,,,,,,,,,,,,,,,,,,,,,,,,,,,,,,,,,,,,15,001,2022_Oct_19_1215,Flanker,2021.2.0,238.5587236154853,
congruent-left.jpg,1,a,left_arrow.png,left_arrow.png,left_arrow.png,left_arrow.png,left_arrow.png,left_arrow.png,left_arrow.png,1,2,8,0,,,,,,,,,,,,,,,,,118.47043089999997,None,119.47953520000002,None,119.47953520000002,None,119.47953520000002,None,119.47953520000002,None,119.47953520000002,None,119.47953520000002,None,119.47953520000002,None,a,1,0.4094504999999913,119.47953520000002,None,119.90500590000002,None,,,,,,,,,,,,,,,,,,,,,,,,,,,,,,,,,,,,,,,,15,001,2022_Oct_19_1215,Flanker,2021.2.0,238.5587236154853,
incongruent-left.jpg,0,a,right_arrow.png,right_arrow.png,right_arrow.png,left_arrow.png,right_arrow.png,right_arrow.png,right_arrow.png,1,3,9,1,,,,,,,,,,,,,,,,,121.40657559999997,None,122.4202994,None,122.4202994,None,122.4202994,None,122.4202994,None,122.4202994,None,122.4202994,None,122.4202994,None,a,1,0.49324050000001307,122.4202994,None,122.92916929999998,None,,,,,,,,,,,,,,,,,,,,,,,,,,,,,,,,,,,,,,,,15,001,2022_Oct_19_1215,Flanker,2021.2.0,238.5587236154853,
congruent-right.jpg,1,k,right_arrow.png,right_arrow.png,right_arrow.png,right_arrow.png,right_arrow.png,right_arrow.png,right_arrow.png,1,4,10,2,,,,,,,,,,,,,,,,,124.43082239999998,None,125.4401475,None,125.4401475,None,125.4401475,None,125.4401475,None,125.4401475,None,125.4401475,None,125.4401475,None,k,1,0.4258330999999771,125.4401475,None,125.88253139999998,None,,,,,,,,,,,,,,,,,,,,,,,,,,,,,,,,,,,,,,,,15,001,2022_Oct_19_1215,Flanker,2021.2.0,238.5587236154853,
incongruent-right.jpg,0,k,left_arrow.png,left_arrow.png,left_arrow.png,right_arrow.png,left_arrow.png,left_arrow.png,left_arrow.png,1,5,11,3,,,,,,,,,,,,,,,,,127.38377949999997,None,128.39748260000002,None,128.39748260000002,None,128.39748260000002,None,128.39748260000002,None,128.39748260000002,None,128.39748260000002,None,128.39748260000002,None,k,1,0.5409060000000068,128.39748260000002,None,128.95664559999997,None,,,,,,,,,,,,,,,,,,,,,,,,,,,,,,,,,,,,,,,,15,001,2022_Oct_19_1215,Flanker,2021.2.0,238.5587236154853,
congruent-left.jpg,1,a,left_arrow.png,left_arrow.png,left_arrow.png,left_arrow.png,left_arrow.png,left_arrow.png,left_arrow.png,2,0,12,0,,,,,,,,,,,,,,,,,130.46221519999997,None,131.4716395,None,131.4716395,None,131.4716395,None,131.4716395,None,131.4716395,None,131.4716395,None,131.4716395,None,a,1,0.35495860000003177,131.4716395,None,131.8386545,None,,,,,,,,,,,,,,,,,,,,,,,,,,,,,,,,,,,,,,,,15,001,2022_Oct_19_1215,Flanker,2021.2.0,238.5587236154853,
congruent-right.jpg,1,k,right_arrow.png,right_arrow.png,right_arrow.png,right_arrow.png,right_arrow.png,right_arrow.png,right_arrow.png,2,1,13,2,,,,,,,,,,,,,,,,,133.3402488,None,134.34974529999997,None,134.34974529999997,None,134.34974529999997,None,134.34974529999997,None,134.34974529999997,None,134.34974529999997,None,134.34974529999997,None,k,1,0.397304800000029,134.34974529999997,None,134.75847359999997,None,,,,,,,,,,,,,,,,,,,,,,,,,,,,,,,,,,,,,,,,15,001,2022_Oct_19_1215,Flanker,2021.2.0,238.5587236154853,
congruent-right.jpg,1,k,right_arrow.png,right_arrow.png,right_arrow.png,right_arrow.png,right_arrow.png,right_arrow.png,right_arrow.png,2,2,14,2,,,,,,,,,,,,,,,,,136.2640251,None,137.2735865,None,137.2735865,None,137.2735865,None,137.2735865,None,137.2735865,None,137.2735865,None,137.2735865,None,k,1,0.482172300000002,137.2735865,None,137.7741455,None,,,,,,,,,,,,,,,,,,,,,,,,,,,,,,,,,,,,,,,,15,001,2022_Oct_19_1215,Flanker,2021.2.0,238.5587236154853,
neutral left,0,a,neutral.png,neutral.png,neutral.png,left_arrow.png,neutral.png,neutral.png,neutral.png,2,3,15,4,,,,,,,,,,,,,,,,,139.2799684,None,140.2891185,None,140.2891185,None,140.2891185,None,140.2891185,None,140.2891185,None,140.2891185,None,140.2891185,None,a,1,0.38669199999998227,140.2891185,None,140.6937237,None,,,,,,,,,,,,,,,,,,,,,,,,,,,,,,,,,,,,,,,,15,001,2022_Oct_19_1215,Flanker,2021.2.0,238.5587236154853,
neutral right,0,k,neutral.png,neutral.png,neutral.png,right_arrow.png,neutral.png,neutral.png,neutral.png,2,4,16,5,,,,,,,,,,,,,,,,,142.1995333,None,143.20487439999997,None,143.20487439999997,None,143.20487439999997,None,143.20487439999997,None,143.20487439999997,None,143.20487439999997,None,143.20487439999997,None,k,1,0.3357399000000214,143.20487439999997,None,143.55535439999997,None,,,,,,,,,,,,,,,,,,,,,,,,,,,,,,,,,,,,,,,,15,001,2022_Oct_19_1215,Flanker,2021.2.0,238.5587236154853,
neutral left,0,a,neutral.png,neutral.png,neutral.png,left_arrow.png,neutral.png,neutral.png,neutral.png,2,5,17,4,,,,,,,,,,,,,,,,,145.0569546,None,146.0662586,None,146.0662586,None,146.0662586,None,146.0662586,None,146.0662586,None,146.0662586,None,146.0662586,None,a,1,0.4345313000000033,146.0662586,None,146.5167231,None,,,,,,,,,,,,,,,,,,,,,,,,,,,,,,,,,,,,,,,,15,001,2022_Oct_19_1215,Flanker,2021.2.0,238.5587236154853,
congruent-left.jpg,1,a,left_arrow.png,left_arrow.png,left_arrow.png,left_arrow.png,left_arrow.png,left_arrow.png,left_arrow.png,3,0,18,0,,,,,,,,,,,,,,,,,148.0223665,None,149.0317674,None,149.0317674,None,149.0317674,None,149.0317674,None,149.0317674,None,149.0317674,None,149.0317674,None,a,1,0.3972694000000274,149.0317674,None,149.4406648,None,,,,,,,,,,,,,,,,,,,,,,,,,,,,,,,,,,,,,,,,15,001,2022_Oct_19_1215,Flanker,2021.2.0,238.5587236154853,
incongruent-left.jpg,0,a,right_arrow.png,right_arrow.png,right_arrow.png,left_arrow.png,right_arrow.png,right_arrow.png,right_arrow.png,3,1,19,1,,,,,,,,,,,,,,,,,150.94651159999998,None,151.9474789,None,151.9474789,None,151.9474789,None,151.9474789,None,151.9474789,None,151.9474789,None,151.9474789,None,a,1,0.4739785000000438,151.9474789,None,152.43958519999998,None,,,,,,,,,,,,,,,,,,,,,,,,,,,,,,,,,,,,,,,,15,001,2022_Oct_19_1215,Flanker,2021.2.0,238.5587236154853,
congruent-right.jpg,1,k,right_arrow.png,right_arrow.png,right_arrow.png,right_arrow.png,right_arrow.png,right_arrow.png,right_arrow.png,3,2,20,2,,,,,,,,,,,,,,,,,153.9412406,None,154.95484050000002,None,154.95484050000002,None,154.95484050000002,None,154.95484050000002,None,154.95484050000002,None,154.95484050000002,None,154.95484050000002,None,k,1,0.42712410000001455,154.95484050000002,None,155.39698,None,,,,,,,,,,,,,,,,,,,,,,,,,,,,,,,,,,,,,,,,15,001,2022_Oct_19_1215,Flanker,2021.2.0,238.5587236154853,
neutral right,0,k,neutral.png,neutral.png,neutral.png,right_arrow.png,neutral.png,neutral.png,neutral.png,3,3,21,5,,,,,,,,,,,,,,,,,156.90261660000002,None,157.9080423,None,157.9080423,None,157.9080423,None,157.9080423,None,157.9080423,None,157.9080423,None,157.9080423,None,k,1,0.4982447000000434,157.9080423,None,158.4252134,None,,,,,,,,,,,,,,,,,,,,,,,,,,,,,,,,,,,,,,,,15,001,2022_Oct_19_1215,Flanker,2021.2.0,238.5587236154853,
incongruent-right.jpg,0,k,left_arrow.png,left_arrow.png,left_arrow.png,right_arrow.png,left_arrow.png,left_arrow.png,left_arrow.png,3,4,22,3,,,,,,,,,,,,,,,,,159.9310351,None,160.9403889,None,160.9403889,None,160.9403889,None,160.9403889,None,160.9403889,None,160.9403889,None,160.9403889,None,k,1,0.4743207999999868,160.9403889,None,161.43264809999997,None,,,,,,,,,,,,,,,,,,,,,,,,,,,,,,,,,,,,,,,,15,001,2022_Oct_19_1215,Flanker,2021.2.0,238.5587236154853,
neutral right,0,k,neutral.png,neutral.png,neutral.png,right_arrow.png,neutral.png,neutral.png,neutral.png,3,5,23,5,,,,,,,,,,,,,,,,,162.9340309,None,163.947733,None,163.947733,None,163.947733,None,163.947733,None,163.947733,None,163.947733,None,163.947733,None,k,1,0.507544600000017,163.947733,None,164.47330159999999,None,,,,,,,,,,,,,,,,,,,,,,,,,,,,,,,,,,,,,,,,15,001,2022_Oct_19_1215,Flanker,2021.2.0,238.5587236154853,
,,,,,,,,,,,,,,,,,,,,,,,,,,,,,,,,,,,,,,,,,,,,,,,,,,,,,165.9915735,None,167.9810482,None,space,15.796712499999956,167.9810482,None,,,,,,,,,,,,,,,,,,,,,,,,,,,,,,,,15,001,2022_Oct_19_1215,Flanker,2021.2.0,238.5587236154853,
neutral right,0,k,neutral.png,neutral.png,neutral.png,right_arrow.png,neutral.png,neutral.png,neutral.png,,,,,0,0,0,5,,,,,,,,,,,,,183.79806390000002,None,,,,,,,,,,,,,,,,,,,,,,,,,,,,,,184.7988963,None,184.7988963,None,184.7988963,None,184.7988963,None,184.7988963,None,184.7988963,None,184.7988963,None,k,1,0.7471245000000408,184.7988963,None,,,,,,,,,,,,,15,001,2022_Oct_19_1215,Flanker,2021.2.0,238.5587236154853,
neutral right,0,k,neutral.png,neutral.png,neutral.png,right_arrow.png,neutral.png,neutral.png,neutral.png,,,,,0,1,1,5,,,,,,,,,,,,,185.55804320000001,None,,,,,,,,,,,,,,,,,,,,,,,,,,,,,,186.56753669999998,None,186.56753669999998,None,186.56753669999998,None,186.56753669999998,None,186.56753669999998,None,186.56753669999998,None,186.56753669999998,None,k,1,0.8589125999999965,186.56753669999998,None,,,,,,,,,,,,,15,001,2022_Oct_19_1215,Flanker,2021.2.0,238.5587236154853,
incongruent-right.jpg,0,k,left_arrow.png,left_arrow.png,left_arrow.png,right_arrow.png,left_arrow.png,left_arrow.png,left_arrow.png,,,,,0,2,2,3,,,,,,,,,,,,,187.44339779999999,None,,,,,,,,,,,,,,,,,,,,,,,,,,,,,,188.4527866,None,188.4527866,None,188.4527866,None,188.4527866,None,188.4527866,None,188.4527866,None,188.4527866,None,k,1,0.4857041999999865,188.4527866,None,,,,,,,,,,,,,15,001,2022_Oct_19_1215,Flanker,2021.2.0,238.5587236154853,
neutral right,0,k,neutral.png,neutral.png,neutral.png,right_arrow.png,neutral.png,neutral.png,neutral.png,,,,,0,3,3,5,,,,,,,,,,,,,188.95347389999998,None,,,,,,,,,,,,,,,,,,,,,,,,,,,,,,189.9670275,None,189.9670275,None,189.9670275,None,189.9670275,None,189.9670275,None,189.9670275,None,189.9670275,None,k,1,0.37163079999999127,189.9670275,None,,,,,,,,,,,,,15,001,2022_Oct_19_1215,Flanker,2021.2.0,238.5587236154853,
congruent-left.jpg,1,a,left_arrow.png,left_arrow.png,left_arrow.png,left_arrow.png,left_arrow.png,left_arrow.png,left_arrow.png,,,,,0,4,4,0,,,,,,,,,,,,,190.35075909999998,None,,,,,,,,,,,,,,,,,,,,,,,,,,,,,,191.36418369999998,None,191.36418369999998,None,191.36418369999998,None,191.36418369999998,None,191.36418369999998,None,191.36418369999998,None,191.36418369999998,None,a,1,0.3906800999999973,191.36418369999998,None,,,,,,,,,,,,,15,001,2022_Oct_19_1215,Flanker,2021.2.0,238.5587236154853,
incongruent-right.jpg,0,k,left_arrow.png,left_arrow.png,left_arrow.png,right_arrow.png,left_arrow.png,left_arrow.png,left_arrow.png,,,,,0,5,5,3,,,,,,,,,,,,,191.77294959999998,None,,,,,,,,,,,,,,,,,,,,,,,,,,,,,,192.7825215,None,192.7825215,None,192.7825215,None,192.7825215,None,192.7825215,None,192.7825215,None,192.7825215,None,k,1,0.4125305999999682,192.7825215,None,,,,,,,,,,,,,15,001,2022_Oct_19_1215,Flanker,2021.2.0,238.5587236154853,
neutral right,0,k,neutral.png,neutral.png,neutral.png,right_arrow.png,neutral.png,neutral.png,neutral.png,,,,,1,0,6,5,,,,,,,,,,,,,193.20820389999997,None,,,,,,,,,,,,,,,,,,,,,,,,,,,,,,194.22139739999997,None,194.22139739999997,None,194.22139739999997,None,194.22139739999997,None,194.22139739999997,None,194.22139739999997,None,194.22139739999997,None,k,1,0.3418498999999997,194.22139739999997,None,,,,,,,,,,,,,15,001,2022_Oct_19_1215,Flanker,2021.2.0,238.5587236154853,
incongruent-left.jpg,0,a,right_arrow.png,right_arrow.png,right_arrow.png,left_arrow.png,right_arrow.png,right_arrow.png,right_arrow.png,,,,,1,1,7,1,,,,,,,,,,,,,194.5801216,None,,,,,,,,,,,,,,,,,,,,,,,,,,,,,,195.5895318,None,195.5895318,None,195.5895318,None,195.5895318,None,195.5895318,None,195.5895318,None,195.5895318,None,a,1,0.4379260000000045,195.5895318,None,,,,,,,,,,,,,15,001,2022_Oct_19_1215,Flanker,2021.2.0,238.5587236154853,
incongruent-left.jpg,0,a,right_arrow.png,right_arrow.png,right_arrow.png,left_arrow.png,right_arrow.png,right_arrow.png,right_arrow.png,,,,,1,2,8,1,,,,,,,,,,,,,196.0403226,None,,,,,,,,,,,,,,,,,,,,,,,,,,,,,,197.0494004,None,197.0494004,None,197.0494004,None,197.0494004,None,197.0494004,None,197.0494004,None,197.0494004,None,a,1,0.43439719999997806,197.0494004,None,,,,,,,,,,,,,15,001,2022_Oct_19_1215,Flanker,2021.2.0,238.5587236154853,
congruent-left.jpg,1,a,left_arrow.png,left_arrow.png,left_arrow.png,left_arrow.png,left_arrow.png,left_arrow.png,left_arrow.png,,,,,1,3,9,0,,,,,,,,,,,,,197.50004019999997,None,,,,,,,,,,,,,,,,,,,,,,,,,,,,,,198.5093505,None,198.5093505,None,198.5093505,None,198.5093505,None,198.5093505,None,198.5093505,None,198.5093505,None,a,1,0.36659040000000687,198.5093505,None,,,,,,,,,,,,,15,001,2022_Oct_19_1215,Flanker,2021.2.0,238.5587236154853,
congruent-right.jpg,1,k,right_arrow.png,right_arrow.png,right_arrow.png,right_arrow.png,right_arrow.png,right_arrow.png,right_arrow.png,,,,,1,4,10,2,,,,,,,,,,,,,198.8930569,None,,,,,,,,,,,,,,,,,,,,,,,,,,,,,,199.9025951,None,199.9025951,None,199.9025951,None,199.9025951,None,199.9025951,None,199.9025951,None,199.9025951,None,k,1,0.4054629000000318,199.9025951,None,,,,,,,,,,,,,15,001,2022_Oct_19_1215,Flanker,2021.2.0,238.5587236154853,
congruent-left.jpg,1,a,left_arrow.png,left_arrow.png,left_arrow.png,left_arrow.png,left_arrow.png,left_arrow.png,left_arrow.png,,,,,1,5,11,0,,,,,,,,,,,,,200.31985319999998,None,,,,,,,,,,,,,,,,,,,,,,,,,,,,,,201.32919409999997,None,201.32919409999997,None,201.32919409999997,None,201.32919409999997,None,201.32919409999997,None,201.32919409999997,None,201.32919409999997,None,a,1,0.33105430000000524,201.32919409999997,None,,,,,,,,,,,,,15,001,2022_Oct_19_1215,Flanker,2021.2.0,238.5587236154853,
congruent-right.jpg,1,k,right_arrow.png,right_arrow.png,right_arrow.png,right_arrow.png,right_arrow.png,right_arrow.png,right_arrow.png,,,,,2,0,12,2,,,,,,,,,,,,,201.67106320000002,None,,,,,,,,,,,,,,,,,,,,,,,,,,,,,,202.68042039999997,None,202.68042039999997,None,202.68042039999997,None,202.68042039999997,None,202.68042039999997,None,202.68042039999997,None,202.68042039999997,None,k,1,0.43605259999998225,202.68042039999997,None,,,,,,,,,,,,,15,001,2022_Oct_19_1215,Flanker,2021.2.0,238.5587236154853,
congruent-left.jpg,1,a,left_arrow.png,left_arrow.png,left_arrow.png,left_arrow.png,left_arrow.png,left_arrow.png,left_arrow.png,,,,,2,1,13,0,,,,,,,,,,,,,203.1308695,None,,,,,,,,,,,,,,,,,,,,,,,,,,,,,,204.14041589999997,None,204.14041589999997,None,204.14041589999997,None,204.14041589999997,None,204.14041589999997,None,204.14041589999997,None,204.14041589999997,None,a,1,0.4722143999999844,204.14041589999997,None,,,,,,,,,,,,,15,001,2022_Oct_19_1215,Flanker,2021.2.0,238.5587236154853,
congruent-right.jpg,1,k,right_arrow.png,right_arrow.png,right_arrow.png,right_arrow.png,right_arrow.png,right_arrow.png,right_arrow.png,,,,,2,2,14,2,,,,,,,,,,,,,204.62440180000002,None,,,,,,,,,,,,,,,,,,,,,,,,,,,,,,205.637682,None,205.637682,None,205.637682,None,205.637682,None,205.637682,None,205.637682,None,205.637682,None,k,1,0.5111515999999483,205.637682,None,,,,,,,,,,,,,15,001,2022_Oct_19_1215,Flanker,2021.2.0,238.5587236154853,
neutral right,0,k,neutral.png,neutral.png,neutral.png,right_arrow.png,neutral.png,neutral.png,neutral.png,,,,,2,3,15,5,,,,,,,,,,,,,206.16326309999997,None,,,,,,,,,,,,,,,,,,,,,,,,,,,,,,207.1768377,None,207.1768377,None,207.1768377,None,207.1768377,None,207.1768377,None,207.1768377,None,207.1768377,None,k,1,0.38820910000004005,207.1768377,None,,,,,,,,,,,,,15,001,2022_Oct_19_1215,Flanker,2021.2.0,238.5587236154853,
neutral left,0,a,neutral.png,neutral.png,neutral.png,left_arrow.png,neutral.png,neutral.png,neutral.png,,,,,2,4,16,4,,,,,,,,,,,,,207.57726219999998,None,,,,,,,,,,,,,,,,,,,,,,,,,,,,,,208.59081419999998,None,208.59081419999998,None,208.59081419999998,None,208.59081419999998,None,208.59081419999998,None,208.59081419999998,None,208.59081419999998,None,a,1,0.4384089000000131,208.59081419999998,None,,,,,,,,,,,,,15,001,2022_Oct_19_1215,Flanker,2021.2.0,238.5587236154853,
congruent-right.jpg,1,k,right_arrow.png,right_arrow.png,right_arrow.png,right_arrow.png,right_arrow.png,right_arrow.png,right_arrow.png,,,,,2,5,17,2,,,,,,,,,,,,,209.0413068,None,,,,,,,,,,,,,,,,,,,,,,,,,,,,,,210.05072119999997,None,210.05072119999997,None,210.05072119999997,None,210.05072119999997,None,210.05072119999997,None,210.05072119999997,None,210.05072119999997,None,k,1,0.41072719999999663,210.05072119999997,None,,,,,,,,,,,,,15,001,2022_Oct_19_1215,Flanker,2021.2.0,238.5587236154853,
congruent-right.jpg,1,k,right_arrow.png,right_arrow.png,right_arrow.png,right_arrow.png,right_arrow.png,right_arrow.png,right_arrow.png,,,,,3,0,18,2,,,,,,,,,,,,,210.47615799999997,None,,,,,,,,,,,,,,,,,,,,,,,,,,,,,,211.48974769999998,None,211.48974769999998,None,211.48974769999998,None,211.48974769999998,None,211.48974769999998,None,211.48974769999998,None,211.48974769999998,None,k,1,0.4198829000000046,211.48974769999998,None,,,,,,,,,,,,,15,001,2022_Oct_19_1215,Flanker,2021.2.0,238.5587236154853,
incongruent-left.jpg,0,a,right_arrow.png,right_arrow.png,right_arrow.png,left_arrow.png,right_arrow.png,right_arrow.png,right_arrow.png,,,,,3,1,19,1,,,,,,,,,,,,,211.9235538,None,,,,,,,,,,,,,,,,,,,,,,,,,,,,,,212.9287684,None,212.9287684,None,212.9287684,None,212.9287684,None,212.9287684,None,212.9287684,None,212.9287684,None,a,1,0.4770816999999852,212.9287684,None,,,,,,,,,,,,,15,001,2022_Oct_19_1215,Flanker,2021.2.0,238.5587236154853,
congruent-right.jpg,1,k,right_arrow.png,right_arrow.png,right_arrow.png,right_arrow.png,right_arrow.png,right_arrow.png,right_arrow.png,,,,,3,2,20,2,,,,,,,,,,,,,213.4210123,None,,,,,,,,,,,,,,,,,,,,,,,,,,,,,,214.43051690000001,None,214.43051690000001,None,214.43051690000001,None,214.43051690000001,None,214.43051690000001,None,214.43051690000001,None,214.43051690000001,None,k,1,0.7275538000000097,214.43051690000001,None,,,,,,,,,,,,,15,001,2022_Oct_19_1215,Flanker,2021.2.0,238.5587236154853,
neutral left,0,a,neutral.png,neutral.png,neutral.png,left_arrow.png,neutral.png,neutral.png,neutral.png,,,,,3,3,21,4,,,,,,,,,,,,,215.17280680000002,None,,,,,,,,,,,,,,,,,,,,,,,,,,,,,,216.18221989999998,None,216.18221989999998,None,216.18221989999998,None,216.18221989999998,None,216.18221989999998,None,216.18221989999998,None,216.18221989999998,None,a,1,0.45611339999999245,216.18221989999998,None,,,,,,,,,,,,,15,001,2022_Oct_19_1215,Flanker,2021.2.0,238.5587236154853,
incongruent-right.jpg,0,k,left_arrow.png,left_arrow.png,left_arrow.png,right_arrow.png,left_arrow.png,left_arrow.png,left_arrow.png,,,,,3,4,22,3,,,,,,,,,,,,,216.6494906,None,,,,,,,,,,,,,,,,,,,,,,,,,,,,,,217.66716929999998,None,217.66716929999998,None,217.66716929999998,None,217.66716929999998,None,217.66716929999998,None,217.66716929999998,None,217.66716929999998,None,k,1,0.44341709999997647,217.66716929999998,None,,,,,,,,,,,,,15,001,2022_Oct_19_1215,Flanker,2021.2.0,238.5587236154853,
incongruent-right.jpg,0,k,left_arrow.png,left_arrow.png,left_arrow.png,right_arrow.png,left_arrow.png,left_arrow.png,left_arrow.png,,,,,3,5,23,3,,,,,,,,,,,,,218.12597529999996,None,,,,,,,,,,,,,,,,,,,,,,,,,,,,,,219.1395333,None,219.1395333,None,219.1395333,None,219.1395333,None,219.1395333,None,219.1395333,None,219.1395333,None,k,1,0.46717579999994996,219.1395333,None,,,,,,,,,,,,,15,001,2022_Oct_19_1215,Flanker,2021.2.0,238.5587236154853,
incongruent-right.jpg,0,k,left_arrow.png,left_arrow.png,left_arrow.png,right_arrow.png,left_arrow.png,left_arrow.png,left_arrow.png,,,,,4,0,24,3,,,,,,,,,,,,,219.6234616,None,,,,,,,,,,,,,,,,,,,,,,,,,,,,,,220.6328043,None,220.6328043,None,220.6328043,None,220.6328043,None,220.6328043,None,220.6328043,None,220.6328043,None,k,1,0.4941226000000256,220.6328043,None,,,,,,,,,,,,,15,001,2022_Oct_19_1215,Flanker,2021.2.0,238.5587236154853,
neutral left,0,a,neutral.png,neutral.png,neutral.png,left_arrow.png,neutral.png,neutral.png,neutral.png,,,,,4,1,25,4,,,,,,,,,,,,,221.1416692,None,,,,,,,,,,,,,,,,,,,,,,,,,,,,,,222.15107049999997,None,222.15107049999997,None,222.15107049999997,None,222.15107049999997,None,222.15107049999997,None,222.15107049999997,None,222.15107049999997,None,a,1,0.44004979999999705,222.15107049999997,None,,,,,,,,,,,,,15,001,2022_Oct_19_1215,Flanker,2021.2.0,238.5587236154853,
neutral left,0,a,neutral.png,neutral.png,neutral.png,left_arrow.png,neutral.png,neutral.png,neutral.png,,,,,4,2,26,4,,,,,,,,,,,,,222.6057992,None,,,,,,,,,,,,,,,,,,,,,,,,,,,,,,223.6110525,None,223.6110525,None,223.6110525,None,223.6110525,None,223.6110525,None,223.6110525,None,223.6110525,None,a,1,0.3642451000000051,223.6110525,None,,,,,,,,,,,,,15,001,2022_Oct_19_1215,Flanker,2021.2.0,238.5587236154853,
congruent-right.jpg,1,k,right_arrow.png,right_arrow.png,right_arrow.png,right_arrow.png,right_arrow.png,right_arrow.png,right_arrow.png,,,,,4,3,27,2,,,,,,,,,,,,,223.98636789999998,None,,,,,,,,,,,,,,,,,,,,,,,,,,,,,,224.9957674,None,224.9957674,None,224.9957674,None,224.9957674,None,224.9957674,None,224.9957674,None,224.9957674,None,k,1,0.4037577000000283,224.9957674,None,,,,,,,,,,,,,15,001,2022_Oct_19_1215,Flanker,2021.2.0,238.5587236154853,
congruent-right.jpg,1,k,right_arrow.png,right_arrow.png,right_arrow.png,right_arrow.png,right_arrow.png,right_arrow.png,right_arrow.png,,,,,4,4,28,2,,,,,,,,,,,,,225.4128744,None,,,,,,,,,,,,,,,,,,,,,,,,,,,,,,226.4264694,None,226.4264694,None,226.4264694,None,226.4264694,None,226.4264694,None,226.4264694,None,226.4264694,None,k,1,0.3812381999999843,226.4264694,None,,,,,,,,,,,,,15,001,2022_Oct_19_1215,Flanker,2021.2.0,238.5587236154853,
congruent-left.jpg,1,a,left_arrow.png,left_arrow.png,left_arrow.png,left_arrow.png,left_arrow.png,left_arrow.png,left_arrow.png,,,,,4,5,29,0,,,,,,,,,,,,,226.82688169999997,None,,,,,,,,,,,,,,,,,,,,,,,,,,,,,,227.83625379999998,None,227.83625379999998,None,227.83625379999998,None,227.83625379999998,None,227.83625379999998,None,227.83625379999998,None,227.83625379999998,None,a,1,0.4036628000000064,227.83625379999998,None,,,,,,,,,,,,,15,001,2022_Oct_19_1215,Flanker,2021.2.0,238.5587236154853,
neutral right,0,k,neutral.png,neutral.png,neutral.png,right_arrow.png,neutral.png,neutral.png,neutral.png,,,,,5,0,30,5,,,,,,,,,,,,,228.2533888,None,,,,,,,,,,,,,,,,,,,,,,,,,,,,,,229.2630063,None,229.2630063,None,229.2630063,None,229.2630063,None,229.2630063,None,229.2630063,None,229.2630063,None,a,0,0.433290799999952,229.2630063,None,,,,,,,,,,,,,15,001,2022_Oct_19_1215,Flanker,2021.2.0,238.5587236154853,
congruent-left.jpg,1,a,left_arrow.png,left_arrow.png,left_arrow.png,left_arrow.png,left_arrow.png,left_arrow.png,left_arrow.png,,,,,5,1,31,0,,,,,,,,,,,,,229.7132553,None,,,,,,,,,,,,,,,,,,,,,,,,,,,,,,230.72681459999998,None,230.72681459999998,None,230.72681459999998,None,230.72681459999998,None,230.72681459999998,None,230.72681459999998,None,230.72681459999998,None,a,1,0.4974588999999696,230.72681459999998,None,,,,,,,,,,,,,15,001,2022_Oct_19_1215,Flanker,2021.2.0,238.5587236154853,
neutral left,0,a,neutral.png,neutral.png,neutral.png,left_arrow.png,neutral.png,neutral.png,neutral.png,,,,,5,2,32,4,,,,,,,,,,,,,231.23572,None,,,,,,,,,,,,,,,,,,,,,,,,,,,,,,232.2534517,None,232.2534517,None,232.2534517,None,232.2534517,None,232.2534517,None,232.2534517,None,232.2534517,None,a,1,0.45106029999999464,232.2534517,None,,,,,,,,,,,,,15,001,2022_Oct_19_1215,Flanker,2021.2.0,238.5587236154853,
incongruent-left.jpg,0,a,right_arrow.png,right_arrow.png,right_arrow.png,left_arrow.png,right_arrow.png,right_arrow.png,right_arrow.png,,,,,5,3,33,1,,,,,,,,,,,,,232.7206379,None,,,,,,,,,,,,,,,,,,,,,,,,,,,,,,233.73426929999997,None,233.73426929999997,None,233.73426929999997,None,233.73426929999997,None,233.73426929999997,None,233.73426929999997,None,233.73426929999997,None,a,1,0.46665899999999283,233.73426929999997,None,,,,,,,,,,,,,15,001,2022_Oct_19_1215,Flanker,2021.2.0,238.5587236154853,
incongruent-right.jpg,0,k,left_arrow.png,left_arrow.png,left_arrow.png,right_arrow.png,left_arrow.png,left_arrow.png,left_arrow.png,,,,,5,4,34,3,,,,,,,,,,,,,234.2183414,None,,,,,,,,,,,,,,,,,,,,,,,,,,,,,,235.2274383,None,235.2274383,None,235.2274383,None,235.2274383,None,235.2274383,None,235.2274383,None,235.2274383,None,k,1,0.4694853999999964,235.2274383,None,,,,,,,,,,,,,15,001,2022_Oct_19_1215,Flanker,2021.2.0,238.5587236154853,
incongruent-left.jpg,0,a,right_arrow.png,right_arrow.png,right_arrow.png,left_arrow.png,right_arrow.png,right_arrow.png,right_arrow.png,,,,,5,5,35,1,,,,,,,,,,,,,235.7113977,None,,,,,,,,,,,,,,,,,,,,,,,,,,,,,,236.72495619999998,None,236.72495619999998,None,236.72495619999998,None,236.72495619999998,None,236.72495619999998,None,236.72495619999998,None,236.72495619999998,None,a,1,0.46816200000000663,236.72495619999998,None,,,,,,,,,,,,,15,001,2022_Oct_19_1215,Flanker,2021.2.0,238.5587236154853,
incongruent-left.jpg,0,a,right_arrow.png,right_arrow.png,right_arrow.png,left_arrow.png,right_arrow.png,right_arrow.png,right_arrow.png,,,,,6,0,36,1,,,,,,,,,,,,,237.2087213,None,,,,,,,,,,,,,,,,,,,,,,,,,,,,,,238.21820089999997,None,238.21820089999997,None,238.21820089999997,None,238.21820089999997,None,238.21820089999997,None,238.21820089999997,None,238.21820089999997,None,a,1,0.4151297000000227,238.21820089999997,None,,,,,,,,,,,,,15,001,2022_Oct_19_1215,Flanker,2021.2.0,238.5587236154853,
congruent-left.jpg,1,a,left_arrow.png,left_arrow.png,left_arrow.png,left_arrow.png,left_arrow.png,left_arrow.png,left_arrow.png,,,,,6,1,37,0,,,,,,,,,,,,,238.6519365,None,,,,,,,,,,,,,,,,,,,,,,,,,,,,,,239.6655195,None,239.6655195,None,239.6655195,None,239.6655195,None,239.6655195,None,239.6655195,None,239.6655195,None,a,1,0.3760085999999774,239.6655195,None,,,,,,,,,,,,,15,001,2022_Oct_19_1215,Flanker,2021.2.0,238.5587236154853,
incongruent-right.jpg,0,k,left_arrow.png,left_arrow.png,left_arrow.png,right_arrow.png,left_arrow.png,left_arrow.png,left_arrow.png,,,,,6,2,38,3,,,,,,,,,,,,,240.05758690000002,None,,,,,,,,,,,,,,,,,,,,,,,,,,,,,,241.0667546,None,241.0667546,None,241.0667546,None,241.0667546,None,241.0667546,None,241.0667546,None,241.0667546,None,k,1,0.48697249999997894,241.0667546,None,,,,,,,,,,,,,15,001,2022_Oct_19_1215,Flanker,2021.2.0,238.5587236154853,
neutral right,0,k,neutral.png,neutral.png,neutral.png,right_arrow.png,neutral.png,neutral.png,neutral.png,,,,,6,3,39,5,,,,,,,,,,,,,241.5675027,None,,,,,,,,,,,,,,,,,,,,,,,,,,,,,,242.5772183,None,242.5772183,None,242.5772183,None,242.5772183,None,242.5772183,None,242.5772183,None,242.5772183,None,k,1,0.4166917000000012,242.5772183,None,,,,,,,,,,,,,15,001,2022_Oct_19_1215,Flanker,2021.2.0,238.5587236154853,
incongruent-left.jpg,0,a,right_arrow.png,right_arrow.png,right_arrow.png,left_arrow.png,right_arrow.png,right_arrow.png,right_arrow.png,,,,,6,4,40,1,,,,,,,,,,,,,243.01078599999997,None,,,,,,,,,,,,,,,,,,,,,,,,,,,,,,244.0204327,None,244.0204327,None,244.0204327,None,244.0204327,None,244.0204327,None,244.0204327,None,244.0204327,None,a,1,0.4776893999999743,244.0204327,None,,,,,,,,,,,,,15,001,2022_Oct_19_1215,Flanker,2021.2.0,238.5587236154853,
congruent-left.jpg,1,a,left_arrow.png,left_arrow.png,left_arrow.png,left_arrow.png,left_arrow.png,left_arrow.png,left_arrow.png,,,,,6,5,41,0,,,,,,,,,,,,,244.5123265,None,,,,,,,,,,,,,,,,,,,,,,,,,,,,,,245.5258813,None,245.5258813,None,245.5258813,None,245.5258813,None,245.5258813,None,245.5258813,None,245.5258813,None,a,1,0.4284461999999962,245.5258813,None,,,,,,,,,,,,,15,001,2022_Oct_19_1215,Flanker,2021.2.0,238.5587236154853,
neutral left,0,a,neutral.png,neutral.png,neutral.png,left_arrow.png,neutral.png,neutral.png,neutral.png,,,,,7,0,42,4,,,,,,,,,,,,,245.96810589999998,None,,,,,,,,,,,,,,,,,,,,,,,,,,,,,,246.9774227,None,246.9774227,None,246.9774227,None,246.9774227,None,246.9774227,None,246.9774227,None,246.9774227,None,a,1,0.37711860000001707,246.9774227,None,,,,,,,,,,,,,15,001,2022_Oct_19_1215,Flanker,2021.2.0,238.5587236154853,
neutral left,0,a,neutral.png,neutral.png,neutral.png,left_arrow.png,neutral.png,neutral.png,neutral.png,,,,,7,1,43,4,,,,,,,,,,,,,247.3695322,None,,,,,,,,,,,,,,,,,,,,,,,,,,,,,,248.3832181,None,248.3832181,None,248.3832181,None,248.3832181,None,248.3832181,None,248.3832181,None,248.3832181,None,a,1,0.3794834999999921,248.3832181,None,,,,,,,,,,,,,15,001,2022_Oct_19_1215,Flanker,2021.2.0,238.5587236154853,
incongruent-right.jpg,0,k,left_arrow.png,left_arrow.png,left_arrow.png,right_arrow.png,left_arrow.png,left_arrow.png,left_arrow.png,,,,,7,2,44,3,,,,,,,,,,,,,248.7751757,None,,,,,,,,,,,,,,,,,,,,,,,,,,,,,,249.7887496,None,249.7887496,None,249.7887496,None,249.7887496,None,249.7887496,None,249.7887496,None,249.7887496,None,k,1,0.4861758999999779,249.7887496,None,,,,,,,,,,,,,15,001,2022_Oct_19_1215,Flanker,2021.2.0,238.5587236154853,
neutral left,0,a,neutral.png,neutral.png,neutral.png,left_arrow.png,neutral.png,neutral.png,neutral.png,,,,,7,3,45,4,,,,,,,,,,,,,250.28933809999998,None,,,,,,,,,,,,,,,,,,,,,,,,,,,,,,251.2989972,None,251.2989972,None,251.2989972,None,251.2989972,None,251.2989972,None,251.2989972,None,251.2989972,None,a,1,0.6881511000000273,251.2989972,None,,,,,,,,,,,,,15,001,2022_Oct_19_1215,Flanker,2021.2.0,238.5587236154853,
neutral right,0,k,neutral.png,neutral.png,neutral.png,right_arrow.png,neutral.png,neutral.png,neutral.png,,,,,7,4,46,5,,,,,,,,,,,,,251.99943799999997,None,,,,,,,,,,,,,,,,,,,,,,,,,,,,,,253.01298269999998,None,253.01298269999998,None,253.01298269999998,None,253.01298269999998,None,253.01298269999998,None,253.01298269999998,None,253.01298269999998,None,k,1,0.462418600000035,253.01298269999998,None,,,,,,,,,,,,,15,001,2022_Oct_19_1215,Flanker,2021.2.0,238.5587236154853,
incongruent-left.jpg,0,a,right_arrow.png,right_arrow.png,right_arrow.png,left_arrow.png,right_arrow.png,right_arrow.png,right_arrow.png,,,,,7,5,47,1,,,,,,,,,,,,,253.48852509999998,None,,,,,,,,,,,,,,,,,,,,,,,,,,,,,,254.5020825,None,254.5020825,None,254.5020825,None,254.5020825,None,254.5020825,None,254.5020825,None,254.5020825,None,a,1,0.43750589999996237,254.5020825,None,,,,,,,,,,,,,15,001,2022_Oct_19_1215,Flanker,2021.2.0,238.5587236154853,
,,,,,,,,,,,,,,,,,,,,,,,,,,,,,,,,,,,,,,,,,,,,,,,,,,,,,,,,,,,,,,,,,,,,,,,,,,,,,,,,254.9651183,None,space,5.503214700000001,254.9651183,None,,,,,,,15,001,2022_Oct_19_1215,Flanker,2021.2.0,238.5587236154853,
incongruent-right.jpg,0,k,left_arrow.png,left_arrow.png,left_arrow.png,right_arrow.png,left_arrow.png,left_arrow.png,left_arrow.png,,,,,,,,,0,0,0,3,,,,,,,,,260.4959722,None,,,,,,,,,,,,,,,,,,,,,,,,,,,,,,261.5011753,None,261.5011753,None,261.5011753,None,261.5011753,None,261.5011753,None,261.5011753,None,261.5011753,None,k,1,0.6393968999999515,261.5011753,None,,,,,,,,,,,,,15,001,2022_Oct_19_1215,Flanker,2021.2.0,238.5587236154853,
congruent-right.jpg,1,k,right_arrow.png,right_arrow.png,right_arrow.png,right_arrow.png,right_arrow.png,right_arrow.png,right_arrow.png,,,,,,,,,0,1,1,2,,,,,,,,,262.1519059,None,,,,,,,,,,,,,,,,,,,,,,,,,,,,,,263.16582719999997,None,263.16582719999997,None,263.16582719999997,None,263.16582719999997,None,263.16582719999997,None,263.16582719999997,None,263.16582719999997,None,k,1,0.43090530000000626,263.16582719999997,None,,,,,,,,,,,,,15,001,2022_Oct_19_1215,Flanker,2021.2.0,238.5587236154853,
incongruent-right.jpg,0,k,left_arrow.png,left_arrow.png,left_arrow.png,right_arrow.png,left_arrow.png,left_arrow.png,left_arrow.png,,,,,,,,,0,2,2,3,,,,,,,,,263.6160601,None,,,,,,,,,,,,,,,,,,,,,,,,,,,,,,264.62544389999994,None,264.62544389999994,None,264.62544389999994,None,264.62544389999994,None,264.62544389999994,None,264.62544389999994,None,264.62544389999994,None,k,1,0.42750350000000026,264.62544389999994,None,,,,,,,,,,,,,15,001,2022_Oct_19_1215,Flanker,2021.2.0,238.5587236154853,
neutral right,0,k,neutral.png,neutral.png,neutral.png,right_arrow.png,neutral.png,neutral.png,neutral.png,,,,,,,,,0,3,3,5,,,,,,,,,265.06777220000004,None,,,,,,,,,,,,,,,,,,,,,,,,,,,,,,266.0768805,None,266.0768805,None,266.0768805,None,266.0768805,None,266.0768805,None,266.0768805,None,266.0768805,None,k,1,0.32825120000001107,266.0768805,None,,,,,,,,,,,,,15,001,2022_Oct_19_1215,Flanker,2021.2.0,238.5587236154853,
congruent-left.jpg,1,a,left_arrow.png,left_arrow.png,left_arrow.png,left_arrow.png,left_arrow.png,left_arrow.png,left_arrow.png,,,,,,,,,0,4,4,0,,,,,,,,,266.4189212,None,,,,,,,,,,,,,,,,,,,,,,,,,,,,,,267.4324682,None,267.4324682,None,267.4324682,None,267.4324682,None,267.4324682,None,267.4324682,None,267.4324682,None,a,1,0.42087449999996807,267.4324682,None,,,,,,,,,,,,,15,001,2022_Oct_19_1215,Flanker,2021.2.0,238.5587236154853,
neutral left,0,a,neutral.png,neutral.png,neutral.png,left_arrow.png,neutral.png,neutral.png,neutral.png,,,,,,,,,0,5,5,4,,,,,,,,,267.8663546,None,,,,,,,,,,,,,,,,,,,,,,,,,,,,,,268.88007229999994,None,268.88007229999994,None,268.88007229999994,None,268.88007229999994,None,268.88007229999994,None,268.88007229999994,None,268.88007229999994,None,a,1,0.4214542999999935,268.88007229999994,None,,,,,,,,,,,,,15,001,2022_Oct_19_1215,Flanker,2021.2.0,238.5587236154853,
congruent-left.jpg,1,a,left_arrow.png,left_arrow.png,left_arrow.png,left_arrow.png,left_arrow.png,left_arrow.png,left_arrow.png,,,,,,,,,1,0,6,0,,,,,,,,,269.31395050000003,None,,,,,,,,,,,,,,,,,,,,,,,,,,,,,,270.32304609999994,None,270.32304609999994,None,270.32304609999994,None,270.32304609999994,None,270.32304609999994,None,270.32304609999994,None,270.32304609999994,None,a,1,0.37089389999999867,270.32304609999994,None,,,,,,,,,,,,,15,001,2022_Oct_19_1215,Flanker,2021.2.0,238.5587236154853,
congruent-right.jpg,1,k,right_arrow.png,right_arrow.png,right_arrow.png,right_arrow.png,right_arrow.png,right_arrow.png,right_arrow.png,,,,,,,,,1,1,7,2,,,,,,,,,270.7112508,None,,,,,,,,,,,,,,,,,,,,,,,,,,,,,,271.72468200000003,None,271.72468200000003,None,271.72468200000003,None,271.72468200000003,None,271.72468200000003,None,271.72468200000003,None,271.72468200000003,None,k,1,0.4333495000000198,271.72468200000003,None,,,,,,,,,,,,,15,001,2022_Oct_19_1215,Flanker,2021.2.0,238.5587236154853,
congruent-right.jpg,1,k,right_arrow.png,right_arrow.png,right_arrow.png,right_arrow.png,right_arrow.png,right_arrow.png,right_arrow.png,,,,,,,,,1,2,8,2,,,,,,,,,272.1750124,None,,,,,,,,,,,,,,,,,,,,,,,,,,,,,,273.1929037,None,273.1929037,None,273.1929037,None,273.1929037,None,273.1929037,None,273.1929037,None,273.1929037,None,k,1,0.4455669000000171,273.1929037,None,,,,,,,,,,,,,15,001,2022_Oct_19_1215,Flanker,2021.2.0,238.5587236154853,
neutral left,0,a,neutral.png,neutral.png,neutral.png,left_arrow.png,neutral.png,neutral.png,neutral.png,,,,,,,,,1,3,9,4,,,,,,,,,273.65172359999997,None,,,,,,,,,,,,,,,,,,,,,,,,,,,,,,274.66546170000004,None,274.66546170000004,None,274.66546170000004,None,274.66546170000004,None,274.66546170000004,None,274.66546170000004,None,274.66546170000004,None,a,1,0.5168648000000076,274.66546170000004,None,,,,,,,,,,,,,15,001,2022_Oct_19_1215,Flanker,2021.2.0,238.5587236154853,
neutral right,0,k,neutral.png,neutral.png,neutral.png,right_arrow.png,neutral.png,neutral.png,neutral.png,,,,,,,,,1,4,10,5,,,,,,,,,275.1990512,None,,,,,,,,,,,,,,,,,,,,,,,,,,,,,,276.21275330000003,None,276.21275330000003,None,276.21275330000003,None,276.21275330000003,None,276.21275330000003,None,276.21275330000003,None,276.21275330000003,None,k,1,0.425830000000019,276.21275330000003,None,,,,,,,,,,,,,15,001,2022_Oct_19_1215,Flanker,2021.2.0,238.5587236154853,
neutral left,0,a,neutral.png,neutral.png,neutral.png,left_arrow.png,neutral.png,neutral.png,neutral.png,,,,,,,,,1,5,11,4,,,,,,,,,276.6547508,None,,,,,,,,,,,,,,,,,,,,,,,,,,,,,,277.6684854,None,277.6684854,None,277.6684854,None,277.6684854,None,277.6684854,None,277.6684854,None,277.6684854,None,a,1,0.8183484000000476,277.6684854,None,,,,,,,,,,,,,15,001,2022_Oct_19_1215,Flanker,2021.2.0,238.5587236154853,
congruent-right.jpg,1,k,right_arrow.png,right_arrow.png,right_arrow.png,right_arrow.png,right_arrow.png,right_arrow.png,right_arrow.png,,,,,,,,,2,0,12,2,,,,,,,,,278.5028774,None,,,,,,,,,,,,,,,,,,,,,,,,,,,,,,279.5119604,None,279.5119604,None,279.5119604,None,279.5119604,None,279.5119604,None,279.5119604,None,279.5119604,None,k,1,0.5510368000000199,279.5119604,None,,,,,,,,,,,,,15,001,2022_Oct_19_1215,Flanker,2021.2.0,238.5587236154853,
neutral left,0,a,neutral.png,neutral.png,neutral.png,left_arrow.png,neutral.png,neutral.png,neutral.png,,,,,,,,,2,1,13,4,,,,,,,,,280.0792371,None,,,,,,,,,,,,,,,,,,,,,,,,,,,,,,281.0928017,None,281.0928017,None,281.0928017,None,281.0928017,None,281.0928017,None,281.0928017,None,281.0928017,None,a,1,0.41841120000003684,281.0928017,None,,,,,,,,,,,,,15,001,2022_Oct_19_1215,Flanker,2021.2.0,238.5587236154853,
congruent-right.jpg,1,k,right_arrow.png,right_arrow.png,right_arrow.png,right_arrow.png,right_arrow.png,right_arrow.png,right_arrow.png,,,,,,,,,2,2,14,2,,,,,,,,,281.52661639999997,None,,,,,,,,,,,,,,,,,,,,,,,,,,,,,,282.54020060000005,None,282.54020060000005,None,282.54020060000005,None,282.54020060000005,None,282.54020060000005,None,282.54020060000005,None,282.54020060000005,None,k,1,0.40321159999996325,282.54020060000005,None,,,,,,,,,,,,,15,001,2022_Oct_19_1215,Flanker,2021.2.0,238.5587236154853,
incongruent-right.jpg,0,k,left_arrow.png,left_arrow.png,left_arrow.png,right_arrow.png,left_arrow.png,left_arrow.png,left_arrow.png,,,,,,,,,2,3,15,3,,,,,,,,,282.95743730000004,None,,,,,,,,,,,,,,,,,,,,,,,,,,,,,,283.97085559999994,None,283.97085559999994,None,283.97085559999994,None,283.97085559999994,None,283.97085559999994,None,283.97085559999994,None,283.97085559999994,None,k,1,0.460759400000029,283.97085559999994,None,,,,,,,,,,,,,15,001,2022_Oct_19_1215,Flanker,2021.2.0,238.5587236154853,
congruent-left.jpg,1,a,left_arrow.png,left_arrow.png,left_arrow.png,left_arrow.png,left_arrow.png,left_arrow.png,left_arrow.png,,,,,,,,,2,4,16,0,,,,,,,,,284.4463859,None,,,,,,,,,,,,,,,,,,,,,,,,,,,,,,285.4515858,None,285.4515858,None,285.4515858,None,285.4515858,None,285.4515858,None,285.4515858,None,285.4515858,None,a,1,0.404238399999997,285.4515858,None,,,,,,,,,,,,,15,001,2022_Oct_19_1215,Flanker,2021.2.0,238.5587236154853,
congruent-right.jpg,1,k,right_arrow.png,right_arrow.png,right_arrow.png,right_arrow.png,right_arrow.png,right_arrow.png,right_arrow.png,,,,,,,,,2,5,17,2,,,,,,,,,285.8687919,None,,,,,,,,,,,,,,,,,,,,,,,,,,,,,,286.87826670000004,None,286.87826670000004,None,286.87826670000004,None,286.87826670000004,None,286.87826670000004,None,286.87826670000004,None,286.87826670000004,None,k,1,0.4257704000000331,286.87826670000004,None,,,,,,,,,,,,,15,001,2022_Oct_19_1215,Flanker,2021.2.0,238.5587236154853,
neutral right,0,k,neutral.png,neutral.png,neutral.png,right_arrow.png,neutral.png,neutral.png,neutral.png,,,,,,,,,3,0,18,5,,,,,,,,,287.3205583,None,,,,,,,,,,,,,,,,,,,,,,,,,,,,,,288.3338497,None,288.3338497,None,288.3338497,None,288.3338497,None,288.3338497,None,288.3338497,None,288.3338497,None,k,1,0.4106907999999976,288.3338497,None,,,,,,,,,,,,,15,001,2022_Oct_19_1215,Flanker,2021.2.0,238.5587236154853,
neutral left,0,a,neutral.png,neutral.png,neutral.png,left_arrow.png,neutral.png,neutral.png,neutral.png,,,,,,,,,3,1,19,4,,,,,,,,,288.75959220000004,None,,,,,,,,,,,,,,,,,,,,,,,,,,,,,,289.76870669999994,None,289.76870669999994,None,289.76870669999994,None,289.76870669999994,None,289.76870669999994,None,289.76870669999994,None,289.76870669999994,None,a,1,0.3998377000000346,289.76870669999994,None,,,,,,,,,,,,,15,001,2022_Oct_19_1215,Flanker,2021.2.0,238.5587236154853,
neutral right,0,k,neutral.png,neutral.png,neutral.png,right_arrow.png,neutral.png,neutral.png,neutral.png,,,,,,,,,3,2,20,5,,,,,,,,,290.1858817,None,,,,,,,,,,,,,,,,,,,,,,,,,,,,,,291.1995101,None,291.1995101,None,291.1995101,None,291.1995101,None,291.1995101,None,291.1995101,None,291.1995101,None,k,1,0.4170930999999882,291.1995101,None,,,,,,,,,,,,,15,001,2022_Oct_19_1215,Flanker,2021.2.0,238.5587236154853,
neutral right,0,k,neutral.png,neutral.png,neutral.png,right_arrow.png,neutral.png,neutral.png,neutral.png,,,,,,,,,3,3,21,5,,,,,,,,,291.6332731,None,,,,,,,,,,,,,,,,,,,,,,,,,,,,,,292.64257280000004,None,292.64257280000004,None,292.64257280000004,None,292.64257280000004,None,292.64257280000004,None,292.64257280000004,None,292.64257280000004,None,k,1,0.43821200000002136,292.64257280000004,None,,,,,,,,,,,,,15,001,2022_Oct_19_1215,Flanker,2021.2.0,238.5587236154853,
incongruent-right.jpg,0,k,left_arrow.png,left_arrow.png,left_arrow.png,right_arrow.png,left_arrow.png,left_arrow.png,left_arrow.png,,,,,,,,,3,4,22,3,,,,,,,,,293.0931636,None,,,,,,,,,,,,,,,,,,,,,,,,,,,,,,294.11080660000005,None,294.11080660000005,None,294.11080660000005,None,294.11080660000005,None,294.11080660000005,None,294.11080660000005,None,294.11080660000005,None,k,1,0.45020379999999705,294.11080660000005,None,,,,,,,,,,,,,15,001,2022_Oct_19_1215,Flanker,2021.2.0,238.5587236154853,
neutral right,0,k,neutral.png,neutral.png,neutral.png,right_arrow.png,neutral.png,neutral.png,neutral.png,,,,,,,,,3,5,23,5,,,,,,,,,294.578214,None,,,,,,,,,,,,,,,,,,,,,,,,,,,,,,295.59154809999995,None,295.59154809999995,None,295.59154809999995,None,295.59154809999995,None,295.59154809999995,None,295.59154809999995,None,295.59154809999995,None,k,1,0.38567030000001523,295.59154809999995,None,,,,,,,,,,,,,15,001,2022_Oct_19_1215,Flanker,2021.2.0,238.5587236154853,
congruent-left.jpg,1,a,left_arrow.png,left_arrow.png,left_arrow.png,left_arrow.png,left_arrow.png,left_arrow.png,left_arrow.png,,,,,,,,,4,0,24,0,,,,,,,,,295.99197889999994,None,,,,,,,,,,,,,,,,,,,,,,,,,,,,,,297.00137340000003,None,297.00137340000003,None,297.00137340000003,None,297.00137340000003,None,297.00137340000003,None,297.00137340000003,None,297.00137340000003,None,a,1,0.44805470000000014,297.00137340000003,None,,,,,,,,,,,,,15,001,2022_Oct_19_1215,Flanker,2021.2.0,238.5587236154853,
incongruent-left.jpg,0,a,right_arrow.png,right_arrow.png,right_arrow.png,left_arrow.png,right_arrow.png,right_arrow.png,right_arrow.png,,,,,,,,,4,1,25,1,,,,,,,,,297.46437919999994,None,,,,,,,,,,,,,,,,,,,,,,,,,,,,,,298.46968300000003,None,298.46968300000003,None,298.46968300000003,None,298.46968300000003,None,298.46968300000003,None,298.46968300000003,None,298.46968300000003,None,a,1,0.5479076999999961,298.46968300000003,None,,,,,,,,,,,,,15,001,2022_Oct_19_1215,Flanker,2021.2.0,238.5587236154853,
incongruent-left.jpg,0,a,right_arrow.png,right_arrow.png,right_arrow.png,left_arrow.png,right_arrow.png,right_arrow.png,right_arrow.png,,,,,,,,,4,2,26,1,,,,,,,,,299.0288408,None,,,,,,,,,,,,,,,,,,,,,,,,,,,,,,300.04224309999995,None,300.04224309999995,None,300.04224309999995,None,300.04224309999995,None,300.04224309999995,None,300.04224309999995,None,300.04224309999995,None,a,1,0.4475932999999941,300.04224309999995,None,,,,,,,,,,,,,15,001,2022_Oct_19_1215,Flanker,2021.2.0,238.5587236154853,
incongruent-right.jpg,0,k,left_arrow.png,left_arrow.png,left_arrow.png,right_arrow.png,left_arrow.png,left_arrow.png,left_arrow.png,,,,,,,,,4,3,27,3,,,,,,,,,300.500907,None,,,,,,,,,,,,,,,,,,,,,,,,,,,,,,301.5146323,None,301.5146323,None,301.5146323,None,301.5146323,None,301.5146323,None,301.5146323,None,301.5146323,None,k,1,0.4393876999999975,301.5146323,None,,,,,,,,,,,,,15,001,2022_Oct_19_1215,Flanker,2021.2.0,238.5587236154853,
incongruent-right.jpg,0,k,left_arrow.png,left_arrow.png,left_arrow.png,right_arrow.png,left_arrow.png,left_arrow.png,left_arrow.png,,,,,,,,,4,4,28,3,,,,,,,,,301.96536189999995,None,,,,,,,,,,,,,,,,,,,,,,,,,,,,,,302.9827331,None,302.9827331,None,302.9827331,None,302.9827331,None,302.9827331,None,302.9827331,None,302.9827331,None,k,1,0.41152319999997644,302.9827331,None,,,,,,,,,,,,,15,001,2022_Oct_19_1215,Flanker,2021.2.0,238.5587236154853,
neutral left,0,a,neutral.png,neutral.png,neutral.png,left_arrow.png,neutral.png,neutral.png,neutral.png,,,,,,,,,4,5,29,4,,,,,,,,,303.40817789999994,None,,,,,,,,,,,,,,,,,,,,,,,,,,,,,,304.42175510000004,None,304.42175510000004,None,304.42175510000004,None,304.42175510000004,None,304.42175510000004,None,304.42175510000004,None,304.42175510000004,None,a,1,0.40466599999996333,304.42175510000004,None,,,,,,,,,,,,,15,001,2022_Oct_19_1215,Flanker,2021.2.0,238.5587236154853,
congruent-left.jpg,1,a,left_arrow.png,left_arrow.png,left_arrow.png,left_arrow.png,left_arrow.png,left_arrow.png,left_arrow.png,,,,,,,,,5,0,30,0,,,,,,,,,304.83886699999994,None,,,,,,,,,,,,,,,,,,,,,,,,,,,,,,305.8525691,None,305.8525691,None,305.8525691,None,305.8525691,None,305.8525691,None,305.8525691,None,305.8525691,None,a,1,0.4380590999999754,305.8525691,None,,,,,,,,,,,,,15,001,2022_Oct_19_1215,Flanker,2021.2.0,238.5587236154853,
congruent-left.jpg,1,a,left_arrow.png,left_arrow.png,left_arrow.png,left_arrow.png,left_arrow.png,left_arrow.png,left_arrow.png,,,,,,,,,5,1,31,0,,,,,,,,,306.30291869999996,None,,,,,,,,,,,,,,,,,,,,,,,,,,,,,,307.3164881,None,307.3164881,None,307.3164881,None,307.3164881,None,307.3164881,None,307.3164881,None,307.3164881,None,a,1,0.3903822000000332,307.3164881,None,,,,,,,,,,,,,15,001,2022_Oct_19_1215,Flanker,2021.2.0,238.5587236154853,
neutral left,0,a,neutral.png,neutral.png,neutral.png,left_arrow.png,neutral.png,neutral.png,neutral.png,,,,,,,,,5,2,32,4,,,,,,,,,307.72526170000003,None,,,,,,,,,,,,,,,,,,,,,,,,,,,,,,308.74299240000005,None,308.74299240000005,None,308.74299240000005,None,308.74299240000005,None,308.74299240000005,None,308.74299240000005,None,308.74299240000005,None,a,1,0.3960248000000206,308.74299240000005,None,,,,,,,,,,,,,15,001,2022_Oct_19_1215,Flanker,2021.2.0,238.5587236154853,
incongruent-left.jpg,0,a,right_arrow.png,right_arrow.png,right_arrow.png,left_arrow.png,right_arrow.png,right_arrow.png,right_arrow.png,,,,,,,,,5,3,33,1,,,,,,,,,309.1559555,None,,,,,,,,,,,,,,,,,,,,,,,,,,,,,,310.17376019999995,None,310.17376019999995,None,310.17376019999995,None,310.17376019999995,None,310.17376019999995,None,310.17376019999995,None,310.17376019999995,None,a,1,0.5094760000000065,310.17376019999995,None,,,,,,,,,,,,,15,001,2022_Oct_19_1215,Flanker,2021.2.0,238.5587236154853,
congruent-right.jpg,1,k,right_arrow.png,right_arrow.png,right_arrow.png,right_arrow.png,right_arrow.png,right_arrow.png,right_arrow.png,,,,,,,,,5,4,34,2,,,,,,,,,310.6992043,None,,,,,,,,,,,,,,,,,,,,,,,,,,,,,,311.7087837,None,311.7087837,None,311.7087837,None,311.7087837,None,311.7087837,None,311.7087837,None,311.7087837,None,k,1,0.4386139000000071,311.7087837,None,,,,,,,,,,,,,15,001,2022_Oct_19_1215,Flanker,2021.2.0,238.5587236154853,
congruent-right.jpg,1,k,right_arrow.png,right_arrow.png,right_arrow.png,right_arrow.png,right_arrow.png,right_arrow.png,right_arrow.png,,,,,,,,,5,5,35,2,,,,,,,,,312.15939579999997,None,,,,,,,,,,,,,,,,,,,,,,,,,,,,,,313.16858809999997,None,313.16858809999997,None,313.16858809999997,None,313.16858809999997,None,313.16858809999997,None,313.16858809999997,None,313.16858809999997,None,k,1,0.4271084000000087,313.16858809999997,None,,,,,,,,,,,,,15,001,2022_Oct_19_1215,Flanker,2021.2.0,238.5587236154853,
incongruent-left.jpg,0,a,right_arrow.png,right_arrow.png,right_arrow.png,left_arrow.png,right_arrow.png,right_arrow.png,right_arrow.png,,,,,,,,,6,0,36,1,,,,,,,,,313.6106787,None,,,,,,,,,,,,,,,,,,,,,,,,,,,,,,314.62026519999995,None,314.62026519999995,None,314.62026519999995,None,314.62026519999995,None,314.62026519999995,None,314.62026519999995,None,314.62026519999995,None,a,1,0.44754640000002155,314.62026519999995,None,,,,,,,,,,,,,15,001,2022_Oct_19_1215,Flanker,2021.2.0,238.5587236154853,
neutral right,0,k,neutral.png,neutral.png,neutral.png,right_arrow.png,neutral.png,neutral.png,neutral.png,,,,,,,,,6,1,37,5,,,,,,,,,315.087318,None,,,,,,,,,,,,,,,,,,,,,,,,,,,,,,316.10095249999995,None,316.10095249999995,None,316.10095249999995,None,316.10095249999995,None,316.10095249999995,None,316.10095249999995,None,316.10095249999995,None,k,1,0.43108639999996967,316.10095249999995,None,,,,,,,,,,,,,15,001,2022_Oct_19_1215,Flanker,2021.2.0,238.5587236154853,
neutral left,0,a,neutral.png,neutral.png,neutral.png,left_arrow.png,neutral.png,neutral.png,neutral.png,,,,,,,,,6,2,38,4,,,,,,,,,316.5513694,None,,,,,,,,,,,,,,,,,,,,,,,,,,,,,,317.5650646,None,317.5650646,None,317.5650646,None,317.5650646,None,317.5650646,None,317.5650646,None,317.5650646,None,a,1,0.4791564999999878,317.5650646,None,,,,,,,,,,,,,15,001,2022_Oct_19_1215,Flanker,2021.2.0,238.5587236154853,
incongruent-left.jpg,0,a,right_arrow.png,right_arrow.png,right_arrow.png,left_arrow.png,right_arrow.png,right_arrow.png,right_arrow.png,,,,,,,,,6,3,39,1,,,,,,,,,318.057062,None,,,,,,,,,,,,,,,,,,,,,,,,,,,,,,319.066473,None,319.066473,None,319.066473,None,319.066473,None,319.066473,None,319.066473,None,319.066473,None,a,1,0.41796040000002677,319.066473,None,,,,,,,,,,,,,15,001,2022_Oct_19_1215,Flanker,2021.2.0,238.5587236154853,
incongruent-left.jpg,0,a,right_arrow.png,right_arrow.png,right_arrow.png,left_arrow.png,right_arrow.png,right_arrow.png,right_arrow.png,,,,,,,,,6,4,40,1,,,,,,,,,319.5002438,None,,,,,,,,,,,,,,,,,,,,,,,,,,,,,,320.5139898,None,320.5139898,None,320.5139898,None,320.5139898,None,320.5139898,None,320.5139898,None,320.5139898,None,a,1,0.4986300999999571,320.5139898,None,,,,,,,,,,,,,15,001,2022_Oct_19_1215,Flanker,2021.2.0,238.5587236154853,
congruent-left.jpg,1,a,left_arrow.png,left_arrow.png,left_arrow.png,left_arrow.png,left_arrow.png,left_arrow.png,left_arrow.png,,,,,,,,,6,5,41,0,,,,,,,,,321.0312239,None,,,,,,,,,,,,,,,,,,,,,,,,,,,,,,322.04059499999994,None,322.04059499999994,None,322.04059499999994,None,322.04059499999994,None,322.04059499999994,None,322.04059499999994,None,322.04059499999994,None,a,1,0.3642246,322.04059499999994,None,,,,,,,,,,,,,15,001,2022_Oct_19_1215,Flanker,2021.2.0,238.5587236154853,
incongruent-right.jpg,0,k,left_arrow.png,left_arrow.png,left_arrow.png,right_arrow.png,left_arrow.png,left_arrow.png,left_arrow.png,,,,,,,,,7,0,42,3,,,,,,,,,322.4158598,None,,,,,,,,,,,,,,,,,,,,,,,,,,,,,,323.4252427,None,323.4252427,None,323.4252427,None,323.4252427,None,323.4252427,None,323.4252427,None,323.4252427,None,k,1,0.4597927000000368,323.4252427,None,,,,,,,,,,,,,15,001,2022_Oct_19_1215,Flanker,2021.2.0,238.5587236154853,
neutral right,0,k,neutral.png,neutral.png,neutral.png,right_arrow.png,neutral.png,neutral.png,neutral.png,,,,,,,,,7,1,43,5,,,,,,,,,323.90077110000004,None,,,,,,,,,,,,,,,,,,,,,,,,,,,,,,324.91034809999996,None,324.91034809999996,None,324.91034809999996,None,324.91034809999996,None,324.91034809999996,None,324.91034809999996,None,324.91034809999996,None,k,1,0.39089720000004036,324.91034809999996,None,,,,,,,,,,,,,15,001,2022_Oct_19_1215,Flanker,2021.2.0,238.5587236154853,
incongruent-left.jpg,0,a,right_arrow.png,right_arrow.png,right_arrow.png,left_arrow.png,right_arrow.png,right_arrow.png,right_arrow.png,,,,,,,,,7,2,44,1,,,,,,,,,325.3189497999999,None,,,,,,,,,,,,,,,,,,,,,,,,,,,,,,326.3325211,None,326.3325211,None,326.3325211,None,326.3325211,None,326.3325211,None,326.3325211,None,326.3325211,None,a,1,0.5610610999999608,326.3325211,None,,,,,,,,,,,,,15,001,2022_Oct_19_1215,Flanker,2021.2.0,238.5587236154853,
incongruent-right.jpg,0,k,left_arrow.png,left_arrow.png,left_arrow.png,right_arrow.png,left_arrow.png,left_arrow.png,left_arrow.png,,,,,,,,,7,3,45,3,,,,,,,,,326.90813249999997,None,,,,,,,,,,,,,,,,,,,,,,,,,,,,,,327.92182189999994,None,327.92182189999994,None,327.92182189999994,None,327.92182189999994,None,327.92182189999994,None,327.92182189999994,None,327.92182189999994,None,k,1,0.4918427000000065,327.92182189999994,None,,,,,,,,,,,,,15,001,2022_Oct_19_1215,Flanker,2021.2.0,238.5587236154853,
incongruent-left.jpg,0,a,right_arrow.png,right_arrow.png,right_arrow.png,left_arrow.png,right_arrow.png,right_arrow.png,right_arrow.png,,,,,,,,,7,4,46,1,,,,,,,,,328.43057269999997,None,,,,,,,,,,,,,,,,,,,,,,,,,,,,,,329.4442844,None,329.4442844,None,329.4442844,None,329.4442844,None,329.4442844,None,329.4442844,None,329.4442844,None,a,1,0.8499169000000393,329.4442844,None,,,,,,,,,,,,,15,001,2022_Oct_19_1215,Flanker,2021.2.0,238.5587236154853,
congruent-left.jpg,1,a,left_arrow.png,left_arrow.png,left_arrow.png,left_arrow.png,left_arrow.png,left_arrow.png,left_arrow.png,,,,,,,,,7,5,47,0,,,,,,,,,330.3117621,None,,,,,,,,,,,,,,,,,,,,,,,,,,,,,,331.32554619999996,None,331.32554619999996,None,331.32554619999996,None,331.32554619999996,None,331.32554619999996,None,331.32554619999996,None,331.32554619999996,None,a,1,0.43271500000003016,331.32554619999996,None,,,,,,,,,,,,,15,001,2022_Oct_19_1215,Flanker,2021.2.0,238.5587236154853,
,,,,,,,,,,,,,,,,,,,,,,,,,,,,,,,,,,,,,,,,,,,,,,,,,,,,,,,,,,,,,,,,,,,,,,,,,,,,,,,,331.7842281999999,None,space,3.9984439999999495,331.7842281999999,None,,,,,,,15,001,2022_Oct_19_1215,Flanker,2021.2.0,238.5587236154853,
incongruent-right.jpg,0,k,left_arrow.png,left_arrow.png,left_arrow.png,right_arrow.png,left_arrow.png,left_arrow.png,left_arrow.png,,,,,,,,,,,,,0,0,0,3,,,,,335.80548769999996,None,,,,,,,,,,,,,,,,,,,,,,,,,,,,,,336.8102593,None,336.8102593,None,336.8102593,None,336.8102593,None,336.8102593,None,336.8102593,None,336.8102593,None,k,1,0.604623800000013,336.8102593,None,,,,,,,,,,,,,15,001,2022_Oct_19_1215,Flanker,2021.2.0,238.5587236154853,
neutral left,0,a,neutral.png,neutral.png,neutral.png,left_arrow.png,neutral.png,neutral.png,neutral.png,,,,,,,,,,,,,0,1,1,4,,,,,337.4276967999999,None,,,,,,,,,,,,,,,,,,,,,,,,,,,,,,338.44124239999996,None,338.44124239999996,None,338.44124239999996,None,338.44124239999996,None,338.44124239999996,None,338.44124239999996,None,338.44124239999996,None,a,1,0.40584339999998065,338.44124239999996,None,,,,,,,,,,,,,15,001,2022_Oct_19_1215,Flanker,2021.2.0,238.5587236154853,
congruent-right.jpg,1,k,right_arrow.png,right_arrow.png,right_arrow.png,right_arrow.png,right_arrow.png,right_arrow.png,right_arrow.png,,,,,,,,,,,,,0,2,2,2,,,,,338.8668914,None,,,,,,,,,,,,,,,,,,,,,,,,,,,,,,339.8802396,None,339.8802396,None,339.8802396,None,339.8802396,None,339.8802396,None,339.8802396,None,339.8802396,None,k,1,0.43106760000000577,339.8802396,None,,,,,,,,,,,,,15,001,2022_Oct_19_1215,Flanker,2021.2.0,238.5587236154853,
neutral right,0,k,neutral.png,neutral.png,neutral.png,right_arrow.png,neutral.png,neutral.png,neutral.png,,,,,,,,,,,,,0,3,3,5,,,,,340.3307039,None,,,,,,,,,,,,,,,,,,,,,,,,,,,,,,341.3485442,None,341.3485442,None,341.3485442,None,341.3485442,None,341.3485442,None,341.3485442,None,341.3485442,None,k,1,0.45097649999991063,341.3485442,None,,,,,,,,,,,,,15,001,2022_Oct_19_1215,Flanker,2021.2.0,238.5587236154853,
congruent-right.jpg,1,k,right_arrow.png,right_arrow.png,right_arrow.png,right_arrow.png,right_arrow.png,right_arrow.png,right_arrow.png,,,,,,,,,,,,,0,4,4,2,,,,,341.81561669999996,None,,,,,,,,,,,,,,,,,,,,,,,,,,,,,,342.8291947,None,342.8291947,None,342.8291947,None,342.8291947,None,342.8291947,None,342.8291947,None,342.8291947,None,k,1,0.4585298000000648,342.8291947,None,,,,,,,,,,,,,15,001,2022_Oct_19_1215,Flanker,2021.2.0,238.5587236154853,
congruent-right.jpg,1,k,right_arrow.png,right_arrow.png,right_arrow.png,right_arrow.png,right_arrow.png,right_arrow.png,right_arrow.png,,,,,,,,,,,,,0,5,5,2,,,,,343.3047547,None,,,,,,,,,,,,,,,,,,,,,,,,,,,,,,344.3182802,None,344.3182802,None,344.3182802,None,344.3182802,None,344.3182802,None,344.3182802,None,344.3182802,None,k,1,0.47362680000003365,344.3182802,None,,,,,,,,,,,,,15,001,2022_Oct_19_1215,Flanker,2021.2.0,238.5587236154853,
incongruent-right.jpg,0,k,left_arrow.png,left_arrow.png,left_arrow.png,right_arrow.png,left_arrow.png,left_arrow.png,left_arrow.png,,,,,,,,,,,,,1,0,6,3,,,,,344.81070569999997,None,,,,,,,,,,,,,,,,,,,,,,,,,,,,,,345.8199208,None,345.8199208,None,345.8199208,None,345.8199208,None,345.8199208,None,345.8199208,None,345.8199208,None,k,1,0.5002151999999569,345.8199208,None,,,,,,,,,,,,,15,001,2022_Oct_19_1215,Flanker,2021.2.0,238.5587236154853,
incongruent-right.jpg,0,k,left_arrow.png,left_arrow.png,left_arrow.png,right_arrow.png,left_arrow.png,left_arrow.png,left_arrow.png,,,,,,,,,,,,,1,1,7,3,,,,,346.33729889999995,None,,,,,,,,,,,,,,,,,,,,,,,,,,,,,,347.34229889999995,None,347.34229889999995,None,347.34229889999995,None,347.34229889999995,None,347.34229889999995,None,347.34229889999995,None,347.34229889999995,None,k,1,0.4823427000000038,347.34229889999995,None,,,,,,,,,,,,,15,001,2022_Oct_19_1215,Flanker,2021.2.0,238.5587236154853,
congruent-left.jpg,1,a,left_arrow.png,left_arrow.png,left_arrow.png,left_arrow.png,left_arrow.png,left_arrow.png,left_arrow.png,,,,,,,,,,,,,1,2,8,0,,,,,347.8428536,None,,,,,,,,,,,,,,,,,,,,,,,,,,,,,,348.85227769999995,None,348.85227769999995,None,348.85227769999995,None,348.85227769999995,None,348.85227769999995,None,348.85227769999995,None,348.85227769999995,None,a,1,0.5002560999998877,348.85227769999995,None,,,,,,,,,,,,,15,001,2022_Oct_19_1215,Flanker,2021.2.0,238.5587236154853,
incongruent-left.jpg,0,a,right_arrow.png,right_arrow.png,right_arrow.png,left_arrow.png,right_arrow.png,right_arrow.png,right_arrow.png,,,,,,,,,,,,,1,3,9,1,,,,,349.36974929999997,None,,,,,,,,,,,,,,,,,,,,,,,,,,,,,,350.3831862999999,None,350.3831862999999,None,350.3831862999999,None,350.3831862999999,None,350.3831862999999,None,350.3831862999999,None,350.3831862999999,None,a,1,0.4657730999999785,350.3831862999999,None,,,,,,,,,,,,,15,001,2022_Oct_19_1215,Flanker,2021.2.0,238.5587236154853,
incongruent-right.jpg,0,k,left_arrow.png,left_arrow.png,left_arrow.png,right_arrow.png,left_arrow.png,left_arrow.png,left_arrow.png,,,,,,,,,,,,,1,4,10,3,,,,,350.86717049999993,None,,,,,,,,,,,,,,,,,,,,,,,,,,,,,,351.8764792999999,None,351.8764792999999,None,351.8764792999999,None,351.8764792999999,None,351.8764792999999,None,351.8764792999999,None,351.8764792999999,None,k,1,0.4444591000000173,351.8764792999999,None,,,,,,,,,,,,,15,001,2022_Oct_19_1215,Flanker,2021.2.0,238.5587236154853,
neutral right,0,k,neutral.png,neutral.png,neutral.png,right_arrow.png,neutral.png,neutral.png,neutral.png,,,,,,,,,,,,,1,5,11,5,,,,,352.3351200999999,None,,,,,,,,,,,,,,,,,,,,,,,,,,,,,,353.3445229,None,353.3445229,None,353.3445229,None,353.3445229,None,353.3445229,None,353.3445229,None,353.3445229,None,k,1,0.3526242000000366,353.3445229,None,,,,,,,,,,,,,15,001,2022_Oct_19_1215,Flanker,2021.2.0,238.5587236154853,
incongruent-left.jpg,0,a,right_arrow.png,right_arrow.png,right_arrow.png,left_arrow.png,right_arrow.png,right_arrow.png,right_arrow.png,,,,,,,,,,,,,2,0,12,1,,,,,353.7118052999999,None,,,,,,,,,,,,,,,,,,,,,,,,,,,,,,354.72110569999995,None,354.72110569999995,None,354.72110569999995,None,354.72110569999995,None,354.72110569999995,None,354.72110569999995,None,354.72110569999995,None,a,1,0.4722282999999834,354.72110569999995,None,,,,,,,,,,,,,15,001,2022_Oct_19_1215,Flanker,2021.2.0,238.5587236154853,
neutral left,0,a,neutral.png,neutral.png,neutral.png,left_arrow.png,neutral.png,neutral.png,neutral.png,,,,,,,,,,,,,2,1,13,4,,,,,355.2049546999999,None,,,,,,,,,,,,,,,,,,,,,,,,,,,,,,356.2183818,None,356.2183818,None,356.2183818,None,356.2183818,None,356.2183818,None,356.2183818,None,356.2183818,None,a,1,0.4074761999999055,356.2183818,None,,,,,,,,,,,,,15,001,2022_Oct_19_1215,Flanker,2021.2.0,238.5587236154853,
neutral right,0,k,neutral.png,neutral.png,neutral.png,right_arrow.png,neutral.png,neutral.png,neutral.png,,,,,,,,,,,,,2,2,14,5,,,,,356.6439902999999,None,,,,,,,,,,,,,,,,,,,,,,,,,,,,,,357.65759519999995,None,357.65759519999995,None,357.65759519999995,None,357.65759519999995,None,357.65759519999995,None,357.65759519999995,None,357.65759519999995,None,k,1,0.3921233000000939,357.65759519999995,None,,,,,,,,,,,,,15,001,2022_Oct_19_1215,Flanker,2021.2.0,238.5587236154853,
congruent-left.jpg,1,a,left_arrow.png,left_arrow.png,left_arrow.png,left_arrow.png,left_arrow.png,left_arrow.png,left_arrow.png,,,,,,,,,,,,,2,3,15,0,,,,,358.066188,None,,,,,,,,,,,,,,,,,,,,,,,,,,,,,,359.07989639999994,None,359.07989639999994,None,359.07989639999994,None,359.07989639999994,None,359.07989639999994,None,359.07989639999994,None,359.07989639999994,None,a,1,0.49005510000006325,359.07989639999994,None,,,,,,,,,,,,,15,001,2022_Oct_19_1215,Flanker,2021.2.0,238.5587236154853,
neutral right,0,k,neutral.png,neutral.png,neutral.png,right_arrow.png,neutral.png,neutral.png,neutral.png,,,,,,,,,,,,,2,4,16,5,,,,,359.58887819999995,None,,,,,,,,,,,,,,,,,,,,,,,,,,,,,,360.6066000999999,None,360.6066000999999,None,360.6066000999999,None,360.6066000999999,None,360.6066000999999,None,360.6066000999999,None,360.6066000999999,None,k,1,0.4356592000000319,360.6066000999999,None,,,,,,,,,,,,,15,001,2022_Oct_19_1215,Flanker,2021.2.0,238.5587236154853,
congruent-right.jpg,1,k,right_arrow.png,right_arrow.png,right_arrow.png,right_arrow.png,right_arrow.png,right_arrow.png,right_arrow.png,,,,,,,,,,,,,2,5,17,2,,,,,361.057149,None,,,,,,,,,,,,,,,,,,,,,,,,,,,,,,362.0706842999999,None,362.0706842999999,None,362.0706842999999,None,362.0706842999999,None,362.0706842999999,None,362.0706842999999,None,362.0706842999999,None,k,1,0.443697899999961,362.0706842999999,None,,,,,,,,,,,,,15,001,2022_Oct_19_1215,Flanker,2021.2.0,238.5587236154853,
neutral right,0,k,neutral.png,neutral.png,neutral.png,right_arrow.png,neutral.png,neutral.png,neutral.png,,,,,,,,,,,,,3,0,18,5,,,,,362.5294104999999,None,,,,,,,,,,,,,,,,,,,,,,,,,,,,,,363.5429881,None,363.5429881,None,363.5429881,None,363.5429881,None,363.5429881,None,363.5429881,None,363.5429881,None,k,1,0.34755630000006477,363.5429881,None,,,,,,,,,,,,,15,001,2022_Oct_19_1215,Flanker,2021.2.0,238.5587236154853,
congruent-right.jpg,1,k,right_arrow.png,right_arrow.png,right_arrow.png,right_arrow.png,right_arrow.png,right_arrow.png,right_arrow.png,,,,,,,,,,,,,3,1,19,2,,,,,363.9017660999999,None,,,,,,,,,,,,,,,,,,,,,,,,,,,,,,364.91527799999994,None,364.91527799999994,None,364.91527799999994,None,364.91527799999994,None,364.91527799999994,None,364.91527799999994,None,364.91527799999994,None,k,1,0.3595806000000721,364.91527799999994,None,,,,,,,,,,,,,15,001,2022_Oct_19_1215,Flanker,2021.2.0,238.5587236154853,
incongruent-right.jpg,0,k,left_arrow.png,left_arrow.png,left_arrow.png,right_arrow.png,left_arrow.png,left_arrow.png,left_arrow.png,,,,,,,,,,,,,3,2,20,3,,,,,365.2905410999999,None,,,,,,,,,,,,,,,,,,,,,,,,,,,,,,366.30434979999995,None,366.30434979999995,None,366.30434979999995,None,366.30434979999995,None,366.30434979999995,None,366.30434979999995,None,366.30434979999995,None,k,1,0.5305708000000777,366.30434979999995,None,,,,,,,,,,,,,15,001,2022_Oct_19_1215,Flanker,2021.2.0,238.5587236154853,
congruent-right.jpg,1,k,right_arrow.png,right_arrow.png,right_arrow.png,right_arrow.png,right_arrow.png,right_arrow.png,right_arrow.png,,,,,,,,,,,,,3,3,21,2,,,,,366.84658809999996,None,,,,,,,,,,,,,,,,,,,,,,,,,,,,,,367.8558938,None,367.8558938,None,367.8558938,None,367.8558938,None,367.8558938,None,367.8558938,None,367.8558938,None,k,1,0.37121319999994284,367.8558938,None,,,,,,,,,,,,,15,001,2022_Oct_19_1215,Flanker,2021.2.0,238.5587236154853,
incongruent-left.jpg,0,a,right_arrow.png,right_arrow.png,right_arrow.png,left_arrow.png,right_arrow.png,right_arrow.png,right_arrow.png,,,,,,,,,,,,,3,4,22,1,,,,,368.23963289999995,None,,,,,,,,,,,,,,,,,,,,,,,,,,,,,,369.2492421999999,None,369.2492421999999,None,369.2492421999999,None,369.2492421999999,None,369.2492421999999,None,369.2492421999999,None,369.2492421999999,None,a,1,0.5220890000000509,369.2492421999999,None,,,,,,,,,,,,,15,001,2022_Oct_19_1215,Flanker,2021.2.0,238.5587236154853,
incongruent-right.jpg,0,k,left_arrow.png,left_arrow.png,left_arrow.png,right_arrow.png,left_arrow.png,left_arrow.png,left_arrow.png,,,,,,,,,,,,,3,5,23,3,,,,,369.7829911,None,,,,,,,,,,,,,,,,,,,,,,,,,,,,,,370.7922633999999,None,370.7922633999999,None,370.7922633999999,None,370.7922633999999,None,370.7922633999999,None,370.7922633999999,None,370.7922633999999,None,k,1,0.4833470999999463,370.7922633999999,None,,,,,,,,,,,,,15,001,2022_Oct_19_1215,Flanker,2021.2.0,238.5587236154853,
congruent-left.jpg,1,a,left_arrow.png,left_arrow.png,left_arrow.png,left_arrow.png,left_arrow.png,left_arrow.png,left_arrow.png,,,,,,,,,,,,,4,0,24,0,,,,,371.2930784,None,,,,,,,,,,,,,,,,,,,,,,,,,,,,,,372.3022754,None,372.3022754,None,372.3022754,None,372.3022754,None,372.3022754,None,372.3022754,None,372.3022754,None,a,1,0.5176390999999967,372.3022754,None,,,,,,,,,,,,,15,001,2022_Oct_19_1215,Flanker,2021.2.0,238.5587236154853,
neutral left,0,a,neutral.png,neutral.png,neutral.png,left_arrow.png,neutral.png,neutral.png,neutral.png,,,,,,,,,,,,,4,1,25,4,,,,,372.8361977999999,None,,,,,,,,,,,,,,,,,,,,,,,,,,,,,,373.84977289999995,None,373.84977289999995,None,373.84977289999995,None,373.84977289999995,None,373.84977289999995,None,373.84977289999995,None,373.84977289999995,None,a,1,0.44219429999998283,373.84977289999995,None,,,,,,,,,,,,,15,001,2022_Oct_19_1215,Flanker,2021.2.0,238.5587236154853,
neutral left,0,a,neutral.png,neutral.png,neutral.png,left_arrow.png,neutral.png,neutral.png,neutral.png,,,,,,,,,,,,,4,2,26,4,,,,,374.30867349999994,None,,,,,,,,,,,,,,,,,,,,,,,,,,,,,,375.3179892999999,None,375.3179892999999,None,375.3179892999999,None,375.3179892999999,None,375.3179892999999,None,375.3179892999999,None,375.3179892999999,None,a,1,0.36632139999994706,375.3179892999999,None,,,,,,,,,,,,,15,001,2022_Oct_19_1215,Flanker,2021.2.0,238.5587236154853,
incongruent-left.jpg,0,a,right_arrow.png,right_arrow.png,right_arrow.png,left_arrow.png,right_arrow.png,right_arrow.png,right_arrow.png,,,,,,,,,,,,,4,3,27,1,,,,,375.7017125,None,,,,,,,,,,,,,,,,,,,,,,,,,,,,,,376.7151463,None,376.7151463,None,376.7151463,None,376.7151463,None,376.7151463,None,376.7151463,None,376.7151463,None,a,1,0.5052093000000468,376.7151463,None,,,,,,,,,,,,,15,001,2022_Oct_19_1215,Flanker,2021.2.0,238.5587236154853,
congruent-left.jpg,1,a,left_arrow.png,left_arrow.png,left_arrow.png,left_arrow.png,left_arrow.png,left_arrow.png,left_arrow.png,,,,,,,,,,,,,4,4,28,0,,,,,377.23250899999994,None,,,,,,,,,,,,,,,,,,,,,,,,,,,,,,378.2460823,None,378.2460823,None,378.2460823,None,378.2460823,None,378.2460823,None,378.2460823,None,378.2460823,None,a,1,0.358607099999972,378.2460823,None,,,,,,,,,,,,,15,001,2022_Oct_19_1215,Flanker,2021.2.0,238.5587236154853,
congruent-left.jpg,1,a,left_arrow.png,left_arrow.png,left_arrow.png,left_arrow.png,left_arrow.png,left_arrow.png,left_arrow.png,,,,,,,,,,,,,4,5,29,0,,,,,378.6214845999999,None,,,,,,,,,,,,,,,,,,,,,,,,,,,,,,379.6350479,None,379.6350479,None,379.6350479,None,379.6350479,None,379.6350479,None,379.6350479,None,379.6350479,None,a,1,0.3377153000000135,379.6350479,None,,,,,,,,,,,,,15,001,2022_Oct_19_1215,Flanker,2021.2.0,238.5587236154853,
incongruent-left.jpg,0,a,right_arrow.png,right_arrow.png,right_arrow.png,left_arrow.png,right_arrow.png,right_arrow.png,right_arrow.png,,,,,,,,,,,,,5,0,30,1,,,,,379.9854239,None,,,,,,,,,,,,,,,,,,,,,,,,,,,,,,380.994822,None,380.994822,None,380.994822,None,380.994822,None,380.994822,None,380.994822,None,380.994822,None,k,0,0.45828180000000884,380.994822,None,,,,,,,,,,,,,15,001,2022_Oct_19_1215,Flanker,2021.2.0,238.5587236154853,
neutral left,0,a,neutral.png,neutral.png,neutral.png,left_arrow.png,neutral.png,neutral.png,neutral.png,,,,,,,,,,,,,5,1,31,4,,,,,381.4705031,None,,,,,,,,,,,,,,,,,,,,,,,,,,,,,,382.4798015,None,382.4798015,None,382.4798015,None,382.4798015,None,382.4798015,None,382.4798015,None,382.4798015,None,a,1,0.8615628999999672,382.4798015,None,,,,,,,,,,,,,15,001,2022_Oct_19_1215,Flanker,2021.2.0,238.5587236154853,
congruent-right.jpg,1,k,right_arrow.png,right_arrow.png,right_arrow.png,right_arrow.png,right_arrow.png,right_arrow.png,right_arrow.png,,,,,,,,,,,,,5,2,32,2,,,,,383.35581609999997,None,,,,,,,,,,,,,,,,,,,,,,,,,,,,,,384.3693286,None,384.3693286,None,384.3693286,None,384.3693286,None,384.3693286,None,384.3693286,None,384.3693286,None,k,1,0.4680739000000358,384.3693286,None,,,,,,,,,,,,,15,001,2022_Oct_19_1215,Flanker,2021.2.0,238.5587236154853,
incongruent-left.jpg,0,a,right_arrow.png,right_arrow.png,right_arrow.png,left_arrow.png,right_arrow.png,right_arrow.png,right_arrow.png,,,,,,,,,,,,,5,3,33,1,,,,,384.85300759999996,None,,,,,,,,,,,,,,,,,,,,,,,,,,,,,,385.8581828,None,385.8581828,None,385.8581828,None,385.8581828,None,385.8581828,None,385.8581828,None,385.8581828,None,a,1,0.4837060999999494,385.8581828,None,,,,,,,,,,,,,15,001,2022_Oct_19_1215,Flanker,2021.2.0,238.5587236154853,
neutral left,0,a,neutral.png,neutral.png,neutral.png,left_arrow.png,neutral.png,neutral.png,neutral.png,,,,,,,,,,,,,5,4,34,4,,,,,386.35872699999993,None,,,,,,,,,,,,,,,,,,,,,,,,,,,,,,387.37244929999997,None,387.37244929999997,None,387.37244929999997,None,387.37244929999997,None,387.37244929999997,None,387.37244929999997,None,387.37244929999997,None,a,1,0.39336600000001454,387.37244929999997,None,,,,,,,,,,,,,15,001,2022_Oct_19_1215,Flanker,2021.2.0,238.5587236154853,
neutral left,0,a,neutral.png,neutral.png,neutral.png,left_arrow.png,neutral.png,neutral.png,neutral.png,,,,,,,,,,,,,5,5,35,4,,,,,387.7812408,None,,,,,,,,,,,,,,,,,,,,,,,,,,,,,,388.7904861999999,None,388.7904861999999,None,388.7904861999999,None,388.7904861999999,None,388.7904861999999,None,388.7904861999999,None,388.7904861999999,None,a,1,0.39978369999994356,388.7904861999999,None,,,,,,,,,,,,,15,001,2022_Oct_19_1215,Flanker,2021.2.0,238.5587236154853,
incongruent-right.jpg,0,k,left_arrow.png,left_arrow.png,left_arrow.png,right_arrow.png,left_arrow.png,left_arrow.png,left_arrow.png,,,,,,,,,,,,,6,0,36,3,,,,,389.207808,None,,,,,,,,,,,,,,,,,,,,,,,,,,,,,,390.21699319999993,None,390.21699319999993,None,390.21699319999993,None,390.21699319999993,None,390.21699319999993,None,390.21699319999993,None,390.21699319999993,None,k,1,0.48523390000002564,390.21699319999993,None,,,,,,,,,,,,,15,001,2022_Oct_19_1215,Flanker,2021.2.0,238.5587236154853,
neutral right,0,k,neutral.png,neutral.png,neutral.png,right_arrow.png,neutral.png,neutral.png,neutral.png,,,,,,,,,,,,,6,1,37,5,,,,,390.7175284,None,,,,,,,,,,,,,,,,,,,,,,,,,,,,,,391.7353509999999,None,391.7353509999999,None,391.7353509999999,None,391.7353509999999,None,391.7353509999999,None,391.7353509999999,None,391.7353509999999,None,k,1,0.4550385999999662,391.7353509999999,None,,,,,,,,,,,,,15,001,2022_Oct_19_1215,Flanker,2021.2.0,238.5587236154853,
incongruent-left.jpg,0,a,right_arrow.png,right_arrow.png,right_arrow.png,left_arrow.png,right_arrow.png,right_arrow.png,right_arrow.png,,,,,,,,,,,,,6,2,38,1,,,,,392.2024497,None,,,,,,,,,,,,,,,,,,,,,,,,,,,,,,393.21600879999994,None,393.21600879999994,None,393.21600879999994,None,393.21600879999994,None,393.21600879999994,None,393.21600879999994,None,393.21600879999994,None,a,1,0.4706205999999611,393.21600879999994,None,,,,,,,,,,,,,15,001,2022_Oct_19_1215,Flanker,2021.2.0,238.5587236154853,
neutral right,0,k,neutral.png,neutral.png,neutral.png,right_arrow.png,neutral.png,neutral.png,neutral.png,,,,,,,,,,,,,6,3,39,5,,,,,393.6998814,None,,,,,,,,,,,,,,,,,,,,,,,,,,,,,,394.70965979999994,None,394.70965979999994,None,394.70965979999994,None,394.70965979999994,None,394.70965979999994,None,394.70965979999994,None,394.70965979999994,None,k,1,0.6012026000000787,394.70965979999994,None,,,,,,,,,,,,,15,001,2022_Oct_19_1215,Flanker,2021.2.0,238.5587236154853,
neutral left,0,a,neutral.png,neutral.png,neutral.png,left_arrow.png,neutral.png,neutral.png,neutral.png,,,,,,,,,,,,,6,4,40,4,,,,,395.32659,None,,,,,,,,,,,,,,,,,,,,,,,,,,,,,,396.3359939999999,None,396.3359939999999,None,396.3359939999999,None,396.3359939999999,None,396.3359939999999,None,396.3359939999999,None,396.3359939999999,None,a,1,0.7831131000000369,396.3359939999999,None,,,,,,,,,,,,,15,001,2022_Oct_19_1215,Flanker,2021.2.0,238.5587236154853,
congruent-right.jpg,1,k,right_arrow.png,right_arrow.png,right_arrow.png,right_arrow.png,right_arrow.png,right_arrow.png,right_arrow.png,,,,,,,,,,,,,6,5,41,2,,,,,397.1329566999999,None,,,,,,,,,,,,,,,,,,,,,,,,,,,,,,398.1420799,None,398.1420799,None,398.1420799,None,398.1420799,None,398.1420799,None,398.1420799,None,398.1420799,None,k,1,0.41721530000006624,398.1420799,None,,,,,,,,,,,,,15,001,2022_Oct_19_1215,Flanker,2021.2.0,238.5587236154853,
congruent-left.jpg,1,a,left_arrow.png,left_arrow.png,left_arrow.png,left_arrow.png,left_arrow.png,left_arrow.png,left_arrow.png,,,,,,,,,,,,,7,0,42,0,,,,,398.575874,None,,,,,,,,,,,,,,,,,,,,,,,,,,,,,,399.58963029999995,None,399.58963029999995,None,399.58963029999995,None,399.58963029999995,None,399.58963029999995,None,399.58963029999995,None,399.58963029999995,None,a,1,0.4178642999999056,399.58963029999995,None,,,,,,,,,,,,,15,001,2022_Oct_19_1215,Flanker,2021.2.0,238.5587236154853,
incongruent-left.jpg,0,a,right_arrow.png,right_arrow.png,right_arrow.png,left_arrow.png,right_arrow.png,right_arrow.png,right_arrow.png,,,,,,,,,,,,,7,1,43,1,,,,,400.0236139,None,,,,,,,,,,,,,,,,,,,,,,,,,,,,,,401.0286092,None,401.0286092,None,401.0286092,None,401.0286092,None,401.0286092,None,401.0286092,None,401.0286092,None,a,1,0.4751126999999542,401.0286092,None,,,,,,,,,,,,,15,001,2022_Oct_19_1215,Flanker,2021.2.0,238.5587236154853,
congruent-left.jpg,1,a,left_arrow.png,left_arrow.png,left_arrow.png,left_arrow.png,left_arrow.png,left_arrow.png,left_arrow.png,,,,,,,,,,,,,7,2,44,0,,,,,401.5206792,None,,,,,,,,,,,,,,,,,,,,,,,,,,,,,,402.53021519999993,None,402.53021519999993,None,402.53021519999993,None,402.53021519999993,None,402.53021519999993,None,402.53021519999993,None,402.53021519999993,None,a,1,0.949911899999961,402.53021519999993,None,,,,,,,,,,,,,15,001,2022_Oct_19_1215,Flanker,2021.2.0,238.5587236154853,
congruent-left.jpg,1,a,left_arrow.png,left_arrow.png,left_arrow.png,left_arrow.png,left_arrow.png,left_arrow.png,left_arrow.png,,,,,,,,,,,,,7,3,45,0,,,,,403.4977660999999,None,,,,,,,,,,,,,,,,,,,,,,,,,,,,,,404.5072248,None,404.5072248,None,404.5072248,None,404.5072248,None,404.5072248,None,404.5072248,None,404.5072248,None,a,1,0.40491500000007363,404.5072248,None,,,,,,,,,,,,,15,001,2022_Oct_19_1215,Flanker,2021.2.0,238.5587236154853,
neutral right,0,k,neutral.png,neutral.png,neutral.png,right_arrow.png,neutral.png,neutral.png,neutral.png,,,,,,,,,,,,,7,4,46,5,,,,,404.92449149999993,None,,,,,,,,,,,,,,,,,,,,,,,,,,,,,,405.93370089999996,None,405.93370089999996,None,405.93370089999996,None,405.93370089999996,None,405.93370089999996,None,405.93370089999996,None,405.93370089999996,None,k,1,0.35467019999998683,405.93370089999996,None,,,,,,,,,,,,,15,001,2022_Oct_19_1215,Flanker,2021.2.0,238.5587236154853,
incongruent-right.jpg,0,k,left_arrow.png,left_arrow.png,left_arrow.png,right_arrow.png,left_arrow.png,left_arrow.png,left_arrow.png,,,,,,,,,,,,,7,5,47,3,,,,,406.30083819999993,None,,,,,,,,,,,,,,,,,,,,,,,,,,,,,,407.3143903,None,407.3143903,None,407.3143903,None,407.3143903,None,407.3143903,None,407.3143903,None,407.3143903,None,k,1,0.4301573999999846,407.3143903,None,,,,,,,,,,,,,15,001,2022_Oct_19_1215,Flanker,2021.2.0,238.5587236154853,
,,,,,,,,,,,,,,,,,,,,,,,,,,,,,,,,,,,,,,,,,,,,,,,,,,,,,,,,,,,,,,,,,,,,,,,,,,,,,,,,407.7648812,None,space,1.707932200000073,407.7648812,None,,,,,,,15,001,2022_Oct_19_1215,Flanker,2021.2.0,238.5587236154853,
,,,,,,,,,,,,,,,,,,,,,,,,,,,,,,,,,,,,,,,,,,,,,,,,,,,,,,,,,,,,,,,,,,,,,,,,,,,,,,,,,,,,,,409.49163539999995,None,space,2.8216321000001017,409.49163539999995,None,15,001,2022_Oct_19_1215,Flanker,2021.2.0,238.5587236154853,
