images,congruentcy,corrAns,arrow_1,arrow_2,arrow_3,target,arrow_5,arrow_6,arrow_7,practice.thisRepN,practice.thisTrialN,practice.thisN,practice.thisIndex,trials.thisRepN,trials.thisTrialN,trials.thisN,trials.thisIndex,trials_2.thisRepN,trials_2.thisTrialN,trials_2.thisN,trials_2.thisIndex,trials_3.thisRepN,trials_3.thisTrialN,trials_3.thisN,trials_3.thisIndex,instr_text.started,instr_text.stopped,instr_resp.keys,instr_resp.rt,polygon.started,polygon.stopped,arrow1_.started,arrow1_.stopped,arrow2_.started,arrow2_.stopped,arrow3_.started,arrow3_.stopped,target_p.started,target_p.stopped,arrow5_.started,arrow5_.stopped,arrow6_.started,arrow6_.stopped,arrow7_.started,arrow7_.stopped,key_resp_P.keys,key_resp_P.corr,key_resp_P.rt,key_resp_P.started,key_resp_P.stopped,text_2.started,text_2.stopped,text_3.started,text_3.stopped,text_4.started,text_4.stopped,key_resp_2.keys,key_resp_2.rt,key_resp_2.started,key_resp_2.stopped,arrow1.started,arrow1.stopped,arrow2.started,arrow2.stopped,arrow3.started,arrow3.stopped,target_t.started,target_t.stopped,arrow5.started,arrow5.stopped,arrow6.started,arrow6.stopped,arrow7.started,arrow7.stopped,key_resp.keys,key_resp.corr,key_resp.rt,key_resp.started,key_resp.stopped,text_5.started,text_5.stopped,key_resp_3.keys,key_resp_3.rt,key_resp_3.started,key_resp_3.stopped,text_6.started,text_6.stopped,key_resp_4.keys,key_resp_4.rt,key_resp_4.started,key_resp_4.stopped,participant,session,date,expName,psychopyVersion,frameRate,
,,,,,,,,,,,,,,,,,,,,,,,,,,10.83717230000002,None,space,17.144053600000007,,,,,,,,,,,,,,,,,,,,,,,,,,,,,,,,,,,,,,,,,,,,,,,,,,,,,,,,,,,,,,,16,001,2022_Oct_19_1409,Flanker,2021.2.0,240.0147849098181,
neutral left,0,a,neutral.png,neutral.png,neutral.png,left_arrow.png,neutral.png,neutral.png,neutral.png,0,0,0,4,,,,,,,,,,,,,,,,,28.003144399999655,None,29.012795799999367,None,29.012795799999367,None,29.012795799999367,None,29.012795799999367,None,29.012795799999367,None,29.012795799999367,None,29.012795799999367,None,a,1,0.9847280000003593,29.012795799999367,None,30.02189889999954,None,,,,,,,,,,,,,,,,,,,,,,,,,,,,,,,,,,,,,,,,16,001,2022_Oct_19_1409,Flanker,2021.2.0,240.0147849098181,
congruent-left.jpg,1,a,left_arrow.png,left_arrow.png,left_arrow.png,left_arrow.png,left_arrow.png,left_arrow.png,left_arrow.png,0,1,1,0,,,,,,,,,,,,,,,,,31.51928719999978,None,32.52487589999964,None,32.52487589999964,None,32.52487589999964,None,32.52487589999964,None,32.52487589999964,None,32.52487589999964,None,32.52487589999964,None,a,1,0.6171143999999913,32.52487589999964,None,33.15858930000013,None,,,,,,,,,,,,,,,,,,,,,,,,,,,,,,,,,,,,,,,,16,001,2022_Oct_19_1409,Flanker,2021.2.0,240.0147849098181,
congruent-left.jpg,1,a,left_arrow.png,left_arrow.png,left_arrow.png,left_arrow.png,left_arrow.png,left_arrow.png,left_arrow.png,0,2,2,0,,,,,,,,,,,,,,,,,34.664284899999984,None,35.67369879999933,None,35.67369879999933,None,35.67369879999933,None,35.67369879999933,None,35.67369879999933,None,35.67369879999933,None,35.67369879999933,None,a,1,0.4686400999999023,35.67369879999933,None,36.157551299999795,None,,,,,,,,,,,,,,,,,,,,,,,,,,,,,,,,,,,,,,,,16,001,2022_Oct_19_1409,Flanker,2021.2.0,240.0147849098181,
incongruent-left.jpg,0,a,right_arrow.png,right_arrow.png,right_arrow.png,left_arrow.png,right_arrow.png,right_arrow.png,right_arrow.png,0,3,3,1,,,,,,,,,,,,,,,,,37.66356730000007,None,38.67272030000004,None,38.67272030000004,None,38.67272030000004,None,38.67272030000004,None,38.67272030000004,None,38.67272030000004,None,38.67272030000004,None,k,0,0.8701138999995237,38.67272030000004,None,39.56117809999978,None,,,,,,,,,,,,,,,,,,,,,,,,,,,,,,,,,,,,,,,,16,001,2022_Oct_19_1409,Flanker,2021.2.0,240.0147849098181,
incongruent-right.jpg,0,k,left_arrow.png,left_arrow.png,left_arrow.png,right_arrow.png,left_arrow.png,left_arrow.png,left_arrow.png,0,4,4,3,,,,,,,,,,,,,,,,,41.06295919999957,None,42.07226449999962,None,42.07226449999962,None,42.07226449999962,None,42.07226449999962,None,42.07226449999962,None,42.07226449999962,None,42.07226449999962,None,k,1,2.87932389999969,42.07226449999962,None,44.971306899999945,None,,,,,,,,,,,,,,,,,,,,,,,,,,,,,,,,,,,,,,,,16,001,2022_Oct_19_1409,Flanker,2021.2.0,240.0147849098181,
neutral left,0,a,neutral.png,neutral.png,neutral.png,left_arrow.png,neutral.png,neutral.png,neutral.png,0,5,5,4,,,,,,,,,,,,,,,,,46.47269139999935,None,47.482157800000095,None,47.482157800000095,None,47.482157800000095,None,47.482157800000095,None,47.482157800000095,None,47.482157800000095,None,47.482157800000095,None,a,1,0.9179219999996349,47.482157800000095,None,48.416430399999626,None,,,,,,,,,,,,,,,,,,,,,,,,,,,,,,,,,,,,,,,,16,001,2022_Oct_19_1409,Flanker,2021.2.0,240.0147849098181,
neutral right,0,k,neutral.png,neutral.png,neutral.png,right_arrow.png,neutral.png,neutral.png,neutral.png,1,0,6,5,,,,,,,,,,,,,,,,,49.91801299999952,None,50.93170109999937,None,50.93170109999937,None,50.93170109999937,None,50.93170109999937,None,50.93170109999937,None,50.93170109999937,None,50.93170109999937,None,k,1,0.7409311999999773,50.93170109999937,None,51.69072520000009,None,,,,,,,,,,,,,,,,,,,,,,,,,,,,,,,,,,,,,,,,16,001,2022_Oct_19_1409,Flanker,2021.2.0,240.0147849098181,
congruent-left.jpg,1,a,left_arrow.png,left_arrow.png,left_arrow.png,left_arrow.png,left_arrow.png,left_arrow.png,left_arrow.png,1,1,7,0,,,,,,,,,,,,,,,,,53.196726999999555,None,54.20619449999958,None,54.20619449999958,None,54.20619449999958,None,54.20619449999958,None,54.20619449999958,None,54.20619449999958,None,54.20619449999958,None,a,1,0.6187531999994462,54.20619449999958,None,54.83990399999948,None,,,,,,,,,,,,,,,,,,,,,,,,,,,,,,,,,,,,,,,,16,001,2022_Oct_19_1409,Flanker,2021.2.0,240.0147849098181,
neutral left,0,a,neutral.png,neutral.png,neutral.png,left_arrow.png,neutral.png,neutral.png,neutral.png,1,2,8,4,,,,,,,,,,,,,,,,,56.3416428999999,None,57.35508140000002,None,57.35508140000002,None,57.35508140000002,None,57.35508140000002,None,57.35508140000002,None,57.35508140000002,None,57.35508140000002,None,a,1,0.6142863000004581,57.35508140000002,None,57.98098799999934,None,,,,,,,,,,,,,,,,,,,,,,,,,,,,,,,,,,,,,,,,16,001,2022_Oct_19_1409,Flanker,2021.2.0,240.0147849098181,
neutral right,0,k,neutral.png,neutral.png,neutral.png,right_arrow.png,neutral.png,neutral.png,neutral.png,1,3,9,5,,,,,,,,,,,,,,,,,59.4825651000001,None,60.49187379999967,None,60.49187379999967,None,60.49187379999967,None,60.49187379999967,None,60.49187379999967,None,60.49187379999967,None,60.49187379999967,None,k,1,0.6058874000000287,60.49187379999967,None,61.109050600000046,None,,,,,,,,,,,,,,,,,,,,,,,,,,,,,,,,,,,,,,,,16,001,2022_Oct_19_1409,Flanker,2021.2.0,240.0147849098181,
incongruent-left.jpg,0,a,right_arrow.png,right_arrow.png,right_arrow.png,left_arrow.png,right_arrow.png,right_arrow.png,right_arrow.png,1,4,10,1,,,,,,,,,,,,,,,,,62.610793699999704,None,63.62035579999974,None,63.62035579999974,None,63.62035579999974,None,63.62035579999974,None,63.62035579999974,None,63.62035579999974,None,63.62035579999974,None,a,1,0.5659906999999293,63.62035579999974,None,64.20427389999986,None,,,,,,,,,,,,,,,,,,,,,,,,,,,,,,,,,,,,,,,,16,001,2022_Oct_19_1409,Flanker,2021.2.0,240.0147849098181,
incongruent-right.jpg,0,k,left_arrow.png,left_arrow.png,left_arrow.png,right_arrow.png,left_arrow.png,left_arrow.png,left_arrow.png,1,5,11,3,,,,,,,,,,,,,,,,,65.70574189999934,None,66.71932219999962,None,66.71932219999962,None,66.71932219999962,None,66.71932219999962,None,66.71932219999962,None,66.71932219999962,None,66.71932219999962,None,k,1,0.6993093000000954,66.71932219999962,None,67.43685279999954,None,,,,,,,,,,,,,,,,,,,,,,,,,,,,,,,,,,,,,,,,16,001,2022_Oct_19_1409,Flanker,2021.2.0,240.0147849098181,
congruent-right.jpg,1,k,right_arrow.png,right_arrow.png,right_arrow.png,right_arrow.png,right_arrow.png,right_arrow.png,right_arrow.png,2,0,12,2,,,,,,,,,,,,,,,,,68.93851779999932,None,69.94787649999944,None,69.94787649999944,None,69.94787649999944,None,69.94787649999944,None,69.94787649999944,None,69.94787649999944,None,69.94787649999944,None,k,1,0.5833364999998594,69.94787649999944,None,70.5482205999997,None,,,,,,,,,,,,,,,,,,,,,,,,,,,,,,,,,,,,,,,,16,001,2022_Oct_19_1409,Flanker,2021.2.0,240.0147849098181,
incongruent-right.jpg,0,k,left_arrow.png,left_arrow.png,left_arrow.png,right_arrow.png,left_arrow.png,left_arrow.png,left_arrow.png,2,1,13,3,,,,,,,,,,,,,,,,,72.05011620000005,None,73.05939109999963,None,73.05939109999963,None,73.05939109999963,None,73.05939109999963,None,73.05939109999963,None,73.05939109999963,None,73.05939109999963,None,k,1,0.6241250000002765,73.05939109999963,None,73.70164260000001,None,,,,,,,,,,,,,,,,,,,,,,,,,,,,,,,,,,,,,,,,16,001,2022_Oct_19_1409,Flanker,2021.2.0,240.0147849098181,
congruent-right.jpg,1,k,right_arrow.png,right_arrow.png,right_arrow.png,right_arrow.png,right_arrow.png,right_arrow.png,right_arrow.png,2,2,14,2,,,,,,,,,,,,,,,,,75.20333579999988,None,76.21274269999958,None,76.21274269999958,None,76.21274269999958,None,76.21274269999958,None,76.21274269999958,None,76.21274269999958,None,76.21274269999958,None,k,1,0.43915519999973185,76.21274269999958,None,76.66338519999954,None,,,,,,,,,,,,,,,,,,,,,,,,,,,,,,,,,,,,,,,,16,001,2022_Oct_19_1409,Flanker,2021.2.0,240.0147849098181,
neutral left,0,a,neutral.png,neutral.png,neutral.png,left_arrow.png,neutral.png,neutral.png,neutral.png,2,3,15,4,,,,,,,,,,,,,,,,,78.16913659999955,None,79.17851900000005,None,79.17851900000005,None,79.17851900000005,None,79.17851900000005,None,79.17851900000005,None,79.17851900000005,None,79.17851900000005,None,a,1,0.4738169000002017,79.17851900000005,None,79.6706764999999,None,,,,,,,,,,,,,,,,,,,,,,,,,,,,,,,,,,,,,,,,16,001,2022_Oct_19_1409,Flanker,2021.2.0,240.0147849098181,
neutral right,0,k,neutral.png,neutral.png,neutral.png,right_arrow.png,neutral.png,neutral.png,neutral.png,2,4,16,5,,,,,,,,,,,,,,,,,81.17651729999943,None,82.18560199999956,None,82.18560199999956,None,82.18560199999956,None,82.18560199999956,None,82.18560199999956,None,82.18560199999956,None,82.18560199999956,None,k,1,0.4031853000005867,82.18560199999956,None,82.60270200000014,None,,,,,,,,,,,,,,,,,,,,,,,,,,,,,,,,,,,,,,,,16,001,2022_Oct_19_1409,Flanker,2021.2.0,240.0147849098181,
congruent-right.jpg,1,k,right_arrow.png,right_arrow.png,right_arrow.png,right_arrow.png,right_arrow.png,right_arrow.png,right_arrow.png,2,5,17,2,,,,,,,,,,,,,,,,,84.10428919999958,None,85.11821650000002,None,85.11821650000002,None,85.11821650000002,None,85.11821650000002,None,85.11821650000002,None,85.11821650000002,None,85.11821650000002,None,k,1,0.42291130000012345,85.11821650000002,None,85.56002439999975,None,,,,,,,,,,,,,,,,,,,,,,,,,,,,,,,,,,,,,,,,16,001,2022_Oct_19_1409,Flanker,2021.2.0,240.0147849098181,
congruent-right.jpg,1,k,right_arrow.png,right_arrow.png,right_arrow.png,right_arrow.png,right_arrow.png,right_arrow.png,right_arrow.png,3,0,18,2,,,,,,,,,,,,,,,,,87.06177119999938,None,88.07520449999993,None,88.07520449999993,None,88.07520449999993,None,88.07520449999993,None,88.07520449999993,None,88.07520449999993,None,88.07520449999993,None,k,1,0.3785020999994231,88.07520449999993,None,88.46724610000001,None,,,,,,,,,,,,,,,,,,,,,,,,,,,,,,,,,,,,,,,,16,001,2022_Oct_19_1409,Flanker,2021.2.0,240.0147849098181,
congruent-left.jpg,1,a,left_arrow.png,left_arrow.png,left_arrow.png,left_arrow.png,left_arrow.png,left_arrow.png,left_arrow.png,3,1,19,0,,,,,,,,,,,,,,,,,89.9731783999996,None,90.98258779999924,None,90.98258779999924,None,90.98258779999924,None,90.98258779999924,None,90.98258779999924,None,90.98258779999924,None,90.98258779999924,None,a,1,0.39950279999993654,90.98258779999924,None,91.39980659999947,None,,,,,,,,,,,,,,,,,,,,,,,,,,,,,,,,,,,,,,,,16,001,2022_Oct_19_1409,Flanker,2021.2.0,240.0147849098181,
incongruent-right.jpg,0,k,left_arrow.png,left_arrow.png,left_arrow.png,right_arrow.png,left_arrow.png,left_arrow.png,left_arrow.png,3,2,20,3,,,,,,,,,,,,,,,,,92.90127519999987,None,93.91485219999959,None,93.91485219999959,None,93.91485219999959,None,93.91485219999959,None,93.91485219999959,None,93.91485219999959,None,93.91485219999959,None,k,1,0.5314920000000711,93.91485219999959,None,94.4655488999997,None,,,,,,,,,,,,,,,,,,,,,,,,,,,,,,,,,,,,,,,,16,001,2022_Oct_19_1409,Flanker,2021.2.0,240.0147849098181,
neutral right,0,k,neutral.png,neutral.png,neutral.png,right_arrow.png,neutral.png,neutral.png,neutral.png,3,3,21,5,,,,,,,,,,,,,,,,,95.9671656999999,None,96.98045309999998,None,96.98045309999998,None,96.98045309999998,None,96.98045309999998,None,96.98045309999998,None,96.98045309999998,None,96.98045309999998,None,k,1,0.46661409999978787,96.98045309999998,None,97.46042359999956,None,,,,,,,,,,,,,,,,,,,,,,,,,,,,,,,,,,,,,,,,16,001,2022_Oct_19_1409,Flanker,2021.2.0,240.0147849098181,
incongruent-left.jpg,0,a,right_arrow.png,right_arrow.png,right_arrow.png,left_arrow.png,right_arrow.png,right_arrow.png,right_arrow.png,3,4,22,1,,,,,,,,,,,,,,,,,98.96205969999937,None,99.97122799999943,None,99.97122799999943,None,99.97122799999943,None,99.97122799999943,None,99.97122799999943,None,99.97122799999943,None,99.97122799999943,None,k,0,0.4043166999999812,99.97122799999943,None,100.38838469999973,None,,,,,,,,,,,,,,,,,,,,,,,,,,,,,,,,,,,,,,,,16,001,2022_Oct_19_1409,Flanker,2021.2.0,240.0147849098181,
incongruent-left.jpg,0,a,right_arrow.png,right_arrow.png,right_arrow.png,left_arrow.png,right_arrow.png,right_arrow.png,right_arrow.png,3,5,23,1,,,,,,,,,,,,,,,,,101.89423660000011,None,102.89966569999979,None,102.89966569999979,None,102.89966569999979,None,102.89966569999979,None,102.89966569999979,None,102.89966569999979,None,102.89966569999979,None,a,1,0.6521941999999399,102.89966569999979,None,103.56691989999945,None,,,,,,,,,,,,,,,,,,,,,,,,,,,,,,,,,,,,,,,,16,001,2022_Oct_19_1409,Flanker,2021.2.0,240.0147849098181,
,,,,,,,,,,,,,,,,,,,,,,,,,,,,,,,,,,,,,,,,,,,,,,,,,,,,,105.08076589999928,None,107.07476769999994,None,space,21.88058159999946,107.07476769999994,None,,,,,,,,,,,,,,,,,,,,,,,,,,,,,,,,16,001,2022_Oct_19_1409,Flanker,2021.2.0,240.0147849098181,
congruent-right.jpg,1,k,right_arrow.png,right_arrow.png,right_arrow.png,right_arrow.png,right_arrow.png,right_arrow.png,right_arrow.png,,,,,0,0,0,2,,,,,,,,,,,,,128.98110910000014,None,,,,,,,,,,,,,,,,,,,,,,,,,,,,,,129.98636709999937,None,129.98636709999937,None,129.98636709999937,None,129.98636709999937,None,129.98636709999937,None,129.98636709999937,None,129.98636709999937,None,k,1,2.2171447000000626,129.98636709999937,None,,,,,,,,,,,,,16,001,2022_Oct_19_1409,Flanker,2021.2.0,240.0147849098181,
congruent-right.jpg,1,k,right_arrow.png,right_arrow.png,right_arrow.png,right_arrow.png,right_arrow.png,right_arrow.png,right_arrow.png,,,,,0,1,1,2,,,,,,,,,,,,,132.22230489999947,None,,,,,,,,,,,,,,,,,,,,,,,,,,,,,,133.24007669999992,None,133.24007669999992,None,133.24007669999992,None,133.24007669999992,None,133.24007669999992,None,133.24007669999992,None,133.24007669999992,None,k,1,0.6836694000003263,133.24007669999992,None,,,,,,,,,,,,,16,001,2022_Oct_19_1409,Flanker,2021.2.0,240.0147849098181,
incongruent-left.jpg,0,a,right_arrow.png,right_arrow.png,right_arrow.png,left_arrow.png,right_arrow.png,right_arrow.png,right_arrow.png,,,,,0,2,2,1,,,,,,,,,,,,,133.9405459999998,None,,,,,,,,,,,,,,,,,,,,,,,,,,,,,,134.9543896999994,None,134.9543896999994,None,134.9543896999994,None,134.9543896999994,None,134.9543896999994,None,134.9543896999994,None,134.9543896999994,None,a,1,0.6258499000005031,134.9543896999994,None,,,,,,,,,,,,,16,001,2022_Oct_19_1409,Flanker,2021.2.0,240.0147849098181,
neutral right,0,k,neutral.png,neutral.png,neutral.png,right_arrow.png,neutral.png,neutral.png,neutral.png,,,,,0,3,3,5,,,,,,,,,,,,,135.59674300000006,None,,,,,,,,,,,,,,,,,,,,,,,,,,,,,,136.60615340000004,None,136.60615340000004,None,136.60615340000004,None,136.60615340000004,None,136.60615340000004,None,136.60615340000004,None,136.60615340000004,None,k,1,0.582314000000224,136.60615340000004,None,,,,,,,,,,,,,16,001,2022_Oct_19_1409,Flanker,2021.2.0,240.0147849098181,
neutral left,0,a,neutral.png,neutral.png,neutral.png,left_arrow.png,neutral.png,neutral.png,neutral.png,,,,,0,4,4,4,,,,,,,,,,,,,137.20676730000014,None,,,,,,,,,,,,,,,,,,,,,,,,,,,,,,138.22439750000012,None,138.22439750000012,None,138.22439750000012,None,138.22439750000012,None,138.22439750000012,None,138.22439750000012,None,138.22439750000012,None,a,1,0.5083363999992798,138.22439750000012,None,,,,,,,,,,,,,16,001,2022_Oct_19_1409,Flanker,2021.2.0,240.0147849098181,
congruent-left.jpg,1,a,left_arrow.png,left_arrow.png,left_arrow.png,left_arrow.png,left_arrow.png,left_arrow.png,left_arrow.png,,,,,0,5,5,0,,,,,,,,,,,,,138.75015409999924,None,,,,,,,,,,,,,,,,,,,,,,,,,,,,,,139.75948069999959,None,139.75948069999959,None,139.75948069999959,None,139.75948069999959,None,139.75948069999959,None,139.75948069999959,None,139.75948069999959,None,a,1,0.6131331000005957,139.75948069999959,None,,,,,,,,,,,,,16,001,2022_Oct_19_1409,Flanker,2021.2.0,240.0147849098181,
incongruent-left.jpg,0,a,right_arrow.png,right_arrow.png,right_arrow.png,left_arrow.png,right_arrow.png,right_arrow.png,right_arrow.png,,,,,1,0,6,1,,,,,,,,,,,,,140.3852452000001,None,,,,,,,,,,,,,,,,,,,,,,,,,,,,,,141.39444490000005,None,141.39444490000005,None,141.39444490000005,None,141.39444490000005,None,141.39444490000005,None,141.39444490000005,None,141.39444490000005,None,a,1,0.4585693999997602,141.39444490000005,None,,,,,,,,,,,,,16,001,2022_Oct_19_1409,Flanker,2021.2.0,240.0147849098181,
congruent-left.jpg,1,a,left_arrow.png,left_arrow.png,left_arrow.png,left_arrow.png,left_arrow.png,left_arrow.png,left_arrow.png,,,,,1,1,7,0,,,,,,,,,,,,,141.8697573999998,None,,,,,,,,,,,,,,,,,,,,,,,,,,,,,,142.88773140000012,None,142.88773140000012,None,142.88773140000012,None,142.88773140000012,None,142.88773140000012,None,142.88773140000012,None,142.88773140000012,None,a,1,0.36562270000013086,142.88773140000012,None,,,,,,,,,,,,,16,001,2022_Oct_19_1409,Flanker,2021.2.0,240.0147849098181,
neutral left,0,a,neutral.png,neutral.png,neutral.png,left_arrow.png,neutral.png,neutral.png,neutral.png,,,,,1,2,8,4,,,,,,,,,,,,,143.27154079999946,None,,,,,,,,,,,,,,,,,,,,,,,,,,,,,,144.2809518999993,None,144.2809518999993,None,144.2809518999993,None,144.2809518999993,None,144.2809518999993,None,144.2809518999993,None,144.2809518999993,None,a,1,0.34824360000038723,144.2809518999993,None,,,,,,,,,,,,,16,001,2022_Oct_19_1409,Flanker,2021.2.0,240.0147849098181,
neutral left,0,a,neutral.png,neutral.png,neutral.png,left_arrow.png,neutral.png,neutral.png,neutral.png,,,,,1,3,9,4,,,,,,,,,,,,,144.64798209999935,None,,,,,,,,,,,,,,,,,,,,,,,,,,,,,,145.6614714999996,None,145.6614714999996,None,145.6614714999996,None,145.6614714999996,None,145.6614714999996,None,145.6614714999996,None,145.6614714999996,None,a,1,0.32819909999943775,145.6614714999996,None,,,,,,,,,,,,,16,001,2022_Oct_19_1409,Flanker,2021.2.0,240.0147849098181,
neutral left,0,a,neutral.png,neutral.png,neutral.png,left_arrow.png,neutral.png,neutral.png,neutral.png,,,,,1,4,10,4,,,,,,,,,,,,,146.0036202000001,None,,,,,,,,,,,,,,,,,,,,,,,,,,,,,,147.0171891,None,147.0171891,None,147.0171891,None,147.0171891,None,147.0171891,None,147.0171891,None,147.0171891,None,a,1,0.34039429999938875,147.0171891,None,,,,,,,,,,,,,16,001,2022_Oct_19_1409,Flanker,2021.2.0,240.0147849098181,
neutral right,0,k,neutral.png,neutral.png,neutral.png,right_arrow.png,neutral.png,neutral.png,neutral.png,,,,,1,5,11,5,,,,,,,,,,,,,147.3759503000001,None,,,,,,,,,,,,,,,,,,,,,,,,,,,,,,148.38521489999948,None,148.38521489999948,None,148.38521489999948,None,148.38521489999948,None,148.38521489999948,None,148.38521489999948,None,148.38521489999948,None,k,1,0.5008796000001894,148.38521489999948,None,,,,,,,,,,,,,16,001,2022_Oct_19_1409,Flanker,2021.2.0,240.0147849098181,
incongruent-right.jpg,0,k,left_arrow.png,left_arrow.png,left_arrow.png,right_arrow.png,left_arrow.png,left_arrow.png,left_arrow.png,,,,,2,0,12,3,,,,,,,,,,,,,148.90250879999985,None,,,,,,,,,,,,,,,,,,,,,,,,,,,,,,149.9161094000001,None,149.9161094000001,None,149.9161094000001,None,149.9161094000001,None,149.9161094000001,None,149.9161094000001,None,149.9161094000001,None,k,1,0.9139232999996239,149.9161094000001,None,,,,,,,,,,,,,16,001,2022_Oct_19_1409,Flanker,2021.2.0,240.0147849098181,
congruent-right.jpg,1,k,right_arrow.png,right_arrow.png,right_arrow.png,right_arrow.png,right_arrow.png,right_arrow.png,right_arrow.png,,,,,2,1,13,2,,,,,,,,,,,,,150.8420817999995,None,,,,,,,,,,,,,,,,,,,,,,,,,,,,,,151.85564729999987,None,151.85564729999987,None,151.85564729999987,None,151.85564729999987,None,151.85564729999987,None,151.85564729999987,None,151.85564729999987,None,k,1,0.4626274000002013,151.85564729999987,None,,,,,,,,,,,,,16,001,2022_Oct_19_1409,Flanker,2021.2.0,240.0147849098181,
congruent-right.jpg,1,k,right_arrow.png,right_arrow.png,right_arrow.png,right_arrow.png,right_arrow.png,right_arrow.png,right_arrow.png,,,,,2,2,14,2,,,,,,,,,,,,,152.3311751000001,None,,,,,,,,,,,,,,,,,,,,,,,,,,,,,,153.34028450000005,None,153.34028450000005,None,153.34028450000005,None,153.34028450000005,None,153.34028450000005,None,153.34028450000005,None,153.34028450000005,None,k,1,0.4182166000000507,153.34028450000005,None,,,,,,,,,,,,,16,001,2022_Oct_19_1409,Flanker,2021.2.0,240.0147849098181,
neutral left,0,a,neutral.png,neutral.png,neutral.png,left_arrow.png,neutral.png,neutral.png,neutral.png,,,,,2,3,15,4,,,,,,,,,,,,,153.77435809999952,None,,,,,,,,,,,,,,,,,,,,,,,,,,,,,,154.7879114999996,None,154.7879114999996,None,154.7879114999996,None,154.7879114999996,None,154.7879114999996,None,154.7879114999996,None,154.7879114999996,None,a,1,0.48306570000022475,154.7879114999996,None,,,,,,,,,,,,,16,001,2022_Oct_19_1409,Flanker,2021.2.0,240.0147849098181,
neutral right,0,k,neutral.png,neutral.png,neutral.png,right_arrow.png,neutral.png,neutral.png,neutral.png,,,,,2,4,16,5,,,,,,,,,,,,,155.28839929999958,None,,,,,,,,,,,,,,,,,,,,,,,,,,,,,,156.2977436000001,None,156.2977436000001,None,156.2977436000001,None,156.2977436000001,None,156.2977436000001,None,156.2977436000001,None,156.2977436000001,None,k,1,0.39710460000060266,156.2977436000001,None,,,,,,,,,,,,,16,001,2022_Oct_19_1409,Flanker,2021.2.0,240.0147849098181,
neutral right,0,k,neutral.png,neutral.png,neutral.png,right_arrow.png,neutral.png,neutral.png,neutral.png,,,,,2,5,17,5,,,,,,,,,,,,,156.7063580999993,None,,,,,,,,,,,,,,,,,,,,,,,,,,,,,,157.7200984000001,None,157.7200984000001,None,157.7200984000001,None,157.7200984000001,None,157.7200984000001,None,157.7200984000001,None,157.7200984000001,None,k,1,0.4630222000005233,157.7200984000001,None,,,,,,,,,,,,,16,001,2022_Oct_19_1409,Flanker,2021.2.0,240.0147849098181,
incongruent-right.jpg,0,k,left_arrow.png,left_arrow.png,left_arrow.png,right_arrow.png,left_arrow.png,left_arrow.png,left_arrow.png,,,,,3,0,18,3,,,,,,,,,,,,,158.19556469999952,None,,,,,,,,,,,,,,,,,,,,,,,,,,,,,,159.20903670000007,None,159.20903670000007,None,159.20903670000007,None,159.20903670000007,None,159.20903670000007,None,159.20903670000007,None,159.20903670000007,None,a,0,0.35843800000020565,159.20903670000007,None,,,,,,,,,,,,,16,001,2022_Oct_19_1409,Flanker,2021.2.0,240.0147849098181,
incongruent-right.jpg,0,k,left_arrow.png,left_arrow.png,left_arrow.png,right_arrow.png,left_arrow.png,left_arrow.png,left_arrow.png,,,,,3,1,19,3,,,,,,,,,,,,,159.58442749999995,None,,,,,,,,,,,,,,,,,,,,,,,,,,,,,,160.60226089999924,None,160.60226089999924,None,160.60226089999924,None,160.60226089999924,None,160.60226089999924,None,160.60226089999924,None,160.60226089999924,None,k,1,0.5012334000002738,160.60226089999924,None,,,,,,,,,,,,,16,001,2022_Oct_19_1409,Flanker,2021.2.0,240.0147849098181,
congruent-right.jpg,1,k,right_arrow.png,right_arrow.png,right_arrow.png,right_arrow.png,right_arrow.png,right_arrow.png,right_arrow.png,,,,,3,2,20,2,,,,,,,,,,,,,161.11962869999934,None,,,,,,,,,,,,,,,,,,,,,,,,,,,,,,162.1288887999999,None,162.1288887999999,None,162.1288887999999,None,162.1288887999999,None,162.1288887999999,None,162.1288887999999,None,162.1288887999999,None,k,1,0.3750036999999793,162.1288887999999,None,,,,,,,,,,,,,16,001,2022_Oct_19_1409,Flanker,2021.2.0,240.0147849098181,
congruent-right.jpg,1,k,right_arrow.png,right_arrow.png,right_arrow.png,right_arrow.png,right_arrow.png,right_arrow.png,right_arrow.png,,,,,3,3,21,2,,,,,,,,,,,,,162.52111839999998,None,,,,,,,,,,,,,,,,,,,,,,,,,,,,,,163.5387781999998,None,163.5387781999998,None,163.5387781999998,None,163.5387781999998,None,163.5387781999998,None,163.5387781999998,None,163.5387781999998,None,k,1,0.3413030000001527,163.5387781999998,None,,,,,,,,,,,,,16,001,2022_Oct_19_1409,Flanker,2021.2.0,240.0147849098181,
neutral right,0,k,neutral.png,neutral.png,neutral.png,right_arrow.png,neutral.png,neutral.png,neutral.png,,,,,3,4,22,5,,,,,,,,,,,,,163.89733579999938,None,,,,,,,,,,,,,,,,,,,,,,,,,,,,,,164.91105719999996,None,164.91105719999996,None,164.91105719999996,None,164.91105719999996,None,164.91105719999996,None,164.91105719999996,None,164.91105719999996,None,k,1,0.3373323999994682,164.91105719999996,None,,,,,,,,,,,,,16,001,2022_Oct_19_1409,Flanker,2021.2.0,240.0147849098181,
neutral right,0,k,neutral.png,neutral.png,neutral.png,right_arrow.png,neutral.png,neutral.png,neutral.png,,,,,3,5,23,5,,,,,,,,,,,,,165.26155440000002,None,,,,,,,,,,,,,,,,,,,,,,,,,,,,,,166.27081149999958,None,166.27081149999958,None,166.27081149999958,None,166.27081149999958,None,166.27081149999958,None,166.27081149999958,None,166.27081149999958,None,k,1,0.36968849999993836,166.27081149999958,None,,,,,,,,,,,,,16,001,2022_Oct_19_1409,Flanker,2021.2.0,240.0147849098181,
neutral left,0,a,neutral.png,neutral.png,neutral.png,left_arrow.png,neutral.png,neutral.png,neutral.png,,,,,4,0,24,4,,,,,,,,,,,,,166.65469889999986,None,,,,,,,,,,,,,,,,,,,,,,,,,,,,,,167.66399959999944,None,167.66399959999944,None,167.66399959999944,None,167.66399959999944,None,167.66399959999944,None,167.66399959999944,None,167.66399959999944,None,a,1,0.4484302000000753,167.66399959999944,None,,,,,,,,,,,,,16,001,2022_Oct_19_1409,Flanker,2021.2.0,240.0147849098181,
congruent-right.jpg,1,k,right_arrow.png,right_arrow.png,right_arrow.png,right_arrow.png,right_arrow.png,right_arrow.png,right_arrow.png,,,,,4,1,25,2,,,,,,,,,,,,,168.1312715999993,None,,,,,,,,,,,,,,,,,,,,,,,,,,,,,,169.14472039999964,None,169.14472039999964,None,169.14472039999964,None,169.14472039999964,None,169.14472039999964,None,169.14472039999964,None,169.14472039999964,None,k,1,0.4638955000000351,169.14472039999964,None,,,,,,,,,,,,,16,001,2022_Oct_19_1409,Flanker,2021.2.0,240.0147849098181,
incongruent-right.jpg,0,k,left_arrow.png,left_arrow.png,left_arrow.png,right_arrow.png,left_arrow.png,left_arrow.png,left_arrow.png,,,,,4,2,26,3,,,,,,,,,,,,,169.62042389999988,None,,,,,,,,,,,,,,,,,,,,,,,,,,,,,,170.6296311999995,None,170.6296311999995,None,170.6296311999995,None,170.6296311999995,None,170.6296311999995,None,170.6296311999995,None,170.6296311999995,None,k,1,0.4355176000008214,170.6296311999995,None,,,,,,,,,,,,,16,001,2022_Oct_19_1409,Flanker,2021.2.0,240.0147849098181,
congruent-left.jpg,1,a,left_arrow.png,left_arrow.png,left_arrow.png,left_arrow.png,left_arrow.png,left_arrow.png,left_arrow.png,,,,,4,3,27,0,,,,,,,,,,,,,171.0802096999996,None,,,,,,,,,,,,,,,,,,,,,,,,,,,,,,172.09369269999934,None,172.09369269999934,None,172.09369269999934,None,172.09369269999934,None,172.09369269999934,None,172.09369269999934,None,172.09369269999934,None,a,1,0.43569900000056805,172.09369269999934,None,,,,,,,,,,,,,16,001,2022_Oct_19_1409,Flanker,2021.2.0,240.0147849098181,
incongruent-left.jpg,0,a,right_arrow.png,right_arrow.png,right_arrow.png,left_arrow.png,right_arrow.png,right_arrow.png,right_arrow.png,,,,,4,4,28,1,,,,,,,,,,,,,172.54415879999942,None,,,,,,,,,,,,,,,,,,,,,,,,,,,,,,173.5536287999994,None,173.5536287999994,None,173.5536287999994,None,173.5536287999994,None,173.5536287999994,None,173.5536287999994,None,173.5536287999994,None,a,1,0.7116660000001502,173.5536287999994,None,,,,,,,,,,,,,16,001,2022_Oct_19_1409,Flanker,2021.2.0,240.0147849098181,
incongruent-right.jpg,0,k,left_arrow.png,left_arrow.png,left_arrow.png,right_arrow.png,left_arrow.png,left_arrow.png,left_arrow.png,,,,,4,5,29,3,,,,,,,,,,,,,174.2791600999999,None,,,,,,,,,,,,,,,,,,,,,,,,,,,,,,175.29275049999978,None,175.29275049999978,None,175.29275049999978,None,175.29275049999978,None,175.29275049999978,None,175.29275049999978,None,175.29275049999978,None,k,1,0.636756000000787,175.29275049999978,None,,,,,,,,,,,,,16,001,2022_Oct_19_1409,Flanker,2021.2.0,240.0147849098181,
neutral left,0,a,neutral.png,neutral.png,neutral.png,left_arrow.png,neutral.png,neutral.png,neutral.png,,,,,5,0,30,4,,,,,,,,,,,,,175.94345879999946,None,,,,,,,,,,,,,,,,,,,,,,,,,,,,,,176.95727839999927,None,176.95727839999927,None,176.95727839999927,None,176.95727839999927,None,176.95727839999927,None,176.95727839999927,None,176.95727839999927,None,a,1,0.5964493999999831,176.95727839999927,None,,,,,,,,,,,,,16,001,2022_Oct_19_1409,Flanker,2021.2.0,240.0147849098181,
incongruent-left.jpg,0,a,right_arrow.png,right_arrow.png,right_arrow.png,left_arrow.png,right_arrow.png,right_arrow.png,right_arrow.png,,,,,5,1,31,1,,,,,,,,,,,,,177.56628589999946,None,,,,,,,,,,,,,,,,,,,,,,,,,,,,,,178.57973069999935,None,178.57973069999935,None,178.57973069999935,None,178.57973069999935,None,178.57973069999935,None,178.57973069999935,None,178.57973069999935,None,a,1,0.4705057000001034,178.57973069999935,None,,,,,,,,,,,,,16,001,2022_Oct_19_1409,Flanker,2021.2.0,240.0147849098181,
congruent-left.jpg,1,a,left_arrow.png,left_arrow.png,left_arrow.png,left_arrow.png,left_arrow.png,left_arrow.png,left_arrow.png,,,,,5,2,32,0,,,,,,,,,,,,,179.0637885999995,None,,,,,,,,,,,,,,,,,,,,,,,,,,,,,,180.07301259999986,None,180.07301259999986,None,180.07301259999986,None,180.07301259999986,None,180.07301259999986,None,180.07301259999986,None,180.07301259999986,None,a,1,0.43333809999967343,180.07301259999986,None,,,,,,,,,,,,,16,001,2022_Oct_19_1409,Flanker,2021.2.0,240.0147849098181,
incongruent-left.jpg,0,a,right_arrow.png,right_arrow.png,right_arrow.png,left_arrow.png,right_arrow.png,right_arrow.png,right_arrow.png,,,,,5,3,33,1,,,,,,,,,,,,,180.52371709999989,None,,,,,,,,,,,,,,,,,,,,,,,,,,,,,,181.53310799999963,None,181.53310799999963,None,181.53310799999963,None,181.53310799999963,None,181.53310799999963,None,181.53310799999963,None,181.53310799999963,None,a,1,0.7015449000000444,181.53310799999963,None,,,,,,,,,,,,,16,001,2022_Oct_19_1409,Flanker,2021.2.0,240.0147849098181,
congruent-left.jpg,1,a,left_arrow.png,left_arrow.png,left_arrow.png,left_arrow.png,left_arrow.png,left_arrow.png,left_arrow.png,,,,,5,4,34,0,,,,,,,,,,,,,182.25029369999993,None,,,,,,,,,,,,,,,,,,,,,,,,,,,,,,183.2597253999993,None,183.2597253999993,None,183.2597253999993,None,183.2597253999993,None,183.2597253999993,None,183.2597253999993,None,183.2597253999993,None,a,1,0.3671051000001171,183.2597253999993,None,,,,,,,,,,,,,16,001,2022_Oct_19_1409,Flanker,2021.2.0,240.0147849098181,
congruent-left.jpg,1,a,left_arrow.png,left_arrow.png,left_arrow.png,left_arrow.png,left_arrow.png,left_arrow.png,left_arrow.png,,,,,5,5,35,0,,,,,,,,,,,,,183.64363729999968,None,,,,,,,,,,,,,,,,,,,,,,,,,,,,,,184.65277220000007,None,184.65277220000007,None,184.65277220000007,None,184.65277220000007,None,184.65277220000007,None,184.65277220000007,None,184.65277220000007,None,a,1,0.3819759999996677,184.65277220000007,None,,,,,,,,,,,,,16,001,2022_Oct_19_1409,Flanker,2021.2.0,240.0147849098181,
incongruent-right.jpg,0,k,left_arrow.png,left_arrow.png,left_arrow.png,right_arrow.png,left_arrow.png,left_arrow.png,left_arrow.png,,,,,6,0,36,3,,,,,,,,,,,,,185.0533851,None,,,,,,,,,,,,,,,,,,,,,,,,,,,,,,186.06257060000007,None,186.06257060000007,None,186.06257060000007,None,186.06257060000007,None,186.06257060000007,None,186.06257060000007,None,186.06257060000007,None,a,0,0.34840019999955985,186.06257060000007,None,,,,,,,,,,,,,16,001,2022_Oct_19_1409,Flanker,2021.2.0,240.0147849098181,
neutral right,0,k,neutral.png,neutral.png,neutral.png,right_arrow.png,neutral.png,neutral.png,neutral.png,,,,,6,1,37,5,,,,,,,,,,,,,186.42957879999994,None,,,,,,,,,,,,,,,,,,,,,,,,,,,,,,187.4392270999997,None,187.4392270999997,None,187.4392270999997,None,187.4392270999997,None,187.4392270999997,None,187.4392270999997,None,187.4392270999997,None,k,1,0.3799447000001237,187.4392270999997,None,,,,,,,,,,,,,16,001,2022_Oct_19_1409,Flanker,2021.2.0,240.0147849098181,
incongruent-left.jpg,0,a,right_arrow.png,right_arrow.png,right_arrow.png,left_arrow.png,right_arrow.png,right_arrow.png,right_arrow.png,,,,,6,2,38,1,,,,,,,,,,,,,187.8313379000001,None,,,,,,,,,,,,,,,,,,,,,,,,,,,,,,188.84082729999955,None,188.84082729999955,None,188.84082729999955,None,188.84082729999955,None,188.84082729999955,None,188.84082729999955,None,188.84082729999955,None,a,1,0.4508560000003854,188.84082729999955,None,,,,,,,,,,,,,16,001,2022_Oct_19_1409,Flanker,2021.2.0,240.0147849098181,
congruent-left.jpg,1,a,left_arrow.png,left_arrow.png,left_arrow.png,left_arrow.png,left_arrow.png,left_arrow.png,left_arrow.png,,,,,6,3,39,0,,,,,,,,,,,,,189.30790179999985,None,,,,,,,,,,,,,,,,,,,,,,,,,,,,,,190.32150000000001,None,190.32150000000001,None,190.32150000000001,None,190.32150000000001,None,190.32150000000001,None,190.32150000000001,None,190.32150000000001,None,a,1,0.36205019999943033,190.32150000000001,None,,,,,,,,,,,,,16,001,2022_Oct_19_1409,Flanker,2021.2.0,240.0147849098181,
neutral left,0,a,neutral.png,neutral.png,neutral.png,left_arrow.png,neutral.png,neutral.png,neutral.png,,,,,6,4,40,4,,,,,,,,,,,,,190.6969055999998,None,,,,,,,,,,,,,,,,,,,,,,,,,,,,,,191.71043740000005,None,191.71043740000005,None,191.71043740000005,None,191.71043740000005,None,191.71043740000005,None,191.71043740000005,None,191.71043740000005,None,a,1,0.39727119999952265,191.71043740000005,None,,,,,,,,,,,,,16,001,2022_Oct_19_1409,Flanker,2021.2.0,240.0147849098181,
congruent-left.jpg,1,a,left_arrow.png,left_arrow.png,left_arrow.png,left_arrow.png,left_arrow.png,left_arrow.png,left_arrow.png,,,,,6,5,41,0,,,,,,,,,,,,,192.11921089999942,None,,,,,,,,,,,,,,,,,,,,,,,,,,,,,,193.1327943999995,None,193.1327943999995,None,193.1327943999995,None,193.1327943999995,None,193.1327943999995,None,193.1327943999995,None,193.1327943999995,None,a,1,0.6391437000002043,193.1327943999995,None,,,,,,,,,,,,,16,001,2022_Oct_19_1409,Flanker,2021.2.0,240.0147849098181,
incongruent-left.jpg,0,a,right_arrow.png,right_arrow.png,right_arrow.png,left_arrow.png,right_arrow.png,right_arrow.png,right_arrow.png,,,,,7,0,42,1,,,,,,,,,,,,,193.78348539999934,None,,,,,,,,,,,,,,,,,,,,,,,,,,,,,,194.7968250999993,None,194.7968250999993,None,194.7968250999993,None,194.7968250999993,None,194.7968250999993,None,194.7968250999993,None,194.7968250999993,None,a,1,0.35130479999952513,194.7968250999993,None,,,,,,,,,,,,,16,001,2022_Oct_19_1409,Flanker,2021.2.0,240.0147849098181,
incongruent-left.jpg,0,a,right_arrow.png,right_arrow.png,right_arrow.png,left_arrow.png,right_arrow.png,right_arrow.png,right_arrow.png,,,,,7,1,43,1,,,,,,,,,,,,,195.16385229999923,None,,,,,,,,,,,,,,,,,,,,,,,,,,,,,,196.17325189999974,None,196.17325189999974,None,196.17325189999974,None,196.17325189999974,None,196.17325189999974,None,196.17325189999974,None,196.17325189999974,None,a,1,0.3510872999995627,196.17325189999974,None,,,,,,,,,,,,,16,001,2022_Oct_19_1409,Flanker,2021.2.0,240.0147849098181,
congruent-right.jpg,1,k,right_arrow.png,right_arrow.png,right_arrow.png,right_arrow.png,right_arrow.png,right_arrow.png,right_arrow.png,,,,,7,2,44,2,,,,,,,,,,,,,196.5402970999994,None,,,,,,,,,,,,,,,,,,,,,,,,,,,,,,197.5538902999997,None,197.5538902999997,None,197.5538902999997,None,197.5538902999997,None,197.5538902999997,None,197.5538902999997,None,197.5538902999997,None,k,1,0.40263099999992846,197.5538902999997,None,,,,,,,,,,,,,16,001,2022_Oct_19_1409,Flanker,2021.2.0,240.0147849098181,
incongruent-right.jpg,0,k,left_arrow.png,left_arrow.png,left_arrow.png,right_arrow.png,left_arrow.png,left_arrow.png,left_arrow.png,,,,,7,3,45,3,,,,,,,,,,,,,197.9709871999994,None,,,,,,,,,,,,,,,,,,,,,,,,,,,,,,198.98065700000006,None,198.98065700000006,None,198.98065700000006,None,198.98065700000006,None,198.98065700000006,None,198.98065700000006,None,198.98065700000006,None,k,1,0.44005729999935284,198.98065700000006,None,,,,,,,,,,,,,16,001,2022_Oct_19_1409,Flanker,2021.2.0,240.0147849098181,
incongruent-right.jpg,0,k,left_arrow.png,left_arrow.png,left_arrow.png,right_arrow.png,left_arrow.png,left_arrow.png,left_arrow.png,,,,,7,4,46,3,,,,,,,,,,,,,199.43921789999968,None,,,,,,,,,,,,,,,,,,,,,,,,,,,,,,200.4531025999995,None,200.4531025999995,None,200.4531025999995,None,200.4531025999995,None,200.4531025999995,None,200.4531025999995,None,200.4531025999995,None,k,1,0.5919190000004164,200.4531025999995,None,,,,,,,,,,,,,16,001,2022_Oct_19_1409,Flanker,2021.2.0,240.0147849098181,
neutral right,0,k,neutral.png,neutral.png,neutral.png,right_arrow.png,neutral.png,neutral.png,neutral.png,,,,,7,5,47,5,,,,,,,,,,,,,201.06177369999932,None,,,,,,,,,,,,,,,,,,,,,,,,,,,,,,202.07118179999998,None,202.07118179999998,None,202.07118179999998,None,202.07118179999998,None,202.07118179999998,None,202.07118179999998,None,202.07118179999998,None,k,1,0.413960799999586,202.07118179999998,None,,,,,,,,,,,,,16,001,2022_Oct_19_1409,Flanker,2021.2.0,240.0147849098181,
,,,,,,,,,,,,,,,,,,,,,,,,,,,,,,,,,,,,,,,,,,,,,,,,,,,,,,,,,,,,,,,,,,,,,,,,,,,,,,,,202.5093237000001,None,space,4.192380800000137,202.5093237000001,None,,,,,,,16,001,2022_Oct_19_1409,Flanker,2021.2.0,240.0147849098181,
neutral left,0,a,neutral.png,neutral.png,neutral.png,left_arrow.png,neutral.png,neutral.png,neutral.png,,,,,,,,,0,0,0,4,,,,,,,,,206.7220295999996,None,,,,,,,,,,,,,,,,,,,,,,,,,,,,,,207.72766950000005,None,207.72766950000005,None,207.72766950000005,None,207.72766950000005,None,207.72766950000005,None,207.72766950000005,None,207.72766950000005,None,a,1,0.5982831999999689,207.72766950000005,None,,,,,,,,,,,,,16,001,2022_Oct_19_1409,Flanker,2021.2.0,240.0147849098181,
neutral left,0,a,neutral.png,neutral.png,neutral.png,left_arrow.png,neutral.png,neutral.png,neutral.png,,,,,,,,,0,1,1,4,,,,,,,,,208.34451379999973,None,,,,,,,,,,,,,,,,,,,,,,,,,,,,,,209.36226299999998,None,209.36226299999998,None,209.36226299999998,None,209.36226299999998,None,209.36226299999998,None,209.36226299999998,None,209.36226299999998,None,a,1,0.3878623999999036,209.36226299999998,None,,,,,,,,,,,,,16,001,2022_Oct_19_1409,Flanker,2021.2.0,240.0147849098181,
congruent-right.jpg,1,k,right_arrow.png,right_arrow.png,right_arrow.png,right_arrow.png,right_arrow.png,right_arrow.png,right_arrow.png,,,,,,,,,0,2,2,2,,,,,,,,,209.7627550999996,None,,,,,,,,,,,,,,,,,,,,,,,,,,,,,,210.7762520999995,None,210.7762520999995,None,210.7762520999995,None,210.7762520999995,None,210.7762520999995,None,210.7762520999995,None,210.7762520999995,None,k,1,0.6461355999999796,210.7762520999995,None,,,,,,,,,,,,,16,001,2022_Oct_19_1409,Flanker,2021.2.0,240.0147849098181,
incongruent-right.jpg,0,k,left_arrow.png,left_arrow.png,left_arrow.png,right_arrow.png,left_arrow.png,left_arrow.png,left_arrow.png,,,,,,,,,0,3,3,3,,,,,,,,,211.43528079999942,None,,,,,,,,,,,,,,,,,,,,,,,,,,,,,,212.44936179999968,None,212.44936179999968,None,212.44936179999968,None,212.44936179999968,None,212.44936179999968,None,212.44936179999968,None,212.44936179999968,None,k,1,0.5172468999999182,212.44936179999968,None,,,,,,,,,,,,,16,001,2022_Oct_19_1409,Flanker,2021.2.0,240.0147849098181,
congruent-right.jpg,1,k,right_arrow.png,right_arrow.png,right_arrow.png,right_arrow.png,right_arrow.png,right_arrow.png,right_arrow.png,,,,,,,,,0,4,4,2,,,,,,,,,212.98284199999944,None,,,,,,,,,,,,,,,,,,,,,,,,,,,,,,213.99637249999978,None,213.99637249999978,None,213.99637249999978,None,213.99637249999978,None,213.99637249999978,None,213.99637249999978,None,213.99637249999978,None,k,1,0.426403699999355,213.99637249999978,None,,,,,,,,,,,,,16,001,2022_Oct_19_1409,Flanker,2021.2.0,240.0147849098181,
congruent-left.jpg,1,a,left_arrow.png,left_arrow.png,left_arrow.png,left_arrow.png,left_arrow.png,left_arrow.png,left_arrow.png,,,,,,,,,0,5,5,0,,,,,,,,,214.43848119999984,None,,,,,,,,,,,,,,,,,,,,,,,,,,,,,,215.4440869,None,215.4440869,None,215.4440869,None,215.4440869,None,215.4440869,None,215.4440869,None,215.4440869,None,a,1,0.395351699999992,215.4440869,None,,,,,,,,,,,,,16,001,2022_Oct_19_1409,Flanker,2021.2.0,240.0147849098181,
incongruent-right.jpg,0,k,left_arrow.png,left_arrow.png,left_arrow.png,right_arrow.png,left_arrow.png,left_arrow.png,left_arrow.png,,,,,,,,,1,0,6,3,,,,,,,,,215.85271349999948,None,,,,,,,,,,,,,,,,,,,,,,,,,,,,,,216.8620559000001,None,216.8620559000001,None,216.8620559000001,None,216.8620559000001,None,216.8620559000001,None,216.8620559000001,None,216.8620559000001,None,k,1,0.545438500000273,216.8620559000001,None,,,,,,,,,,,,,16,001,2022_Oct_19_1409,Flanker,2021.2.0,240.0147849098181,
congruent-right.jpg,1,k,right_arrow.png,right_arrow.png,right_arrow.png,right_arrow.png,right_arrow.png,right_arrow.png,right_arrow.png,,,,,,,,,1,1,7,2,,,,,,,,,217.42117280000002,None,,,,,,,,,,,,,,,,,,,,,,,,,,,,,,218.43460090000008,None,218.43460090000008,None,218.43460090000008,None,218.43460090000008,None,218.43460090000008,None,218.43460090000008,None,218.43460090000008,None,k,1,0.4209278999996968,218.43460090000008,None,,,,,,,,,,,,,16,001,2022_Oct_19_1409,Flanker,2021.2.0,240.0147849098181,
congruent-left.jpg,1,a,left_arrow.png,left_arrow.png,left_arrow.png,left_arrow.png,left_arrow.png,left_arrow.png,left_arrow.png,,,,,,,,,1,2,8,0,,,,,,,,,218.86841449999974,None,,,,,,,,,,,,,,,,,,,,,,,,,,,,,,219.8818142,None,219.8818142,None,219.8818142,None,219.8818142,None,219.8818142,None,219.8818142,None,219.8818142,None,a,1,0.4297649999998612,219.8818142,None,,,,,,,,,,,,,16,001,2022_Oct_19_1409,Flanker,2021.2.0,240.0147849098181,
neutral right,0,k,neutral.png,neutral.png,neutral.png,right_arrow.png,neutral.png,neutral.png,neutral.png,,,,,,,,,1,3,9,5,,,,,,,,,220.32392529999925,None,,,,,,,,,,,,,,,,,,,,,,,,,,,,,,221.33745689999978,None,221.33745689999978,None,221.33745689999978,None,221.33745689999978,None,221.33745689999978,None,221.33745689999978,None,221.33745689999978,None,k,1,0.5903676000007181,221.33745689999978,None,,,,,,,,,,,,,16,001,2022_Oct_19_1409,Flanker,2021.2.0,240.0147849098181,
neutral left,0,a,neutral.png,neutral.png,neutral.png,left_arrow.png,neutral.png,neutral.png,neutral.png,,,,,,,,,1,4,10,4,,,,,,,,,221.94654019999962,None,,,,,,,,,,,,,,,,,,,,,,,,,,,,,,222.95601389999956,None,222.95601389999956,None,222.95601389999956,None,222.95601389999956,None,222.95601389999956,None,222.95601389999956,None,222.95601389999956,None,a,1,0.355988499999512,222.95601389999956,None,,,,,,,,,,,,,16,001,2022_Oct_19_1409,Flanker,2021.2.0,240.0147849098181,
neutral right,0,k,neutral.png,neutral.png,neutral.png,right_arrow.png,neutral.png,neutral.png,neutral.png,,,,,,,,,1,5,11,5,,,,,,,,,223.32295129999966,None,,,,,,,,,,,,,,,,,,,,,,,,,,,,,,224.33241129999988,None,224.33241129999988,None,224.33241129999988,None,224.33241129999988,None,224.33241129999988,None,224.33241129999988,None,224.33241129999988,None,k,1,0.4518164999999499,224.33241129999988,None,,,,,,,,,,,,,16,001,2022_Oct_19_1409,Flanker,2021.2.0,240.0147849098181,
neutral left,0,a,neutral.png,neutral.png,neutral.png,left_arrow.png,neutral.png,neutral.png,neutral.png,,,,,,,,,2,0,12,4,,,,,,,,,224.79959229999986,None,,,,,,,,,,,,,,,,,,,,,,,,,,,,,,225.8131384999997,None,225.8131384999997,None,225.8131384999997,None,225.8131384999997,None,225.8131384999997,None,225.8131384999997,None,225.8131384999997,None,a,1,0.4432784000000538,225.8131384999997,None,,,,,,,,,,,,,16,001,2022_Oct_19_1409,Flanker,2021.2.0,240.0147849098181,
incongruent-left.jpg,0,a,right_arrow.png,right_arrow.png,right_arrow.png,left_arrow.png,right_arrow.png,right_arrow.png,right_arrow.png,,,,,,,,,2,1,13,1,,,,,,,,,226.2718629000001,None,,,,,,,,,,,,,,,,,,,,,,,,,,,,,,227.28549359999943,None,227.28549359999943,None,227.28549359999943,None,227.28549359999943,None,227.28549359999943,None,227.28549359999943,None,227.28549359999943,None,a,1,0.5154331999992792,227.28549359999943,None,,,,,,,,,,,,,16,001,2022_Oct_19_1409,Flanker,2021.2.0,240.0147849098181,
incongruent-left.jpg,0,a,right_arrow.png,right_arrow.png,right_arrow.png,left_arrow.png,right_arrow.png,right_arrow.png,right_arrow.png,,,,,,,,,2,2,14,1,,,,,,,,,227.8193940000001,None,,,,,,,,,,,,,,,,,,,,,,,,,,,,,,228.82889799999975,None,228.82889799999975,None,228.82889799999975,None,228.82889799999975,None,228.82889799999975,None,228.82889799999975,None,228.82889799999975,None,a,1,0.427954700000555,228.82889799999975,None,,,,,,,,,,,,,16,001,2022_Oct_19_1409,Flanker,2021.2.0,240.0147849098181,
incongruent-right.jpg,0,k,left_arrow.png,left_arrow.png,left_arrow.png,right_arrow.png,left_arrow.png,left_arrow.png,left_arrow.png,,,,,,,,,2,3,15,3,,,,,,,,,229.27091909999945,None,,,,,,,,,,,,,,,,,,,,,,,,,,,,,,230.28467399999954,None,230.28467399999954,None,230.28467399999954,None,230.28467399999954,None,230.28467399999954,None,230.28467399999954,None,230.28467399999954,None,k,1,0.4363742999994429,230.28467399999954,None,,,,,,,,,,,,,16,001,2022_Oct_19_1409,Flanker,2021.2.0,240.0147849098181,
congruent-right.jpg,1,k,right_arrow.png,right_arrow.png,right_arrow.png,right_arrow.png,right_arrow.png,right_arrow.png,right_arrow.png,,,,,,,,,2,4,16,2,,,,,,,,,230.73496350000005,None,,,,,,,,,,,,,,,,,,,,,,,,,,,,,,231.74438539999937,None,231.74438539999937,None,231.74438539999937,None,231.74438539999937,None,231.74438539999937,None,231.74438539999937,None,231.74438539999937,None,k,1,0.46486730000015086,231.74438539999937,None,,,,,,,,,,,,,16,001,2022_Oct_19_1409,Flanker,2021.2.0,240.0147849098181,
incongruent-right.jpg,0,k,left_arrow.png,left_arrow.png,left_arrow.png,right_arrow.png,left_arrow.png,left_arrow.png,left_arrow.png,,,,,,,,,2,5,17,3,,,,,,,,,232.21988090000013,None,,,,,,,,,,,,,,,,,,,,,,,,,,,,,,233.23776139999973,None,233.23776139999973,None,233.23776139999973,None,233.23776139999973,None,233.23776139999973,None,233.23776139999973,None,233.23776139999973,None,k,1,0.42769440000029135,233.23776139999973,None,,,,,,,,,,,,,16,001,2022_Oct_19_1409,Flanker,2021.2.0,240.0147849098181,
incongruent-left.jpg,0,a,right_arrow.png,right_arrow.png,right_arrow.png,left_arrow.png,right_arrow.png,right_arrow.png,right_arrow.png,,,,,,,,,3,0,18,1,,,,,,,,,233.6799332999999,None,,,,,,,,,,,,,,,,,,,,,,,,,,,,,,234.6892644999998,None,234.6892644999998,None,234.6892644999998,None,234.6892644999998,None,234.6892644999998,None,234.6892644999998,None,234.6892644999998,None,k,0,0.4643568999999843,234.6892644999998,None,,,,,,,,,,,,,16,001,2022_Oct_19_1409,Flanker,2021.2.0,240.0147849098181,
congruent-left.jpg,1,a,left_arrow.png,left_arrow.png,left_arrow.png,left_arrow.png,left_arrow.png,left_arrow.png,left_arrow.png,,,,,,,,,3,1,19,0,,,,,,,,,235.16473889999997,None,,,,,,,,,,,,,,,,,,,,,,,,,,,,,,236.17839789999925,None,236.17839789999925,None,236.17839789999925,None,236.17839789999925,None,236.17839789999925,None,236.17839789999925,None,236.17839789999925,None,a,1,0.48744519999945624,236.17839789999925,None,,,,,,,,,,,,,16,001,2022_Oct_19_1409,Flanker,2021.2.0,240.0147849098181,
incongruent-left.jpg,0,a,right_arrow.png,right_arrow.png,right_arrow.png,left_arrow.png,right_arrow.png,right_arrow.png,right_arrow.png,,,,,,,,,3,2,20,1,,,,,,,,,236.67917429999943,None,,,,,,,,,,,,,,,,,,,,,,,,,,,,,,237.6839949999994,None,237.6839949999994,None,237.6839949999994,None,237.6839949999994,None,237.6839949999994,None,237.6839949999994,None,237.6839949999994,None,a,1,0.462089399999968,237.6839949999994,None,,,,,,,,,,,,,16,001,2022_Oct_19_1409,Flanker,2021.2.0,240.0147849098181,
neutral right,0,k,neutral.png,neutral.png,neutral.png,right_arrow.png,neutral.png,neutral.png,neutral.png,,,,,,,,,3,3,21,5,,,,,,,,,238.15958789999968,None,,,,,,,,,,,,,,,,,,,,,,,,,,,,,,239.16907509999965,None,239.16907509999965,None,239.16907509999965,None,239.16907509999965,None,239.16907509999965,None,239.16907509999965,None,239.16907509999965,None,k,1,0.4971357000003991,239.16907509999965,None,,,,,,,,,,,,,16,001,2022_Oct_19_1409,Flanker,2021.2.0,240.0147849098181,
neutral left,0,a,neutral.png,neutral.png,neutral.png,left_arrow.png,neutral.png,neutral.png,neutral.png,,,,,,,,,3,4,22,4,,,,,,,,,239.6777902999993,None,,,,,,,,,,,,,,,,,,,,,,,,,,,,,,240.6874197999996,None,240.6874197999996,None,240.6874197999996,None,240.6874197999996,None,240.6874197999996,None,240.6874197999996,None,240.6874197999996,None,a,1,0.4273470999996789,240.6874197999996,None,,,,,,,,,,,,,16,001,2022_Oct_19_1409,Flanker,2021.2.0,240.0147849098181,
incongruent-left.jpg,0,a,right_arrow.png,right_arrow.png,right_arrow.png,left_arrow.png,right_arrow.png,right_arrow.png,right_arrow.png,,,,,,,,,3,5,23,1,,,,,,,,,241.12947509999958,None,,,,,,,,,,,,,,,,,,,,,,,,,,,,,,242.1431603000001,None,242.1431603000001,None,242.1431603000001,None,242.1431603000001,None,242.1431603000001,None,242.1431603000001,None,242.1431603000001,None,a,1,0.4757847999999285,242.1431603000001,None,,,,,,,,,,,,,16,001,2022_Oct_19_1409,Flanker,2021.2.0,240.0147849098181,
congruent-left.jpg,1,a,left_arrow.png,left_arrow.png,left_arrow.png,left_arrow.png,left_arrow.png,left_arrow.png,left_arrow.png,,,,,,,,,4,0,24,0,,,,,,,,,242.6354096999994,None,,,,,,,,,,,,,,,,,,,,,,,,,,,,,,243.6530262999995,None,243.6530262999995,None,243.6530262999995,None,243.6530262999995,None,243.6530262999995,None,243.6530262999995,None,243.6530262999995,None,a,1,0.421797100000731,243.6530262999995,None,,,,,,,,,,,,,16,001,2022_Oct_19_1409,Flanker,2021.2.0,240.0147849098181,
neutral right,0,k,neutral.png,neutral.png,neutral.png,right_arrow.png,neutral.png,neutral.png,neutral.png,,,,,,,,,4,1,25,5,,,,,,,,,244.0870535999993,None,,,,,,,,,,,,,,,,,,,,,,,,,,,,,,245.10037079999984,None,245.10037079999984,None,245.10037079999984,None,245.10037079999984,None,245.10037079999984,None,245.10037079999984,None,245.10037079999984,None,k,1,0.4146610999996483,245.10037079999984,None,,,,,,,,,,,,,16,001,2022_Oct_19_1409,Flanker,2021.2.0,240.0147849098181,
neutral right,0,k,neutral.png,neutral.png,neutral.png,right_arrow.png,neutral.png,neutral.png,neutral.png,,,,,,,,,4,2,26,5,,,,,,,,,245.52594789999966,None,,,,,,,,,,,,,,,,,,,,,,,,,,,,,,246.53527469999972,None,246.53527469999972,None,246.53527469999972,None,246.53527469999972,None,246.53527469999972,None,246.53527469999972,None,246.53527469999972,None,k,1,0.4921359999998458,246.53527469999972,None,,,,,,,,,,,,,16,001,2022_Oct_19_1409,Flanker,2021.2.0,240.0147849098181,
congruent-right.jpg,1,k,right_arrow.png,right_arrow.png,right_arrow.png,right_arrow.png,right_arrow.png,right_arrow.png,right_arrow.png,,,,,,,,,4,3,27,2,,,,,,,,,247.04422869999962,None,,,,,,,,,,,,,,,,,,,,,,,,,,,,,,248.05778609999925,None,248.05778609999925,None,248.05778609999925,None,248.05778609999925,None,248.05778609999925,None,248.05778609999925,None,248.05778609999925,None,k,1,0.48167370000010123,248.05778609999925,None,,,,,,,,,,,,,16,001,2022_Oct_19_1409,Flanker,2021.2.0,240.0147849098181,
neutral left,0,a,neutral.png,neutral.png,neutral.png,left_arrow.png,neutral.png,neutral.png,neutral.png,,,,,,,,,4,4,28,4,,,,,,,,,248.5580614999999,None,,,,,,,,,,,,,,,,,,,,,,,,,,,,,,249.56760369999938,None,249.56760369999938,None,249.56760369999938,None,249.56760369999938,None,249.56760369999938,None,249.56760369999938,None,249.56760369999938,None,a,1,0.4360944999998537,249.56760369999938,None,,,,,,,,,,,,,16,001,2022_Oct_19_1409,Flanker,2021.2.0,240.0147849098181,
incongruent-right.jpg,0,k,left_arrow.png,left_arrow.png,left_arrow.png,right_arrow.png,left_arrow.png,left_arrow.png,left_arrow.png,,,,,,,,,4,5,29,3,,,,,,,,,250.01793689999977,None,,,,,,,,,,,,,,,,,,,,,,,,,,,,,,251.03156519999993,None,251.03156519999993,None,251.03156519999993,None,251.03156519999993,None,251.03156519999993,None,251.03156519999993,None,251.03156519999993,None,k,1,0.5643278999996255,251.03156519999993,None,,,,,,,,,,,,,16,001,2022_Oct_19_1409,Flanker,2021.2.0,240.0147849098181,
congruent-left.jpg,1,a,left_arrow.png,left_arrow.png,left_arrow.png,left_arrow.png,left_arrow.png,left_arrow.png,left_arrow.png,,,,,,,,,5,0,30,0,,,,,,,,,251.6071406000001,None,,,,,,,,,,,,,,,,,,,,,,,,,,,,,,252.6166218999997,None,252.6166218999997,None,252.6166218999997,None,252.6166218999997,None,252.6166218999997,None,252.6166218999997,None,252.6166218999997,None,a,1,0.4117052000001422,252.6166218999997,None,,,,,,,,,,,,,16,001,2022_Oct_19_1409,Flanker,2021.2.0,240.0147849098181,
neutral right,0,k,neutral.png,neutral.png,neutral.png,right_arrow.png,neutral.png,neutral.png,neutral.png,,,,,,,,,5,1,31,5,,,,,,,,,253.04239589999997,None,,,,,,,,,,,,,,,,,,,,,,,,,,,,,,254.0559386999994,None,254.0559386999994,None,254.0559386999994,None,254.0559386999994,None,254.0559386999994,None,254.0559386999994,None,254.0559386999994,None,k,1,0.4206848000003447,254.0559386999994,None,,,,,,,,,,,,,16,001,2022_Oct_19_1409,Flanker,2021.2.0,240.0147849098181,
neutral right,0,k,neutral.png,neutral.png,neutral.png,right_arrow.png,neutral.png,neutral.png,neutral.png,,,,,,,,,5,2,32,5,,,,,,,,,254.48960029999944,None,,,,,,,,,,,,,,,,,,,,,,,,,,,,,,255.50306939999973,None,255.50306939999973,None,255.50306939999973,None,255.50306939999973,None,255.50306939999973,None,255.50306939999973,None,255.50306939999973,None,k,1,0.5016827999997986,255.50306939999973,None,,,,,,,,,,,,,16,001,2022_Oct_19_1409,Flanker,2021.2.0,240.0147849098181,
incongruent-right.jpg,0,k,left_arrow.png,left_arrow.png,left_arrow.png,right_arrow.png,left_arrow.png,left_arrow.png,left_arrow.png,,,,,,,,,5,3,33,3,,,,,,,,,256.02055309999923,None,,,,,,,,,,,,,,,,,,,,,,,,,,,,,,257.02979719999985,None,257.02979719999985,None,257.02979719999985,None,257.02979719999985,None,257.02979719999985,None,257.02979719999985,None,257.02979719999985,None,k,1,0.5831453000000693,257.02979719999985,None,,,,,,,,,,,,,16,001,2022_Oct_19_1409,Flanker,2021.2.0,240.0147849098181,
neutral left,0,a,neutral.png,neutral.png,neutral.png,left_arrow.png,neutral.png,neutral.png,neutral.png,,,,,,,,,5,4,34,4,,,,,,,,,257.6305360999995,None,,,,,,,,,,,,,,,,,,,,,,,,,,,,,,258.63972549999926,None,258.63972549999926,None,258.63972549999926,None,258.63972549999926,None,258.63972549999926,None,258.63972549999926,None,258.63972549999926,None,a,1,0.4293236000003162,258.63972549999926,None,,,,,,,,,,,,,16,001,2022_Oct_19_1409,Flanker,2021.2.0,240.0147849098181,
congruent-left.jpg,1,a,left_arrow.png,left_arrow.png,left_arrow.png,left_arrow.png,left_arrow.png,left_arrow.png,left_arrow.png,,,,,,,,,5,5,35,0,,,,,,,,,259.0817761999997,None,,,,,,,,,,,,,,,,,,,,,,,,,,,,,,260.09555629999977,None,260.09555629999977,None,260.09555629999977,None,260.09555629999977,None,260.09555629999977,None,260.09555629999977,None,260.09555629999977,None,a,1,0.4135170999998081,260.09555629999977,None,,,,,,,,,,,,,16,001,2022_Oct_19_1409,Flanker,2021.2.0,240.0147849098181,
neutral left,0,a,neutral.png,neutral.png,neutral.png,left_arrow.png,neutral.png,neutral.png,neutral.png,,,,,,,,,6,0,36,4,,,,,,,,,260.5208905999998,None,,,,,,,,,,,,,,,,,,,,,,,,,,,,,,261.5302365999996,None,261.5302365999996,None,261.5302365999996,None,261.5302365999996,None,261.5302365999996,None,261.5302365999996,None,261.5302365999996,None,a,1,0.36305220000031113,261.5302365999996,None,,,,,,,,,,,,,16,001,2022_Oct_19_1409,Flanker,2021.2.0,240.0147849098181,
incongruent-right.jpg,0,k,left_arrow.png,left_arrow.png,left_arrow.png,right_arrow.png,left_arrow.png,left_arrow.png,left_arrow.png,,,,,,,,,6,1,37,3,,,,,,,,,261.90581680000014,None,,,,,,,,,,,,,,,,,,,,,,,,,,,,,,262.9194232,None,262.9194232,None,262.9194232,None,262.9194232,None,262.9194232,None,262.9194232,None,262.9194232,None,k,1,0.47037879999970755,262.9194232,None,,,,,,,,,,,,,16,001,2022_Oct_19_1409,Flanker,2021.2.0,240.0147849098181,
congruent-left.jpg,1,a,left_arrow.png,left_arrow.png,left_arrow.png,left_arrow.png,left_arrow.png,left_arrow.png,left_arrow.png,,,,,,,,,6,2,38,0,,,,,,,,,263.4032551,None,,,,,,,,,,,,,,,,,,,,,,,,,,,,,,264.4126381999995,None,264.4126381999995,None,264.4126381999995,None,264.4126381999995,None,264.4126381999995,None,264.4126381999995,None,264.4126381999995,None,a,1,0.409383400000479,264.4126381999995,None,,,,,,,,,,,,,16,001,2022_Oct_19_1409,Flanker,2021.2.0,240.0147849098181,
incongruent-left.jpg,0,a,right_arrow.png,right_arrow.png,right_arrow.png,left_arrow.png,right_arrow.png,right_arrow.png,right_arrow.png,,,,,,,,,6,3,39,1,,,,,,,,,264.83815349999986,None,,,,,,,,,,,,,,,,,,,,,,,,,,,,,,265.8474037999995,None,265.8474037999995,None,265.8474037999995,None,265.8474037999995,None,265.8474037999995,None,265.8474037999995,None,265.8474037999995,None,a,1,0.4946663999999146,265.8474037999995,None,,,,,,,,,,,,,16,001,2022_Oct_19_1409,Flanker,2021.2.0,240.0147849098181,
incongruent-right.jpg,0,k,left_arrow.png,left_arrow.png,left_arrow.png,right_arrow.png,left_arrow.png,left_arrow.png,left_arrow.png,,,,,,,,,6,4,40,3,,,,,,,,,266.3563994999995,None,,,,,,,,,,,,,,,,,,,,,,,,,,,,,,267.3656035999993,None,267.3656035999993,None,267.3656035999993,None,267.3656035999993,None,267.3656035999993,None,267.3656035999993,None,267.3656035999993,None,k,1,0.36079920000065613,267.3656035999993,None,,,,,,,,,,,,,16,001,2022_Oct_19_1409,Flanker,2021.2.0,240.0147849098181,
congruent-right.jpg,1,k,right_arrow.png,right_arrow.png,right_arrow.png,right_arrow.png,right_arrow.png,right_arrow.png,right_arrow.png,,,,,,,,,6,5,41,2,,,,,,,,,267.74116329999924,None,,,,,,,,,,,,,,,,,,,,,,,,,,,,,,268.75465319999967,None,268.75465319999967,None,268.75465319999967,None,268.75465319999967,None,268.75465319999967,None,268.75465319999967,None,268.75465319999967,None,k,1,0.4516825999999128,268.75465319999967,None,,,,,,,,,,,,,16,001,2022_Oct_19_1409,Flanker,2021.2.0,240.0147849098181,
incongruent-left.jpg,0,a,right_arrow.png,right_arrow.png,right_arrow.png,left_arrow.png,right_arrow.png,right_arrow.png,right_arrow.png,,,,,,,,,7,0,42,1,,,,,,,,,269.22192089999953,None,,,,,,,,,,,,,,,,,,,,,,,,,,,,,,270.239552,None,270.239552,None,270.239552,None,270.239552,None,270.239552,None,270.239552,None,270.239552,None,a,1,0.4389062999998714,270.239552,None,,,,,,,,,,,,,16,001,2022_Oct_19_1409,Flanker,2021.2.0,240.0147849098181,
congruent-right.jpg,1,k,right_arrow.png,right_arrow.png,right_arrow.png,right_arrow.png,right_arrow.png,right_arrow.png,right_arrow.png,,,,,,,,,7,1,43,2,,,,,,,,,270.69020139999975,None,,,,,,,,,,,,,,,,,,,,,,,,,,,,,,271.69949709999946,None,271.69949709999946,None,271.69949709999946,None,271.69949709999946,None,271.69949709999946,None,271.69949709999946,None,271.69949709999946,None,k,1,0.36316619999979594,271.69949709999946,None,,,,,,,,,,,,,16,001,2022_Oct_19_1409,Flanker,2021.2.0,240.0147849098181,
neutral right,0,k,neutral.png,neutral.png,neutral.png,right_arrow.png,neutral.png,neutral.png,neutral.png,,,,,,,,,7,2,44,5,,,,,,,,,272.0748715,None,,,,,,,,,,,,,,,,,,,,,,,,,,,,,,273.0842384999996,None,273.0842384999996,None,273.0842384999996,None,273.0842384999996,None,273.0842384999996,None,273.0842384999996,None,273.0842384999996,None,k,1,0.46683410000059666,273.0842384999996,None,,,,,,,,,,,,,16,001,2022_Oct_19_1409,Flanker,2021.2.0,240.0147849098181,
congruent-left.jpg,1,a,left_arrow.png,left_arrow.png,left_arrow.png,left_arrow.png,left_arrow.png,left_arrow.png,left_arrow.png,,,,,,,,,7,3,45,0,,,,,,,,,273.5682108000001,None,,,,,,,,,,,,,,,,,,,,,,,,,,,,,,274.5816571999994,None,274.5816571999994,None,274.5816571999994,None,274.5816571999994,None,274.5816571999994,None,274.5816571999994,None,274.5816571999994,None,a,1,0.4335905999996612,274.5816571999994,None,,,,,,,,,,,,,16,001,2022_Oct_19_1409,Flanker,2021.2.0,240.0147849098181,
incongruent-left.jpg,0,a,right_arrow.png,right_arrow.png,right_arrow.png,left_arrow.png,right_arrow.png,right_arrow.png,right_arrow.png,,,,,,,,,7,4,46,1,,,,,,,,,275.03196299999945,None,,,,,,,,,,,,,,,,,,,,,,,,,,,,,,276.0498829999997,None,276.0498829999997,None,276.0498829999997,None,276.0498829999997,None,276.0498829999997,None,276.0498829999997,None,276.0498829999997,None,a,1,0.589409500000329,276.0498829999997,None,,,,,,,,,,,,,16,001,2022_Oct_19_1409,Flanker,2021.2.0,240.0147849098181,
congruent-right.jpg,1,k,right_arrow.png,right_arrow.png,right_arrow.png,right_arrow.png,right_arrow.png,right_arrow.png,right_arrow.png,,,,,,,,,7,5,47,2,,,,,,,,,276.65071649999936,None,,,,,,,,,,,,,,,,,,,,,,,,,,,,,,277.6599069999993,None,277.6599069999993,None,277.6599069999993,None,277.6599069999993,None,277.6599069999993,None,277.6599069999993,None,277.6599069999993,None,k,1,0.5716338000001997,277.6599069999993,None,,,,,,,,,,,,,16,001,2022_Oct_19_1409,Flanker,2021.2.0,240.0147849098181,
,,,,,,,,,,,,,,,,,,,,,,,,,,,,,,,,,,,,,,,,,,,,,,,,,,,,,,,,,,,,,,,,,,,,,,,,,,,,,,,,278.25626159999956,None,space,2.391598900000645,278.25626159999956,None,,,,,,,16,001,2022_Oct_19_1409,Flanker,2021.2.0,240.0147849098181,
congruent-left.jpg,1,a,left_arrow.png,left_arrow.png,left_arrow.png,left_arrow.png,left_arrow.png,left_arrow.png,left_arrow.png,,,,,,,,,,,,,0,0,0,0,,,,,280.6674930999998,None,,,,,,,,,,,,,,,,,,,,,,,,,,,,,,281.67251979999946,None,281.67251979999946,None,281.67251979999946,None,281.67251979999946,None,281.67251979999946,None,281.67251979999946,None,281.67251979999946,None,a,1,0.44753290000062407,281.67251979999946,None,,,,,,,,,,,,,16,001,2022_Oct_19_1409,Flanker,2021.2.0,240.0147849098181,
neutral right,0,k,neutral.png,neutral.png,neutral.png,right_arrow.png,neutral.png,neutral.png,neutral.png,,,,,,,,,,,,,0,1,1,5,,,,,282.13147690000005,None,,,,,,,,,,,,,,,,,,,,,,,,,,,,,,283.1449167999999,None,283.1449167999999,None,283.1449167999999,None,283.1449167999999,None,283.1449167999999,None,283.1449167999999,None,283.1449167999999,None,k,1,0.46333429999958753,283.1449167999999,None,,,,,,,,,,,,,16,001,2022_Oct_19_1409,Flanker,2021.2.0,240.0147849098181,
incongruent-left.jpg,0,a,right_arrow.png,right_arrow.png,right_arrow.png,left_arrow.png,right_arrow.png,right_arrow.png,right_arrow.png,,,,,,,,,,,,,0,2,2,1,,,,,283.62071019999985,None,,,,,,,,,,,,,,,,,,,,,,,,,,,,,,284.63410979999935,None,284.63410979999935,None,284.63410979999935,None,284.63410979999935,None,284.63410979999935,None,284.63410979999935,None,284.63410979999935,None,a,1,0.4945364999994126,284.63410979999935,None,,,,,,,,,,,,,16,001,2022_Oct_19_1409,Flanker,2021.2.0,240.0147849098181,
congruent-left.jpg,1,a,left_arrow.png,left_arrow.png,left_arrow.png,left_arrow.png,left_arrow.png,left_arrow.png,left_arrow.png,,,,,,,,,,,,,0,3,3,0,,,,,285.1429971999996,None,,,,,,,,,,,,,,,,,,,,,,,,,,,,,,286.1480969999993,None,286.1480969999993,None,286.1480969999993,None,286.1480969999993,None,286.1480969999993,None,286.1480969999993,None,286.1480969999993,None,a,1,0.3885437999997521,286.1480969999993,None,,,,,,,,,,,,,16,001,2022_Oct_19_1409,Flanker,2021.2.0,240.0147849098181,
incongruent-left.jpg,0,a,right_arrow.png,right_arrow.png,right_arrow.png,left_arrow.png,right_arrow.png,right_arrow.png,right_arrow.png,,,,,,,,,,,,,0,4,4,1,,,,,286.5486605999995,None,,,,,,,,,,,,,,,,,,,,,,,,,,,,,,287.56210199999987,None,287.56210199999987,None,287.56210199999987,None,287.56210199999987,None,287.56210199999987,None,287.56210199999987,None,287.56210199999987,None,a,1,0.9508237000000008,287.56210199999987,None,,,,,,,,,,,,,16,001,2022_Oct_19_1409,Flanker,2021.2.0,240.0147849098181,
congruent-right.jpg,1,k,right_arrow.png,right_arrow.png,right_arrow.png,right_arrow.png,right_arrow.png,right_arrow.png,right_arrow.png,,,,,,,,,,,,,0,5,5,2,,,,,288.5296355999999,None,,,,,,,,,,,,,,,,,,,,,,,,,,,,,,289.53929439999956,None,289.53929439999956,None,289.53929439999956,None,289.53929439999956,None,289.53929439999956,None,289.53929439999956,None,289.53929439999956,None,k,1,0.45415199999933975,289.53929439999956,None,,,,,,,,,,,,,16,001,2022_Oct_19_1409,Flanker,2021.2.0,240.0147849098181,
congruent-right.jpg,1,k,right_arrow.png,right_arrow.png,right_arrow.png,right_arrow.png,right_arrow.png,right_arrow.png,right_arrow.png,,,,,,,,,,,,,1,0,6,2,,,,,290.00649859999976,None,,,,,,,,,,,,,,,,,,,,,,,,,,,,,,291.01143090000005,None,291.01143090000005,None,291.01143090000005,None,291.01143090000005,None,291.01143090000005,None,291.01143090000005,None,291.01143090000005,None,k,1,0.5181774000002406,291.01143090000005,None,,,,,,,,,,,,,16,001,2022_Oct_19_1409,Flanker,2021.2.0,240.0147849098181,
congruent-right.jpg,1,k,right_arrow.png,right_arrow.png,right_arrow.png,right_arrow.png,right_arrow.png,right_arrow.png,right_arrow.png,,,,,,,,,,,,,1,1,7,2,,,,,291.54567659999975,None,,,,,,,,,,,,,,,,,,,,,,,,,,,,,,292.5550035999995,None,292.5550035999995,None,292.5550035999995,None,292.5550035999995,None,292.5550035999995,None,292.5550035999995,None,292.5550035999995,None,k,1,0.3830189000000246,292.5550035999995,None,,,,,,,,,,,,,16,001,2022_Oct_19_1409,Flanker,2021.2.0,240.0147849098181,
neutral left,0,a,neutral.png,neutral.png,neutral.png,left_arrow.png,neutral.png,neutral.png,neutral.png,,,,,,,,,,,,,1,2,8,4,,,,,292.9555191999998,None,,,,,,,,,,,,,,,,,,,,,,,,,,,,,,293.9689297999994,None,293.9689297999994,None,293.9689297999994,None,293.9689297999994,None,293.9689297999994,None,293.9689297999994,None,293.9689297999994,None,a,1,0.46479289999933826,293.9689297999994,None,,,,,,,,,,,,,16,001,2022_Oct_19_1409,Flanker,2021.2.0,240.0147849098181,
neutral right,0,k,neutral.png,neutral.png,neutral.png,right_arrow.png,neutral.png,neutral.png,neutral.png,,,,,,,,,,,,,1,3,9,5,,,,,294.45260039999994,None,,,,,,,,,,,,,,,,,,,,,,,,,,,,,,295.46227329999965,None,295.46227329999965,None,295.46227329999965,None,295.46227329999965,None,295.46227329999965,None,295.46227329999965,None,295.46227329999965,None,k,1,0.7239938999991864,295.46227329999965,None,,,,,,,,,,,,,16,001,2022_Oct_19_1409,Flanker,2021.2.0,240.0147849098181,
incongruent-right.jpg,0,k,left_arrow.png,left_arrow.png,left_arrow.png,right_arrow.png,left_arrow.png,left_arrow.png,left_arrow.png,,,,,,,,,,,,,1,4,10,3,,,,,296.20475459999943,None,,,,,,,,,,,,,,,,,,,,,,,,,,,,,,297.21830769999997,None,297.21830769999997,None,297.21830769999997,None,297.21830769999997,None,297.21830769999997,None,297.21830769999997,None,297.21830769999997,None,a,0,0.3841637000004994,297.21830769999997,None,,,,,,,,,,,,,16,001,2022_Oct_19_1409,Flanker,2021.2.0,240.0147849098181,
congruent-right.jpg,1,k,right_arrow.png,right_arrow.png,right_arrow.png,right_arrow.png,right_arrow.png,right_arrow.png,right_arrow.png,,,,,,,,,,,,,1,5,11,2,,,,,297.6187239000001,None,,,,,,,,,,,,,,,,,,,,,,,,,,,,,,298.6322051999996,None,298.6322051999996,None,298.6322051999996,None,298.6322051999996,None,298.6322051999996,None,298.6322051999996,None,298.6322051999996,None,k,1,0.40234070000042266,298.6322051999996,None,,,,,,,,,,,,,16,001,2022_Oct_19_1409,Flanker,2021.2.0,240.0147849098181,
neutral left,0,a,neutral.png,neutral.png,neutral.png,left_arrow.png,neutral.png,neutral.png,neutral.png,,,,,,,,,,,,,2,0,12,4,,,,,299.04943430000003,None,,,,,,,,,,,,,,,,,,,,,,,,,,,,,,300.0586967999998,None,300.0586967999998,None,300.0586967999998,None,300.0586967999998,None,300.0586967999998,None,300.0586967999998,None,300.0586967999998,None,a,1,0.7280882000004567,300.0586967999998,None,,,,,,,,,,,,,16,001,2022_Oct_19_1409,Flanker,2021.2.0,240.0147849098181,
congruent-left.jpg,1,a,left_arrow.png,left_arrow.png,left_arrow.png,left_arrow.png,left_arrow.png,left_arrow.png,left_arrow.png,,,,,,,,,,,,,2,1,13,0,,,,,300.80136140000013,None,,,,,,,,,,,,,,,,,,,,,,,,,,,,,,301.8105631999997,None,301.8105631999997,None,301.8105631999997,None,301.8105631999997,None,301.8105631999997,None,301.8105631999997,None,301.8105631999997,None,a,1,0.4802791000001889,301.8105631999997,None,,,,,,,,,,,,,16,001,2022_Oct_19_1409,Flanker,2021.2.0,240.0147849098181,
incongruent-left.jpg,0,a,right_arrow.png,right_arrow.png,right_arrow.png,left_arrow.png,right_arrow.png,right_arrow.png,right_arrow.png,,,,,,,,,,,,,2,2,14,1,,,,,302.3028973999999,None,,,,,,,,,,,,,,,,,,,,,,,,,,,,,,303.3121721999996,None,303.3121721999996,None,303.3121721999996,None,303.3121721999996,None,303.3121721999996,None,303.3121721999996,None,303.3121721999996,None,k,0,0.48309900000003836,303.3121721999996,None,,,,,,,,,,,,,16,001,2022_Oct_19_1409,Flanker,2021.2.0,240.0147849098181,
neutral left,0,a,neutral.png,neutral.png,neutral.png,left_arrow.png,neutral.png,neutral.png,neutral.png,,,,,,,,,,,,,2,3,15,4,,,,,303.8127336999996,None,,,,,,,,,,,,,,,,,,,,,,,,,,,,,,304.8262697,None,304.8262697,None,304.8262697,None,304.8262697,None,304.8262697,None,304.8262697,None,304.8262697,None,a,1,0.40924289999929897,304.8262697,None,,,,,,,,,,,,,16,001,2022_Oct_19_1409,Flanker,2021.2.0,240.0147849098181,
congruent-left.jpg,1,a,left_arrow.png,left_arrow.png,left_arrow.png,left_arrow.png,left_arrow.png,left_arrow.png,left_arrow.png,,,,,,,,,,,,,2,4,16,0,,,,,305.2518580999995,None,,,,,,,,,,,,,,,,,,,,,,,,,,,,,,306.2653563999993,None,306.2653563999993,None,306.2653563999993,None,306.2653563999993,None,306.2653563999993,None,306.2653563999993,None,306.2653563999993,None,a,1,0.5140738000000056,306.2653563999993,None,,,,,,,,,,,,,16,001,2022_Oct_19_1409,Flanker,2021.2.0,240.0147849098181,
incongruent-right.jpg,0,k,left_arrow.png,left_arrow.png,left_arrow.png,right_arrow.png,left_arrow.png,left_arrow.png,left_arrow.png,,,,,,,,,,,,,2,5,17,3,,,,,306.7909811999998,None,,,,,,,,,,,,,,,,,,,,,,,,,,,,,,307.804521,None,307.804521,None,307.804521,None,307.804521,None,307.804521,None,307.804521,None,307.804521,None,k,1,0.6151269000001776,307.804521,None,,,,,,,,,,,,,16,001,2022_Oct_19_1409,Flanker,2021.2.0,240.0147849098181,
incongruent-left.jpg,0,a,right_arrow.png,right_arrow.png,right_arrow.png,left_arrow.png,right_arrow.png,right_arrow.png,right_arrow.png,,,,,,,,,,,,,3,0,18,1,,,,,308.4385788999998,None,,,,,,,,,,,,,,,,,,,,,,,,,,,,,,309.45202339999923,None,309.45202339999923,None,309.45202339999923,None,309.45202339999923,None,309.45202339999923,None,309.45202339999923,None,309.45202339999923,None,a,1,0.4798272999996698,309.45202339999923,None,,,,,,,,,,,,,16,001,2022_Oct_19_1409,Flanker,2021.2.0,240.0147849098181,
incongruent-right.jpg,0,k,left_arrow.png,left_arrow.png,left_arrow.png,right_arrow.png,left_arrow.png,left_arrow.png,left_arrow.png,,,,,,,,,,,,,3,1,19,3,,,,,309.9444571999993,None,,,,,,,,,,,,,,,,,,,,,,,,,,,,,,310.9620497999995,None,310.9620497999995,None,310.9620497999995,None,310.9620497999995,None,310.9620497999995,None,310.9620497999995,None,310.9620497999995,None,k,1,0.41799580000042624,310.9620497999995,None,,,,,,,,,,,,,16,001,2022_Oct_19_1409,Flanker,2021.2.0,240.0147849098181,
neutral right,0,k,neutral.png,neutral.png,neutral.png,right_arrow.png,neutral.png,neutral.png,neutral.png,,,,,,,,,,,,,3,2,20,5,,,,,311.39583219999986,None,,,,,,,,,,,,,,,,,,,,,,,,,,,,,,312.4052308999999,None,312.4052308999999,None,312.4052308999999,None,312.4052308999999,None,312.4052308999999,None,312.4052308999999,None,312.4052308999999,None,k,1,0.5750735999999961,312.4052308999999,None,,,,,,,,,,,,,16,001,2022_Oct_19_1409,Flanker,2021.2.0,240.0147849098181,
incongruent-right.jpg,0,k,left_arrow.png,left_arrow.png,left_arrow.png,right_arrow.png,left_arrow.png,left_arrow.png,left_arrow.png,,,,,,,,,,,,,3,3,21,3,,,,,312.9972651999997,None,,,,,,,,,,,,,,,,,,,,,,,,,,,,,,314.01524419999987,None,314.01524419999987,None,314.01524419999987,None,314.01524419999987,None,314.01524419999987,None,314.01524419999987,None,314.01524419999987,None,k,1,0.6693393000005017,314.01524419999987,None,,,,,,,,,,,,,16,001,2022_Oct_19_1409,Flanker,2021.2.0,240.0147849098181,
congruent-right.jpg,1,k,right_arrow.png,right_arrow.png,right_arrow.png,right_arrow.png,right_arrow.png,right_arrow.png,right_arrow.png,,,,,,,,,,,,,3,4,22,2,,,,,314.6994717999996,None,,,,,,,,,,,,,,,,,,,,,,,,,,,,,,315.7085010999999,None,315.7085010999999,None,315.7085010999999,None,315.7085010999999,None,315.7085010999999,None,315.7085010999999,None,315.7085010999999,None,k,1,0.4402098999998998,315.7085010999999,None,,,,,,,,,,,,,16,001,2022_Oct_19_1409,Flanker,2021.2.0,240.0147849098181,
congruent-left.jpg,1,a,left_arrow.png,left_arrow.png,left_arrow.png,left_arrow.png,left_arrow.png,left_arrow.png,left_arrow.png,,,,,,,,,,,,,3,5,23,0,,,,,316.16730539999935,None,,,,,,,,,,,,,,,,,,,,,,,,,,,,,,317.1811024999997,None,317.1811024999997,None,317.1811024999997,None,317.1811024999997,None,317.1811024999997,None,317.1811024999997,None,317.1811024999997,None,a,1,0.7038685999996233,317.1811024999997,None,,,,,,,,,,,,,16,001,2022_Oct_19_1409,Flanker,2021.2.0,240.0147849098181,
neutral right,0,k,neutral.png,neutral.png,neutral.png,right_arrow.png,neutral.png,neutral.png,neutral.png,,,,,,,,,,,,,4,0,24,5,,,,,317.89840229999936,None,,,,,,,,,,,,,,,,,,,,,,,,,,,,,,318.90800039999976,None,318.90800039999976,None,318.90800039999976,None,318.90800039999976,None,318.90800039999976,None,318.90800039999976,None,318.90800039999976,None,k,1,0.4574614000002839,318.90800039999976,None,,,,,,,,,,,,,16,001,2022_Oct_19_1409,Flanker,2021.2.0,240.0147849098181,
incongruent-left.jpg,0,a,right_arrow.png,right_arrow.png,right_arrow.png,left_arrow.png,right_arrow.png,right_arrow.png,right_arrow.png,,,,,,,,,,,,,4,1,25,1,,,,,319.3835196,None,,,,,,,,,,,,,,,,,,,,,,,,,,,,,,320.3929793999996,None,320.3929793999996,None,320.3929793999996,None,320.3929793999996,None,320.3929793999996,None,320.3929793999996,None,320.3929793999996,None,a,1,0.4844052999997075,320.3929793999996,None,,,,,,,,,,,,,16,001,2022_Oct_19_1409,Flanker,2021.2.0,240.0147849098181,
incongruent-right.jpg,0,k,left_arrow.png,left_arrow.png,left_arrow.png,right_arrow.png,left_arrow.png,left_arrow.png,left_arrow.png,,,,,,,,,,,,,4,2,26,3,,,,,320.89345649999996,None,,,,,,,,,,,,,,,,,,,,,,,,,,,,,,321.9068942999993,None,321.9068942999993,None,321.9068942999993,None,321.9068942999993,None,321.9068942999993,None,321.9068942999993,None,321.9068942999993,None,a,0,0.4588561000000482,321.9068942999993,None,,,,,,,,,,,,,16,001,2022_Oct_19_1409,Flanker,2021.2.0,240.0147849098181,
neutral right,0,k,neutral.png,neutral.png,neutral.png,right_arrow.png,neutral.png,neutral.png,neutral.png,,,,,,,,,,,,,4,3,27,5,,,,,322.3824967999999,None,,,,,,,,,,,,,,,,,,,,,,,,,,,,,,323.3959933999995,None,323.3959933999995,None,323.3959933999995,None,323.3959933999995,None,323.3959933999995,None,323.3959933999995,None,323.3959933999995,None,k,1,0.35416480000003503,323.3959933999995,None,,,,,,,,,,,,,16,001,2022_Oct_19_1409,Flanker,2021.2.0,240.0147849098181,
congruent-right.jpg,1,k,right_arrow.png,right_arrow.png,right_arrow.png,right_arrow.png,right_arrow.png,right_arrow.png,right_arrow.png,,,,,,,,,,,,,4,4,28,2,,,,,323.7631537999996,None,,,,,,,,,,,,,,,,,,,,,,,,,,,,,,324.7724475999994,None,324.7724475999994,None,324.7724475999994,None,324.7724475999994,None,324.7724475999994,None,324.7724475999994,None,324.7724475999994,None,k,1,0.4097993999994287,324.7724475999994,None,,,,,,,,,,,,,16,001,2022_Oct_19_1409,Flanker,2021.2.0,240.0147849098181,
neutral right,0,k,neutral.png,neutral.png,neutral.png,right_arrow.png,neutral.png,neutral.png,neutral.png,,,,,,,,,,,,,4,5,29,5,,,,,325.1980817999993,None,,,,,,,,,,,,,,,,,,,,,,,,,,,,,,326.21153479999975,None,326.21153479999975,None,326.21153479999975,None,326.21153479999975,None,326.21153479999975,None,326.21153479999975,None,326.21153479999975,None,k,1,0.4189068000005136,326.21153479999975,None,,,,,,,,,,,,,16,001,2022_Oct_19_1409,Flanker,2021.2.0,240.0147849098181,
neutral left,0,a,neutral.png,neutral.png,neutral.png,left_arrow.png,neutral.png,neutral.png,neutral.png,,,,,,,,,,,,,5,0,30,4,,,,,326.6453877999993,None,,,,,,,,,,,,,,,,,,,,,,,,,,,,,,327.65894469999967,None,327.65894469999967,None,327.65894469999967,None,327.65894469999967,None,327.65894469999967,None,327.65894469999967,None,327.65894469999967,None,a,1,0.5077231999994183,327.65894469999967,None,,,,,,,,,,,,,16,001,2022_Oct_19_1409,Flanker,2021.2.0,240.0147849098181,
neutral left,0,a,neutral.png,neutral.png,neutral.png,left_arrow.png,neutral.png,neutral.png,neutral.png,,,,,,,,,,,,,5,1,31,4,,,,,328.18451579999964,None,,,,,,,,,,,,,,,,,,,,,,,,,,,,,,329.18947919999937,None,329.18947919999937,None,329.18947919999937,None,329.18947919999937,None,329.18947919999937,None,329.18947919999937,None,329.18947919999937,None,a,1,0.473079699999289,329.18947919999937,None,,,,,,,,,,,,,16,001,2022_Oct_19_1409,Flanker,2021.2.0,240.0147849098181,
incongruent-right.jpg,0,k,left_arrow.png,left_arrow.png,left_arrow.png,right_arrow.png,left_arrow.png,left_arrow.png,left_arrow.png,,,,,,,,,,,,,5,2,32,3,,,,,329.67370779999965,None,,,,,,,,,,,,,,,,,,,,,,,,,,,,,,330.6829772000001,None,330.6829772000001,None,330.6829772000001,None,330.6829772000001,None,330.6829772000001,None,330.6829772000001,None,330.6829772000001,None,k,1,0.45980670000062673,330.6829772000001,None,,,,,,,,,,,,,16,001,2022_Oct_19_1409,Flanker,2021.2.0,240.0147849098181,
congruent-right.jpg,1,k,right_arrow.png,right_arrow.png,right_arrow.png,right_arrow.png,right_arrow.png,right_arrow.png,right_arrow.png,,,,,,,,,,,,,5,3,33,2,,,,,331.15855399999964,None,,,,,,,,,,,,,,,,,,,,,,,,,,,,,,332.17181139999957,None,332.17181139999957,None,332.17181139999957,None,332.17181139999957,None,332.17181139999957,None,332.17181139999957,None,332.17181139999957,None,k,1,0.987489000000096,332.17181139999957,None,,,,,,,,,,,,,16,001,2022_Oct_19_1409,Flanker,2021.2.0,240.0147849098181,
neutral left,0,a,neutral.png,neutral.png,neutral.png,left_arrow.png,neutral.png,neutral.png,neutral.png,,,,,,,,,,,,,5,4,34,4,,,,,333.1731327999996,None,,,,,,,,,,,,,,,,,,,,,,,,,,,,,,334.1868408999999,None,334.1868408999999,None,334.1868408999999,None,334.1868408999999,None,334.1868408999999,None,334.1868408999999,None,334.1868408999999,None,a,1,0.41241699999955017,334.1868408999999,None,,,,,,,,,,,,,16,001,2022_Oct_19_1409,Flanker,2021.2.0,240.0147849098181,
neutral left,0,a,neutral.png,neutral.png,neutral.png,left_arrow.png,neutral.png,neutral.png,neutral.png,,,,,,,,,,,,,5,5,35,4,,,,,334.6119699999999,None,,,,,,,,,,,,,,,,,,,,,,,,,,,,,,335.6257827999998,None,335.6257827999998,None,335.6257827999998,None,335.6257827999998,None,335.6257827999998,None,335.6257827999998,None,335.6257827999998,None,a,1,0.45393220000005385,335.6257827999998,None,,,,,,,,,,,,,16,001,2022_Oct_19_1409,Flanker,2021.2.0,240.0147849098181,
incongruent-right.jpg,0,k,left_arrow.png,left_arrow.png,left_arrow.png,right_arrow.png,left_arrow.png,left_arrow.png,left_arrow.png,,,,,,,,,,,,,6,0,36,3,,,,,336.09286189999966,None,,,,,,,,,,,,,,,,,,,,,,,,,,,,,,337.1065386,None,337.1065386,None,337.1065386,None,337.1065386,None,337.1065386,None,337.1065386,None,337.1065386,None,k,1,0.49312929999996413,337.1065386,None,,,,,,,,,,,,,16,001,2022_Oct_19_1409,Flanker,2021.2.0,240.0147849098181,
congruent-left.jpg,1,a,left_arrow.png,left_arrow.png,left_arrow.png,left_arrow.png,left_arrow.png,left_arrow.png,left_arrow.png,,,,,,,,,,,,,6,1,37,0,,,,,337.61550309999984,None,,,,,,,,,,,,,,,,,,,,,,,,,,,,,,338.6247782999999,None,338.6247782999999,None,338.6247782999999,None,338.6247782999999,None,338.6247782999999,None,338.6247782999999,None,338.6247782999999,None,a,1,0.4470512999996572,338.6247782999999,None,,,,,,,,,,,,,16,001,2022_Oct_19_1409,Flanker,2021.2.0,240.0147849098181,
neutral right,0,k,neutral.png,neutral.png,neutral.png,right_arrow.png,neutral.png,neutral.png,neutral.png,,,,,,,,,,,,,6,2,38,5,,,,,339.08362709999983,None,,,,,,,,,,,,,,,,,,,,,,,,,,,,,,340.09718559999965,None,340.09718559999965,None,340.09718559999965,None,340.09718559999965,None,340.09718559999965,None,340.09718559999965,None,340.09718559999965,None,k,1,0.438856300000225,340.09718559999965,None,,,,,,,,,,,,,16,001,2022_Oct_19_1409,Flanker,2021.2.0,240.0147849098181,
incongruent-right.jpg,0,k,left_arrow.png,left_arrow.png,left_arrow.png,right_arrow.png,left_arrow.png,left_arrow.png,left_arrow.png,,,,,,,,,,,,,6,3,39,3,,,,,340.54742739999983,None,,,,,,,,,,,,,,,,,,,,,,,,,,,,,,341.56101839999974,None,341.56101839999974,None,341.56101839999974,None,341.56101839999974,None,341.56101839999974,None,341.56101839999974,None,341.56101839999974,None,k,1,1.0633174000004146,341.56101839999974,None,,,,,,,,,,,,,16,001,2022_Oct_19_1409,Flanker,2021.2.0,240.0147849098181,
congruent-right.jpg,1,k,right_arrow.png,right_arrow.png,right_arrow.png,right_arrow.png,right_arrow.png,right_arrow.png,right_arrow.png,,,,,,,,,,,,,6,4,40,2,,,,,342.6370911999993,None,,,,,,,,,,,,,,,,,,,,,,,,,,,,,,343.65104129999963,None,343.65104129999963,None,343.65104129999963,None,343.65104129999963,None,343.65104129999963,None,343.65104129999963,None,343.65104129999963,None,k,1,0.4214844999996785,343.65104129999963,None,,,,,,,,,,,,,16,001,2022_Oct_19_1409,Flanker,2021.2.0,240.0147849098181,
congruent-left.jpg,1,a,left_arrow.png,left_arrow.png,left_arrow.png,left_arrow.png,left_arrow.png,left_arrow.png,left_arrow.png,,,,,,,,,,,,,6,5,41,0,,,,,344.0844471999999,None,,,,,,,,,,,,,,,,,,,,,,,,,,,,,,345.09405699999934,None,345.09405699999934,None,345.09405699999934,None,345.09405699999934,None,345.09405699999934,None,345.09405699999934,None,345.09405699999934,None,a,1,0.4110273000005691,345.09405699999934,None,,,,,,,,,,,,,16,001,2022_Oct_19_1409,Flanker,2021.2.0,240.0147849098181,
congruent-left.jpg,1,a,left_arrow.png,left_arrow.png,left_arrow.png,left_arrow.png,left_arrow.png,left_arrow.png,left_arrow.png,,,,,,,,,,,,,7,0,42,0,,,,,345.5194770999997,None,,,,,,,,,,,,,,,,,,,,,,,,,,,,,,346.5330574999998,None,346.5330574999998,None,346.5330574999998,None,346.5330574999998,None,346.5330574999998,None,346.5330574999998,None,346.5330574999998,None,a,1,0.4121930000001157,346.5330574999998,None,,,,,,,,,,,,,16,001,2022_Oct_19_1409,Flanker,2021.2.0,240.0147849098181,
neutral left,0,a,neutral.png,neutral.png,neutral.png,left_arrow.png,neutral.png,neutral.png,neutral.png,,,,,,,,,,,,,7,1,43,4,,,,,346.95863569999983,None,,,,,,,,,,,,,,,,,,,,,,,,,,,,,,347.9721064999994,None,347.9721064999994,None,347.9721064999994,None,347.9721064999994,None,347.9721064999994,None,347.9721064999994,None,347.9721064999994,None,a,1,0.45336000000042986,347.9721064999994,None,,,,,,,,,,,,,16,001,2022_Oct_19_1409,Flanker,2021.2.0,240.0147849098181,
incongruent-left.jpg,0,a,right_arrow.png,right_arrow.png,right_arrow.png,left_arrow.png,right_arrow.png,right_arrow.png,right_arrow.png,,,,,,,,,,,,,7,2,44,1,,,,,348.43909429999985,None,,,,,,,,,,,,,,,,,,,,,,,,,,,,,,349.44848569999976,None,349.44848569999976,None,349.44848569999976,None,349.44848569999976,None,349.44848569999976,None,349.44848569999976,None,349.44848569999976,None,a,1,0.5291801000003034,349.44848569999976,None,,,,,,,,,,,,,16,001,2022_Oct_19_1409,Flanker,2021.2.0,240.0147849098181,
incongruent-left.jpg,0,a,right_arrow.png,right_arrow.png,right_arrow.png,left_arrow.png,right_arrow.png,right_arrow.png,right_arrow.png,,,,,,,,,,,,,7,3,45,1,,,,,349.9952020999999,None,,,,,,,,,,,,,,,,,,,,,,,,,,,,,,351.0040546,None,351.0040546,None,351.0040546,None,351.0040546,None,351.0040546,None,351.0040546,None,351.0040546,None,a,1,0.46150549999947543,351.0040546,None,,,,,,,,,,,,,16,001,2022_Oct_19_1409,Flanker,2021.2.0,240.0147849098181,
neutral right,0,k,neutral.png,neutral.png,neutral.png,right_arrow.png,neutral.png,neutral.png,neutral.png,,,,,,,,,,,,,7,4,46,5,,,,,351.4797947999996,None,,,,,,,,,,,,,,,,,,,,,,,,,,,,,,352.49372669999957,None,352.49372669999957,None,352.49372669999957,None,352.49372669999957,None,352.49372669999957,None,352.49372669999957,None,352.49372669999957,None,k,1,0.5800239000000147,352.49372669999957,None,,,,,,,,,,,,,16,001,2022_Oct_19_1409,Flanker,2021.2.0,240.0147849098181,
incongruent-left.jpg,0,a,right_arrow.png,right_arrow.png,right_arrow.png,left_arrow.png,right_arrow.png,right_arrow.png,right_arrow.png,,,,,,,,,,,,,7,5,47,1,,,,,353.0859471999993,None,,,,,,,,,,,,,,,,,,,,,,,,,,,,,,354.1034196999999,None,354.1034196999999,None,354.1034196999999,None,354.1034196999999,None,354.1034196999999,None,354.1034196999999,None,354.1034196999999,None,a,1,0.6106798000000708,354.1034196999999,None,,,,,,,,,,,,,16,001,2022_Oct_19_1409,Flanker,2021.2.0,240.0147849098181,
,,,,,,,,,,,,,,,,,,,,,,,,,,,,,,,,,,,,,,,,,,,,,,,,,,,,,,,,,,,,,,,,,,,,,,,,,,,,,,,,354.74194459999944,None,space,2.204364899999746,354.74194459999944,None,,,,,,,16,001,2022_Oct_19_1409,Flanker,2021.2.0,240.0147849098181,
,,,,,,,,,,,,,,,,,,,,,,,,,,,,,,,,,,,,,,,,,,,,,,,,,,,,,,,,,,,,,,,,,,,,,,,,,,,,,,,,,,,,,,356.9606453999995,None,space,9.419001199999911,356.9606453999995,None,16,001,2022_Oct_19_1409,Flanker,2021.2.0,240.0147849098181,
