images,congruentcy,corrAns,arrow_1,arrow_2,arrow_3,target,arrow_5,arrow_6,arrow_7,practice.thisRepN,practice.thisTrialN,practice.thisN,practice.thisIndex,trials.thisRepN,trials.thisTrialN,trials.thisN,trials.thisIndex,trials_2.thisRepN,trials_2.thisTrialN,trials_2.thisN,trials_2.thisIndex,trials_3.thisRepN,trials_3.thisTrialN,trials_3.thisN,trials_3.thisIndex,instr_text.started,instr_text.stopped,instr_resp.keys,instr_resp.rt,polygon.started,polygon.stopped,arrow1_.started,arrow1_.stopped,arrow2_.started,arrow2_.stopped,arrow3_.started,arrow3_.stopped,target_p.started,target_p.stopped,arrow5_.started,arrow5_.stopped,arrow6_.started,arrow6_.stopped,arrow7_.started,arrow7_.stopped,key_resp_P.keys,key_resp_P.corr,key_resp_P.rt,key_resp_P.started,key_resp_P.stopped,text_2.started,text_2.stopped,text_3.started,text_3.stopped,text_4.started,text_4.stopped,key_resp_2.keys,key_resp_2.rt,key_resp_2.started,key_resp_2.stopped,arrow1.started,arrow1.stopped,arrow2.started,arrow2.stopped,arrow3.started,arrow3.stopped,target_t.started,target_t.stopped,arrow5.started,arrow5.stopped,arrow6.started,arrow6.stopped,arrow7.started,arrow7.stopped,key_resp.keys,key_resp.corr,key_resp.rt,key_resp.started,key_resp.stopped,text_5.started,text_5.stopped,key_resp_3.keys,key_resp_3.rt,key_resp_3.started,key_resp_3.stopped,text_6.started,text_6.stopped,key_resp_4.keys,key_resp_4.rt,key_resp_4.started,key_resp_4.stopped,participant,session,date,expName,psychopyVersion,frameRate,
,,,,,,,,,,,,,,,,,,,,,,,,,,11.378123500000584,None,space,19.715545400000337,,,,,,,,,,,,,,,,,,,,,,,,,,,,,,,,,,,,,,,,,,,,,,,,,,,,,,,,,,,,,,,17,001,2022_Oct_19_1429,Flanker,2021.2.0,242.70077422219057,
incongruent-right.jpg,0,k,left_arrow.png,left_arrow.png,left_arrow.png,right_arrow.png,left_arrow.png,left_arrow.png,left_arrow.png,0,0,0,3,,,,,,,,,,,,,,,,,31.114786599999206,None,32.119992699999784,None,32.119992699999784,None,32.119992699999784,None,32.119992699999784,None,32.119992699999784,None,32.119992699999784,None,32.119992699999784,None,k,1,3.3422955999994883,32.119992699999784,None,35.48192159999962,None,,,,,,,,,,,,,,,,,,,,,,,,,,,,,,,,,,,,,,,,17,001,2022_Oct_19_1429,Flanker,2021.2.0,242.70077422219057,
congruent-left.jpg,1,a,left_arrow.png,left_arrow.png,left_arrow.png,left_arrow.png,left_arrow.png,left_arrow.png,left_arrow.png,0,1,1,0,,,,,,,,,,,,,,,,,36.983517999999094,None,37.98889529999906,None,37.98889529999906,None,37.98889529999906,None,37.98889529999906,None,37.98889529999906,None,37.98889529999906,None,37.98889529999906,None,a,1,0.938349100000778,37.98889529999906,None,38.939774299999044,None,,,,,,,,,,,,,,,,,,,,,,,,,,,,,,,,,,,,,,,,17,001,2022_Oct_19_1429,Flanker,2021.2.0,242.70077422219057,
congruent-left.jpg,1,a,left_arrow.png,left_arrow.png,left_arrow.png,left_arrow.png,left_arrow.png,left_arrow.png,left_arrow.png,0,2,2,0,,,,,,,,,,,,,,,,,40.44162680000045,None,41.451047200000176,None,41.451047200000176,None,41.451047200000176,None,41.451047200000176,None,41.451047200000176,None,41.451047200000176,None,41.451047200000176,None,a,1,0.9164748000002874,41.451047200000176,None,42.3852040999991,None,,,,,,,,,,,,,,,,,,,,,,,,,,,,,,,,,,,,,,,,17,001,2022_Oct_19_1429,Flanker,2021.2.0,242.70077422219057,
incongruent-right.jpg,0,k,left_arrow.png,left_arrow.png,left_arrow.png,right_arrow.png,left_arrow.png,left_arrow.png,left_arrow.png,0,3,3,3,,,,,,,,,,,,,,,,,43.890848499999265,None,44.90026829999988,None,44.90026829999988,None,44.90026829999988,None,44.90026829999988,None,44.90026829999988,None,44.90026829999988,None,44.90026829999988,None,k,1,0.939417699999467,44.90026829999988,None,45.85157459999937,None,,,,,,,,,,,,,,,,,,,,,,,,,,,,,,,,,,,,,,,,17,001,2022_Oct_19_1429,Flanker,2021.2.0,242.70077422219057,
neutral left,0,a,neutral.png,neutral.png,neutral.png,left_arrow.png,neutral.png,neutral.png,neutral.png,0,4,4,4,,,,,,,,,,,,,,,,,47.3528611999991,None,48.366443200000504,None,48.366443200000504,None,48.366443200000504,None,48.366443200000504,None,48.366443200000504,None,48.366443200000504,None,48.366443200000504,None,a,1,0.7217347000005248,48.366443200000504,None,49.10054940000009,None,,,,,,,,,,,,,,,,,,,,,,,,,,,,,,,,,,,,,,,,17,001,2022_Oct_19_1429,Flanker,2021.2.0,242.70077422219057,
neutral right,0,k,neutral.png,neutral.png,neutral.png,right_arrow.png,neutral.png,neutral.png,neutral.png,0,5,5,5,,,,,,,,,,,,,,,,,50.6063223000001,None,51.61572479999995,None,51.61572479999995,None,51.61572479999995,None,51.61572479999995,None,51.61572479999995,None,51.61572479999995,None,51.61572479999995,None,k,1,0.696869000001243,51.61572479999995,None,52.32481410000037,None,,,,,,,,,,,,,,,,,,,,,,,,,,,,,,,,,,,,,,,,17,001,2022_Oct_19_1429,Flanker,2021.2.0,242.70077422219057,
incongruent-left.jpg,0,a,right_arrow.png,right_arrow.png,right_arrow.png,left_arrow.png,right_arrow.png,right_arrow.png,right_arrow.png,1,0,6,1,,,,,,,,,,,,,,,,,53.82685010000023,None,54.83995709999908,None,54.83995709999908,None,54.83995709999908,None,54.83995709999908,None,54.83995709999908,None,54.83995709999908,None,54.83995709999908,None,a,1,0.8414358999998512,54.83995709999908,None,55.69953929999974,None,,,,,,,,,,,,,,,,,,,,,,,,,,,,,,,,,,,,,,,,17,001,2022_Oct_19_1429,Flanker,2021.2.0,242.70077422219057,
incongruent-right.jpg,0,k,left_arrow.png,left_arrow.png,left_arrow.png,right_arrow.png,left_arrow.png,left_arrow.png,left_arrow.png,1,1,7,3,,,,,,,,,,,,,,,,,57.2052621999992,None,58.21441269999923,None,58.21441269999923,None,58.21441269999923,None,58.21441269999923,None,58.21441269999923,None,58.21441269999923,None,58.21441269999923,None,k,1,0.9390880999999354,58.21441269999923,None,59.16576139999961,None,,,,,,,,,,,,,,,,,,,,,,,,,,,,,,,,,,,,,,,,17,001,2022_Oct_19_1429,Flanker,2021.2.0,242.70077422219057,
incongruent-right.jpg,0,k,left_arrow.png,left_arrow.png,left_arrow.png,right_arrow.png,left_arrow.png,left_arrow.png,left_arrow.png,1,2,8,3,,,,,,,,,,,,,,,,,60.671431999999186,None,61.680554099999426,None,61.680554099999426,None,61.680554099999426,None,61.680554099999426,None,61.680554099999426,None,61.680554099999426,None,61.680554099999426,None,k,1,0.713432799999282,61.680554099999426,None,62.406848399999944,None,,,,,,,,,,,,,,,,,,,,,,,,,,,,,,,,,,,,,,,,17,001,2022_Oct_19_1429,Flanker,2021.2.0,242.70077422219057,
neutral right,0,k,neutral.png,neutral.png,neutral.png,right_arrow.png,neutral.png,neutral.png,neutral.png,1,3,9,5,,,,,,,,,,,,,,,,,63.90819989999909,None,64.92177690000062,None,64.92177690000062,None,64.92177690000062,None,64.92177690000062,None,64.92177690000062,None,64.92177690000062,None,64.92177690000062,None,k,1,0.4886040999990655,64.92177690000062,None,65.42237139999997,None,,,,,,,,,,,,,,,,,,,,,,,,,,,,,,,,,,,,,,,,17,001,2022_Oct_19_1429,Flanker,2021.2.0,242.70077422219057,
incongruent-left.jpg,0,a,right_arrow.png,right_arrow.png,right_arrow.png,left_arrow.png,right_arrow.png,right_arrow.png,right_arrow.png,1,4,10,1,,,,,,,,,,,,,,,,,66.92362440000034,None,67.93331380000018,None,67.93331380000018,None,67.93331380000018,None,67.93331380000018,None,67.93331380000018,None,67.93331380000018,None,67.93331380000018,None,a,1,0.637793400001101,67.93331380000018,None,68.58373439999923,None,,,,,,,,,,,,,,,,,,,,,,,,,,,,,,,,,,,,,,,,17,001,2022_Oct_19_1429,Flanker,2021.2.0,242.70077422219057,
congruent-left.jpg,1,a,left_arrow.png,left_arrow.png,left_arrow.png,left_arrow.png,left_arrow.png,left_arrow.png,left_arrow.png,1,5,11,0,,,,,,,,,,,,,,,,,70.08977009999944,None,71.09509609999986,None,71.09509609999986,None,71.09509609999986,None,71.09509609999986,None,71.09509609999986,None,71.09509609999986,None,71.09509609999986,None,a,1,0.6124479999998584,71.09509609999986,None,71.72073660000024,None,,,,,,,,,,,,,,,,,,,,,,,,,,,,,,,,,,,,,,,,17,001,2022_Oct_19_1429,Flanker,2021.2.0,242.70077422219057,
congruent-right.jpg,1,k,right_arrow.png,right_arrow.png,right_arrow.png,right_arrow.png,right_arrow.png,right_arrow.png,right_arrow.png,2,0,12,2,,,,,,,,,,,,,,,,,73.22224749999987,None,74.23153929999899,None,74.23153929999899,None,74.23153929999899,None,74.23153929999899,None,74.23153929999899,None,74.23153929999899,None,74.23153929999899,None,k,1,0.5401382000000012,74.23153929999899,None,74.79059179999967,None,,,,,,,,,,,,,,,,,,,,,,,,,,,,,,,,,,,,,,,,17,001,2022_Oct_19_1429,Flanker,2021.2.0,242.70077422219057,
neutral right,0,k,neutral.png,neutral.png,neutral.png,right_arrow.png,neutral.png,neutral.png,neutral.png,2,1,13,5,,,,,,,,,,,,,,,,,76.29632579999998,None,77.30161520000001,None,77.30161520000001,None,77.30161520000001,None,77.30161520000001,None,77.30161520000001,None,77.30161520000001,None,77.30161520000001,None,k,1,0.5668406999993749,77.30161520000001,None,77.88527740000063,None,,,,,,,,,,,,,,,,,,,,,,,,,,,,,,,,,,,,,,,,17,001,2022_Oct_19_1429,Flanker,2021.2.0,242.70077422219057,
incongruent-left.jpg,0,a,right_arrow.png,right_arrow.png,right_arrow.png,left_arrow.png,right_arrow.png,right_arrow.png,right_arrow.png,2,2,14,1,,,,,,,,,,,,,,,,,79.38713029999963,None,80.40082119999897,None,80.40082119999897,None,80.40082119999897,None,80.40082119999897,None,80.40082119999897,None,80.40082119999897,None,80.40082119999897,None,a,1,0.6277071999993495,80.40082119999897,None,81.04320369999914,None,,,,,,,,,,,,,,,,,,,,,,,,,,,,,,,,,,,,,,,,17,001,2022_Oct_19_1429,Flanker,2021.2.0,242.70077422219057,
neutral left,0,a,neutral.png,neutral.png,neutral.png,left_arrow.png,neutral.png,neutral.png,neutral.png,2,3,15,4,,,,,,,,,,,,,,,,,82.54444890000013,None,83.55803019999985,None,83.55803019999985,None,83.55803019999985,None,83.55803019999985,None,83.55803019999985,None,83.55803019999985,None,83.55803019999985,None,a,1,0.591284899999664,83.55803019999985,None,84.16704749999917,None,,,,,,,,,,,,,,,,,,,,,,,,,,,,,,,,,,,,,,,,17,001,2022_Oct_19_1429,Flanker,2021.2.0,242.70077422219057,
congruent-right.jpg,1,k,right_arrow.png,right_arrow.png,right_arrow.png,right_arrow.png,right_arrow.png,right_arrow.png,right_arrow.png,2,4,16,2,,,,,,,,,,,,,,,,,85.67299450000064,None,86.67793949999941,None,86.67793949999941,None,86.67793949999941,None,86.67793949999941,None,86.67793949999941,None,86.67793949999941,None,86.67793949999941,None,k,1,0.5434365999990405,86.67793949999941,None,87.23687190000055,None,,,,,,,,,,,,,,,,,,,,,,,,,,,,,,,,,,,,,,,,17,001,2022_Oct_19_1429,Flanker,2021.2.0,242.70077422219057,
neutral left,0,a,neutral.png,neutral.png,neutral.png,left_arrow.png,neutral.png,neutral.png,neutral.png,2,5,17,4,,,,,,,,,,,,,,,,,88.73875899999985,None,89.74785659999907,None,89.74785659999907,None,89.74785659999907,None,89.74785659999907,None,89.74785659999907,None,89.74785659999907,None,89.74785659999907,None,a,1,0.49794119999933173,89.74785659999907,None,90.26508250000006,None,,,,,,,,,,,,,,,,,,,,,,,,,,,,,,,,,,,,,,,,17,001,2022_Oct_19_1429,Flanker,2021.2.0,242.70077422219057,
congruent-left.jpg,1,a,left_arrow.png,left_arrow.png,left_arrow.png,left_arrow.png,left_arrow.png,left_arrow.png,left_arrow.png,3,0,18,0,,,,,,,,,,,,,,,,,91.77083589999893,None,92.77607770000031,None,92.77607770000031,None,92.77607770000031,None,92.77607770000031,None,92.77607770000031,None,92.77607770000031,None,92.77607770000031,None,a,1,0.9342164999998204,92.77607770000031,None,93.72707989999981,None,,,,,,,,,,,,,,,,,,,,,,,,,,,,,,,,,,,,,,,,17,001,2022_Oct_19_1429,Flanker,2021.2.0,242.70077422219057,
congruent-right.jpg,1,k,right_arrow.png,right_arrow.png,right_arrow.png,right_arrow.png,right_arrow.png,right_arrow.png,right_arrow.png,3,1,19,2,,,,,,,,,,,,,,,,,95.22895419999986,None,96.23839240000052,None,96.23839240000052,None,96.23839240000052,None,96.23839240000052,None,96.23839240000052,None,96.23839240000052,None,96.23839240000052,None,k,1,0.5843217000001459,96.23839240000052,None,96.83872999999949,None,,,,,,,,,,,,,,,,,,,,,,,,,,,,,,,,,,,,,,,,17,001,2022_Oct_19_1429,Flanker,2021.2.0,242.70077422219057,
neutral left,0,a,neutral.png,neutral.png,neutral.png,left_arrow.png,neutral.png,neutral.png,neutral.png,3,2,20,4,,,,,,,,,,,,,,,,,98.34030449999955,None,99.34981479999988,None,99.34981479999988,None,99.34981479999988,None,99.34981479999988,None,99.34981479999988,None,99.34981479999988,None,99.34981479999988,None,a,1,0.47329139999965264,99.34981479999988,None,99.84193579999919,None,,,,,,,,,,,,,,,,,,,,,,,,,,,,,,,,,,,,,,,,17,001,2022_Oct_19_1429,Flanker,2021.2.0,242.70077422219057,
congruent-right.jpg,1,k,right_arrow.png,right_arrow.png,right_arrow.png,right_arrow.png,right_arrow.png,right_arrow.png,right_arrow.png,3,3,21,2,,,,,,,,,,,,,,,,,101.34350330000052,None,102.35707980000007,None,102.35707980000007,None,102.35707980000007,None,102.35707980000007,None,102.35707980000007,None,102.35707980000007,None,102.35707980000007,None,k,1,0.4664338999991742,102.35707980000007,None,102.84092899999996,None,,,,,,,,,,,,,,,,,,,,,,,,,,,,,,,,,,,,,,,,17,001,2022_Oct_19_1429,Flanker,2021.2.0,242.70077422219057,
neutral right,0,k,neutral.png,neutral.png,neutral.png,right_arrow.png,neutral.png,neutral.png,neutral.png,3,4,22,5,,,,,,,,,,,,,,,,,104.34708080000019,None,105.35214669999914,None,105.35214669999914,None,105.35214669999914,None,105.35214669999914,None,105.35214669999914,None,105.35214669999914,None,105.35214669999914,None,k,1,2.0003037999995286,105.35214669999914,None,107.37073930000042,None,,,,,,,,,,,,,,,,,,,,,,,,,,,,,,,,,,,,,,,,17,001,2022_Oct_19_1429,Flanker,2021.2.0,242.70077422219057,
incongruent-left.jpg,0,a,right_arrow.png,right_arrow.png,right_arrow.png,left_arrow.png,right_arrow.png,right_arrow.png,right_arrow.png,3,5,23,1,,,,,,,,,,,,,,,,,108.87233980000019,None,109.88209909999932,None,109.88209909999932,None,109.88209909999932,None,109.88209909999932,None,109.88209909999932,None,109.88209909999932,None,109.88209909999932,None,a,1,0.5584906999993109,109.88209909999932,None,110.45761549999952,None,,,,,,,,,,,,,,,,,,,,,,,,,,,,,,,,,,,,,,,,17,001,2022_Oct_19_1429,Flanker,2021.2.0,242.70077422219057,
,,,,,,,,,,,,,,,,,,,,,,,,,,,,,,,,,,,,,,,,,,,,,,,,,,,,,111.97580050000033,None,113.96123549999902,None,space,4.224760900000547,113.96123549999902,None,,,,,,,,,,,,,,,,,,,,,,,,,,,,,,,,17,001,2022_Oct_19_1429,Flanker,2021.2.0,242.70077422219057,
incongruent-right.jpg,0,k,left_arrow.png,left_arrow.png,left_arrow.png,right_arrow.png,left_arrow.png,left_arrow.png,left_arrow.png,,,,,0,0,0,3,,,,,,,,,,,,,118.20755719999943,None,,,,,,,,,,,,,,,,,,,,,,,,,,,,,,119.21275049999895,None,119.21275049999895,None,119.21275049999895,None,119.21275049999895,None,119.21275049999895,None,119.21275049999895,None,119.21275049999895,None,k,1,1.2612427999993088,119.21275049999895,None,,,,,,,,,,,,,17,001,2022_Oct_19_1429,Flanker,2021.2.0,242.70077422219057,
congruent-right.jpg,1,k,right_arrow.png,right_arrow.png,right_arrow.png,right_arrow.png,right_arrow.png,right_arrow.png,right_arrow.png,,,,,0,1,1,2,,,,,,,,,,,,,120.48886239999956,None,,,,,,,,,,,,,,,,,,,,,,,,,,,,,,121.5024056000002,None,121.5024056000002,None,121.5024056000002,None,121.5024056000002,None,121.5024056000002,None,121.5024056000002,None,121.5024056000002,None,k,1,0.6437635999991471,121.5024056000002,None,,,,,,,,,,,,,17,001,2022_Oct_19_1429,Flanker,2021.2.0,242.70077422219057,
neutral left,0,a,neutral.png,neutral.png,neutral.png,left_arrow.png,neutral.png,neutral.png,neutral.png,,,,,0,2,2,4,,,,,,,,,,,,,122.16180019999956,None,,,,,,,,,,,,,,,,,,,,,,,,,,,,,,123.1750135000002,None,123.1750135000002,None,123.1750135000002,None,123.1750135000002,None,123.1750135000002,None,123.1750135000002,None,123.1750135000002,None,a,1,0.7076299999989715,123.1750135000002,None,,,,,,,,,,,,,17,001,2022_Oct_19_1429,Flanker,2021.2.0,242.70077422219057,
congruent-left.jpg,1,a,left_arrow.png,left_arrow.png,left_arrow.png,left_arrow.png,left_arrow.png,left_arrow.png,left_arrow.png,,,,,0,3,3,0,,,,,,,,,,,,,123.90112799999952,None,,,,,,,,,,,,,,,,,,,,,,,,,,,,,,124.91890120000062,None,124.91890120000062,None,124.91890120000062,None,124.91890120000062,None,124.91890120000062,None,124.91890120000062,None,124.91890120000062,None,a,1,0.5637175000010757,124.91890120000062,None,,,,,,,,,,,,,17,001,2022_Oct_19_1429,Flanker,2021.2.0,242.70077422219057,
congruent-right.jpg,1,k,right_arrow.png,right_arrow.png,right_arrow.png,right_arrow.png,right_arrow.png,right_arrow.png,right_arrow.png,,,,,0,4,4,2,,,,,,,,,,,,,125.49417189999986,None,,,,,,,,,,,,,,,,,,,,,,,,,,,,,,126.50403170000027,None,126.50403170000027,None,126.50403170000027,None,126.50403170000027,None,126.50403170000027,None,126.50403170000027,None,126.50403170000027,None,k,1,0.5068159999991622,126.50403170000027,None,,,,,,,,,,,,,17,001,2022_Oct_19_1429,Flanker,2021.2.0,242.70077422219057,
incongruent-left.jpg,0,a,right_arrow.png,right_arrow.png,right_arrow.png,left_arrow.png,right_arrow.png,right_arrow.png,right_arrow.png,,,,,0,5,5,1,,,,,,,,,,,,,127.02917179999895,None,,,,,,,,,,,,,,,,,,,,,,,,,,,,,,128.04272619999938,None,128.04272619999938,None,128.04272619999938,None,128.04272619999938,None,128.04272619999938,None,128.04272619999938,None,128.04272619999938,None,a,1,0.5043330999997124,128.04272619999938,None,,,,,,,,,,,,,17,001,2022_Oct_19_1429,Flanker,2021.2.0,242.70077422219057,
neutral right,0,k,neutral.png,neutral.png,neutral.png,right_arrow.png,neutral.png,neutral.png,neutral.png,,,,,1,0,6,5,,,,,,,,,,,,,128.55997380000008,None,,,,,,,,,,,,,,,,,,,,,,,,,,,,,,129.57348640000055,None,129.57348640000055,None,129.57348640000055,None,129.57348640000055,None,129.57348640000055,None,129.57348640000055,None,129.57348640000055,None,k,1,0.4137592000006407,129.57348640000055,None,,,,,,,,,,,,,17,001,2022_Oct_19_1429,Flanker,2021.2.0,242.70077422219057,
congruent-left.jpg,1,a,left_arrow.png,left_arrow.png,left_arrow.png,left_arrow.png,left_arrow.png,left_arrow.png,left_arrow.png,,,,,1,1,7,0,,,,,,,,,,,,,130.00344210000003,None,,,,,,,,,,,,,,,,,,,,,,,,,,,,,,131.01668299999983,None,131.01668299999983,None,131.01668299999983,None,131.01668299999983,None,131.01668299999983,None,131.01668299999983,None,131.01668299999983,None,a,1,0.4990235000004759,131.01668299999983,None,,,,,,,,,,,,,17,001,2022_Oct_19_1429,Flanker,2021.2.0,242.70077422219057,
incongruent-left.jpg,0,a,right_arrow.png,right_arrow.png,right_arrow.png,left_arrow.png,right_arrow.png,right_arrow.png,right_arrow.png,,,,,1,2,8,1,,,,,,,,,,,,,131.53390639999998,None,,,,,,,,,,,,,,,,,,,,,,,,,,,,,,132.54749889999948,None,132.54749889999948,None,132.54749889999948,None,132.54749889999948,None,132.54749889999948,None,132.54749889999948,None,132.54749889999948,None,a,1,0.5601803000008658,132.54749889999948,None,,,,,,,,,,,,,17,001,2022_Oct_19_1429,Flanker,2021.2.0,242.70077422219057,
neutral left,0,a,neutral.png,neutral.png,neutral.png,left_arrow.png,neutral.png,neutral.png,neutral.png,,,,,1,3,9,4,,,,,,,,,,,,,133.1230883999997,None,,,,,,,,,,,,,,,,,,,,,,,,,,,,,,134.1366736,None,134.1366736,None,134.1366736,None,134.1366736,None,134.1366736,None,134.1366736,None,134.1366736,None,a,1,0.5075362000006862,134.1366736,None,,,,,,,,,,,,,17,001,2022_Oct_19_1429,Flanker,2021.2.0,242.70077422219057,
incongruent-right.jpg,0,k,left_arrow.png,left_arrow.png,left_arrow.png,right_arrow.png,left_arrow.png,left_arrow.png,left_arrow.png,,,,,1,4,10,3,,,,,,,,,,,,,134.66224150000016,None,,,,,,,,,,,,,,,,,,,,,,,,,,,,,,135.67578859999958,None,135.67578859999958,None,135.67578859999958,None,135.67578859999958,None,135.67578859999958,None,135.67578859999958,None,135.67578859999958,None,k,1,0.5603353000005882,135.67578859999958,None,,,,,,,,,,,,,17,001,2022_Oct_19_1429,Flanker,2021.2.0,242.70077422219057,
incongruent-right.jpg,0,k,left_arrow.png,left_arrow.png,left_arrow.png,right_arrow.png,left_arrow.png,left_arrow.png,left_arrow.png,,,,,1,5,11,3,,,,,,,,,,,,,136.25141020000046,None,,,,,,,,,,,,,,,,,,,,,,,,,,,,,,137.26951779999945,None,137.26951779999945,None,137.26951779999945,None,137.26951779999945,None,137.26951779999945,None,137.26951779999945,None,137.26951779999945,None,k,1,0.47885429999951157,137.26951779999945,None,,,,,,,,,,,,,17,001,2022_Oct_19_1429,Flanker,2021.2.0,242.70077422219057,
congruent-left.jpg,1,a,left_arrow.png,left_arrow.png,left_arrow.png,left_arrow.png,left_arrow.png,left_arrow.png,left_arrow.png,,,,,2,0,12,0,,,,,,,,,,,,,137.76141710000047,None,,,,,,,,,,,,,,,,,,,,,,,,,,,,,,138.77075010000044,None,138.77075010000044,None,138.77075010000044,None,138.77075010000044,None,138.77075010000044,None,138.77075010000044,None,138.77075010000044,None,a,1,0.4501185000008263,138.77075010000044,None,,,,,,,,,,,,,17,001,2022_Oct_19_1429,Flanker,2021.2.0,242.70077422219057,
incongruent-left.jpg,0,a,right_arrow.png,right_arrow.png,right_arrow.png,left_arrow.png,right_arrow.png,right_arrow.png,right_arrow.png,,,,,2,1,13,1,,,,,,,,,,,,,139.23821359999965,None,,,,,,,,,,,,,,,,,,,,,,,,,,,,,,140.25187480000022,None,140.25187480000022,None,140.25187480000022,None,140.25187480000022,None,140.25187480000022,None,140.25187480000022,None,140.25187480000022,None,a,1,0.5208554000000731,140.25187480000022,None,,,,,,,,,,,,,17,001,2022_Oct_19_1429,Flanker,2021.2.0,242.70077422219057,
neutral left,0,a,neutral.png,neutral.png,neutral.png,left_arrow.png,neutral.png,neutral.png,neutral.png,,,,,2,2,14,4,,,,,,,,,,,,,140.7854088999993,None,,,,,,,,,,,,,,,,,,,,,,,,,,,,,,141.79896989999907,None,141.79896989999907,None,141.79896989999907,None,141.79896989999907,None,141.79896989999907,None,141.79896989999907,None,141.79896989999907,None,a,1,0.45398220000060974,141.79896989999907,None,,,,,,,,,,,,,17,001,2022_Oct_19_1429,Flanker,2021.2.0,242.70077422219057,
congruent-left.jpg,1,a,left_arrow.png,left_arrow.png,left_arrow.png,left_arrow.png,left_arrow.png,left_arrow.png,left_arrow.png,,,,,2,3,15,0,,,,,,,,,,,,,142.26611670000057,None,,,,,,,,,,,,,,,,,,,,,,,,,,,,,,143.27970520000054,None,143.27970520000054,None,143.27970520000054,None,143.27970520000054,None,143.27970520000054,None,143.27970520000054,None,143.27970520000054,None,a,1,0.4614390999995521,143.27970520000054,None,,,,,,,,,,,,,17,001,2022_Oct_19_1429,Flanker,2021.2.0,242.70077422219057,
incongruent-left.jpg,0,a,right_arrow.png,right_arrow.png,right_arrow.png,left_arrow.png,right_arrow.png,right_arrow.png,right_arrow.png,,,,,2,4,16,1,,,,,,,,,,,,,143.75553020000007,None,,,,,,,,,,,,,,,,,,,,,,,,,,,,,,144.76461089999975,None,144.76461089999975,None,144.76461089999975,None,144.76461089999975,None,144.76461089999975,None,144.76461089999975,None,144.76461089999975,None,a,1,0.544753899999705,144.76461089999975,None,,,,,,,,,,,,,17,001,2022_Oct_19_1429,Flanker,2021.2.0,242.70077422219057,
neutral right,0,k,neutral.png,neutral.png,neutral.png,right_arrow.png,neutral.png,neutral.png,neutral.png,,,,,2,5,17,5,,,,,,,,,,,,,145.32356249999975,None,,,,,,,,,,,,,,,,,,,,,,,,,,,,,,146.33740209999996,None,146.33740209999996,None,146.33740209999996,None,146.33740209999996,None,146.33740209999996,None,146.33740209999996,None,146.33740209999996,None,k,1,0.5084116000016365,146.33740209999996,None,,,,,,,,,,,,,17,001,2022_Oct_19_1429,Flanker,2021.2.0,242.70077422219057,
congruent-left.jpg,1,a,left_arrow.png,left_arrow.png,left_arrow.png,left_arrow.png,left_arrow.png,left_arrow.png,left_arrow.png,,,,,3,0,18,0,,,,,,,,,,,,,146.86269119999997,None,,,,,,,,,,,,,,,,,,,,,,,,,,,,,,147.87209640000037,None,147.87209640000037,None,147.87209640000037,None,147.87209640000037,None,147.87209640000037,None,147.87209640000037,None,147.87209640000037,None,a,1,0.4616896999996243,147.87209640000037,None,,,,,,,,,,,,,17,001,2022_Oct_19_1429,Flanker,2021.2.0,242.70077422219057,
incongruent-left.jpg,0,a,right_arrow.png,right_arrow.png,right_arrow.png,left_arrow.png,right_arrow.png,right_arrow.png,right_arrow.png,,,,,3,1,19,1,,,,,,,,,,,,,148.3476052999995,None,,,,,,,,,,,,,,,,,,,,,,,,,,,,,,149.35718049999923,None,149.35718049999923,None,149.35718049999923,None,149.35718049999923,None,149.35718049999923,None,149.35718049999923,None,149.35718049999923,None,a,1,0.4887973000004422,149.35718049999923,None,,,,,,,,,,,,,17,001,2022_Oct_19_1429,Flanker,2021.2.0,242.70077422219057,
neutral left,0,a,neutral.png,neutral.png,neutral.png,left_arrow.png,neutral.png,neutral.png,neutral.png,,,,,3,2,20,4,,,,,,,,,,,,,149.85763380000026,None,,,,,,,,,,,,,,,,,,,,,,,,,,,,,,150.87117989999933,None,150.87117989999933,None,150.87117989999933,None,150.87117989999933,None,150.87117989999933,None,150.87117989999933,None,150.87117989999933,None,a,1,0.4469816000000719,150.87117989999933,None,,,,,,,,,,,,,17,001,2022_Oct_19_1429,Flanker,2021.2.0,242.70077422219057,
congruent-right.jpg,1,k,right_arrow.png,right_arrow.png,right_arrow.png,right_arrow.png,right_arrow.png,right_arrow.png,right_arrow.png,,,,,3,3,21,2,,,,,,,,,,,,,151.32991589999983,None,,,,,,,,,,,,,,,,,,,,,,,,,,,,,,152.3479686999999,None,152.3479686999999,None,152.3479686999999,None,152.3479686999999,None,152.3479686999999,None,152.3479686999999,None,152.3479686999999,None,k,1,0.5064198999989458,152.3479686999999,None,,,,,,,,,,,,,17,001,2022_Oct_19_1429,Flanker,2021.2.0,242.70077422219057,
congruent-right.jpg,1,k,right_arrow.png,right_arrow.png,right_arrow.png,right_arrow.png,right_arrow.png,right_arrow.png,right_arrow.png,,,,,3,4,22,2,,,,,,,,,,,,,152.87368629999946,None,,,,,,,,,,,,,,,,,,,,,,,,,,,,,,153.88268210000024,None,153.88268210000024,None,153.88268210000024,None,153.88268210000024,None,153.88268210000024,None,153.88268210000024,None,153.88268210000024,None,k,1,0.49197280000043975,153.88268210000024,None,,,,,,,,,,,,,17,001,2022_Oct_19_1429,Flanker,2021.2.0,242.70077422219057,
incongruent-right.jpg,0,k,left_arrow.png,left_arrow.png,left_arrow.png,right_arrow.png,left_arrow.png,left_arrow.png,left_arrow.png,,,,,3,5,23,3,,,,,,,,,,,,,154.39178829999946,None,,,,,,,,,,,,,,,,,,,,,,,,,,,,,,155.40108359999977,None,155.40108359999977,None,155.40108359999977,None,155.40108359999977,None,155.40108359999977,None,155.40108359999977,None,155.40108359999977,None,k,1,0.6057300999982544,155.40108359999977,None,,,,,,,,,,,,,17,001,2022_Oct_19_1429,Flanker,2021.2.0,242.70077422219057,
incongruent-left.jpg,0,a,right_arrow.png,right_arrow.png,right_arrow.png,left_arrow.png,right_arrow.png,right_arrow.png,right_arrow.png,,,,,4,0,24,1,,,,,,,,,,,,,156.01841690000037,None,,,,,,,,,,,,,,,,,,,,,,,,,,,,,,157.03199529999983,None,157.03199529999983,None,157.03199529999983,None,157.03199529999983,None,157.03199529999983,None,157.03199529999983,None,157.03199529999983,None,a,1,0.5110588999996253,157.03199529999983,None,,,,,,,,,,,,,17,001,2022_Oct_19_1429,Flanker,2021.2.0,242.70077422219057,
neutral right,0,k,neutral.png,neutral.png,neutral.png,right_arrow.png,neutral.png,neutral.png,neutral.png,,,,,4,1,25,5,,,,,,,,,,,,,157.55765280000014,None,,,,,,,,,,,,,,,,,,,,,,,,,,,,,,158.5667881999998,None,158.5667881999998,None,158.5667881999998,None,158.5667881999998,None,158.5667881999998,None,158.5667881999998,None,158.5667881999998,None,k,1,0.9049216999992495,158.5667881999998,None,,,,,,,,,,,,,17,001,2022_Oct_19_1429,Flanker,2021.2.0,242.70077422219057,
congruent-left.jpg,1,a,left_arrow.png,left_arrow.png,left_arrow.png,left_arrow.png,left_arrow.png,left_arrow.png,left_arrow.png,,,,,4,2,26,0,,,,,,,,,,,,,159.4847117999998,None,,,,,,,,,,,,,,,,,,,,,,,,,,,,,,160.49410569999964,None,160.49410569999964,None,160.49410569999964,None,160.49410569999964,None,160.49410569999964,None,160.49410569999964,None,160.49410569999964,None,a,1,0.5294419000001653,160.49410569999964,None,,,,,,,,,,,,,17,001,2022_Oct_19_1429,Flanker,2021.2.0,242.70077422219057,
incongruent-right.jpg,0,k,left_arrow.png,left_arrow.png,left_arrow.png,right_arrow.png,left_arrow.png,left_arrow.png,left_arrow.png,,,,,4,3,27,3,,,,,,,,,,,,,161.03636279999955,None,,,,,,,,,,,,,,,,,,,,,,,,,,,,,,162.04980140000043,None,162.04980140000043,None,162.04980140000043,None,162.04980140000043,None,162.04980140000043,None,162.04980140000043,None,162.04980140000043,None,k,1,0.5259523000004265,162.04980140000043,None,,,,,,,,,,,,,17,001,2022_Oct_19_1429,Flanker,2021.2.0,242.70077422219057,
neutral right,0,k,neutral.png,neutral.png,neutral.png,right_arrow.png,neutral.png,neutral.png,neutral.png,,,,,4,4,28,5,,,,,,,,,,,,,162.59217379999973,None,,,,,,,,,,,,,,,,,,,,,,,,,,,,,,163.6014639999994,None,163.6014639999994,None,163.6014639999994,None,163.6014639999994,None,163.6014639999994,None,163.6014639999994,None,163.6014639999994,None,k,1,0.5028072000004613,163.6014639999994,None,,,,,,,,,,,,,17,001,2022_Oct_19_1429,Flanker,2021.2.0,242.70077422219057,
neutral right,0,k,neutral.png,neutral.png,neutral.png,right_arrow.png,neutral.png,neutral.png,neutral.png,,,,,4,5,29,5,,,,,,,,,,,,,164.1187016999993,None,,,,,,,,,,,,,,,,,,,,,,,,,,,,,,165.12806739999905,None,165.12806739999905,None,165.12806739999905,None,165.12806739999905,None,165.12806739999905,None,165.12806739999905,None,165.12806739999905,None,k,1,0.48806519999925513,165.12806739999905,None,,,,,,,,,,,,,17,001,2022_Oct_19_1429,Flanker,2021.2.0,242.70077422219057,
congruent-left.jpg,1,a,left_arrow.png,left_arrow.png,left_arrow.png,left_arrow.png,left_arrow.png,left_arrow.png,left_arrow.png,,,,,5,0,30,0,,,,,,,,,,,,,165.62880159999986,None,,,,,,,,,,,,,,,,,,,,,,,,,,,,,,166.6422977000002,None,166.6422977000002,None,166.6422977000002,None,166.6422977000002,None,166.6422977000002,None,166.6422977000002,None,166.6422977000002,None,a,1,0.4861158000003343,166.6422977000002,None,,,,,,,,,,,,,17,001,2022_Oct_19_1429,Flanker,2021.2.0,242.70077422219057,
neutral right,0,k,neutral.png,neutral.png,neutral.png,right_arrow.png,neutral.png,neutral.png,neutral.png,,,,,5,1,31,5,,,,,,,,,,,,,167.1425636999993,None,,,,,,,,,,,,,,,,,,,,,,,,,,,,,,168.15634069999942,None,168.15634069999942,None,168.15634069999942,None,168.15634069999942,None,168.15634069999942,None,168.15634069999942,None,168.15634069999942,None,k,1,0.4524660999995831,168.15634069999942,None,,,,,,,,,,,,,17,001,2022_Oct_19_1429,Flanker,2021.2.0,242.70077422219057,
neutral left,0,a,neutral.png,neutral.png,neutral.png,left_arrow.png,neutral.png,neutral.png,neutral.png,,,,,5,2,32,4,,,,,,,,,,,,,168.62357049999991,None,,,,,,,,,,,,,,,,,,,,,,,,,,,,,,169.63727169999947,None,169.63727169999947,None,169.63727169999947,None,169.63727169999947,None,169.63727169999947,None,169.63727169999947,None,169.63727169999947,None,a,1,0.4276609999997163,169.63727169999947,None,,,,,,,,,,,,,17,001,2022_Oct_19_1429,Flanker,2021.2.0,242.70077422219057,
congruent-right.jpg,1,k,right_arrow.png,right_arrow.png,right_arrow.png,right_arrow.png,right_arrow.png,right_arrow.png,right_arrow.png,,,,,5,3,33,2,,,,,,,,,,,,,170.0792992000006,None,,,,,,,,,,,,,,,,,,,,,,,,,,,,,,171.08868040000016,None,171.08868040000016,None,171.08868040000016,None,171.08868040000016,None,171.08868040000016,None,171.08868040000016,None,171.08868040000016,None,k,1,0.4482711000000563,171.08868040000016,None,,,,,,,,,,,,,17,001,2022_Oct_19_1429,Flanker,2021.2.0,242.70077422219057,
neutral right,0,k,neutral.png,neutral.png,neutral.png,right_arrow.png,neutral.png,neutral.png,neutral.png,,,,,5,4,34,5,,,,,,,,,,,,,171.5558318000003,None,,,,,,,,,,,,,,,,,,,,,,,,,,,,,,172.56916040000033,None,172.56916040000033,None,172.56916040000033,None,172.56916040000033,None,172.56916040000033,None,172.56916040000033,None,172.56916040000033,None,k,1,0.399988499999381,172.56916040000033,None,,,,,,,,,,,,,17,001,2022_Oct_19_1429,Flanker,2021.2.0,242.70077422219057,
congruent-right.jpg,1,k,right_arrow.png,right_arrow.png,right_arrow.png,right_arrow.png,right_arrow.png,right_arrow.png,right_arrow.png,,,,,5,5,35,2,,,,,,,,,,,,,172.98663599999963,None,,,,,,,,,,,,,,,,,,,,,,,,,,,,,,173.99998369999958,None,173.99998369999958,None,173.99998369999958,None,173.99998369999958,None,173.99998369999958,None,173.99998369999958,None,173.99998369999958,None,k,1,0.40936320000037085,173.99998369999958,None,,,,,,,,,,,,,17,001,2022_Oct_19_1429,Flanker,2021.2.0,242.70077422219057,
incongruent-right.jpg,0,k,left_arrow.png,left_arrow.png,left_arrow.png,right_arrow.png,left_arrow.png,left_arrow.png,left_arrow.png,,,,,6,0,36,3,,,,,,,,,,,,,174.42526829999952,None,,,,,,,,,,,,,,,,,,,,,,,,,,,,,,175.4347447,None,175.4347447,None,175.4347447,None,175.4347447,None,175.4347447,None,175.4347447,None,175.4347447,None,k,1,0.5030832000011287,175.4347447,None,,,,,,,,,,,,,17,001,2022_Oct_19_1429,Flanker,2021.2.0,242.70077422219057,
neutral left,0,a,neutral.png,neutral.png,neutral.png,left_arrow.png,neutral.png,neutral.png,neutral.png,,,,,6,1,37,4,,,,,,,,,,,,,175.95205779999924,None,,,,,,,,,,,,,,,,,,,,,,,,,,,,,,176.9656314999993,None,176.9656314999993,None,176.9656314999993,None,176.9656314999993,None,176.9656314999993,None,176.9656314999993,None,176.9656314999993,None,a,1,0.5161784000010812,176.9656314999993,None,,,,,,,,,,,,,17,001,2022_Oct_19_1429,Flanker,2021.2.0,242.70077422219057,
congruent-left.jpg,1,a,left_arrow.png,left_arrow.png,left_arrow.png,left_arrow.png,left_arrow.png,left_arrow.png,left_arrow.png,,,,,6,2,38,0,,,,,,,,,,,,,177.49937689999933,None,,,,,,,,,,,,,,,,,,,,,,,,,,,,,,178.50892190000013,None,178.50892190000013,None,178.50892190000013,None,178.50892190000013,None,178.50892190000013,None,178.50892190000013,None,178.50892190000013,None,a,1,0.46124349999990955,178.50892190000013,None,,,,,,,,,,,,,17,001,2022_Oct_19_1429,Flanker,2021.2.0,242.70077422219057,
neutral left,0,a,neutral.png,neutral.png,neutral.png,left_arrow.png,neutral.png,neutral.png,neutral.png,,,,,6,3,39,4,,,,,,,,,,,,,178.98455619999913,None,,,,,,,,,,,,,,,,,,,,,,,,,,,,,,179.9981571999997,None,179.9981571999997,None,179.9981571999997,None,179.9981571999997,None,179.9981571999997,None,179.9981571999997,None,179.9981571999997,None,a,1,0.45219469999938156,179.9981571999997,None,,,,,,,,,,,,,17,001,2022_Oct_19_1429,Flanker,2021.2.0,242.70077422219057,
congruent-right.jpg,1,k,right_arrow.png,right_arrow.png,right_arrow.png,right_arrow.png,right_arrow.png,right_arrow.png,right_arrow.png,,,,,6,4,40,2,,,,,,,,,,,,,180.4653185999996,None,,,,,,,,,,,,,,,,,,,,,,,,,,,,,,181.4787422999998,None,181.4787422999998,None,181.4787422999998,None,181.4787422999998,None,181.4787422999998,None,181.4787422999998,None,181.4787422999998,None,k,1,0.4196238999993511,181.4787422999998,None,,,,,,,,,,,,,17,001,2022_Oct_19_1429,Flanker,2021.2.0,242.70077422219057,
neutral right,0,k,neutral.png,neutral.png,neutral.png,right_arrow.png,neutral.png,neutral.png,neutral.png,,,,,6,5,41,5,,,,,,,,,,,,,181.9126827,None,,,,,,,,,,,,,,,,,,,,,,,,,,,,,,182.92180650000046,None,182.92180650000046,None,182.92180650000046,None,182.92180650000046,None,182.92180650000046,None,182.92180650000046,None,182.92180650000046,None,k,1,0.441086599999835,182.92180650000046,None,,,,,,,,,,,,,17,001,2022_Oct_19_1429,Flanker,2021.2.0,242.70077422219057,
incongruent-right.jpg,0,k,left_arrow.png,left_arrow.png,left_arrow.png,right_arrow.png,left_arrow.png,left_arrow.png,left_arrow.png,,,,,7,0,42,3,,,,,,,,,,,,,183.37673689999974,None,,,,,,,,,,,,,,,,,,,,,,,,,,,,,,184.3903081999997,None,184.3903081999997,None,184.3903081999997,None,184.3903081999997,None,184.3903081999997,None,184.3903081999997,None,184.3903081999997,None,k,1,0.48464160000003176,184.3903081999997,None,,,,,,,,,,,,,17,001,2022_Oct_19_1429,Flanker,2021.2.0,242.70077422219057,
incongruent-right.jpg,0,k,left_arrow.png,left_arrow.png,left_arrow.png,right_arrow.png,left_arrow.png,left_arrow.png,left_arrow.png,,,,,7,1,43,3,,,,,,,,,,,,,184.89086569999927,None,,,,,,,,,,,,,,,,,,,,,,,,,,,,,,185.9002418,None,185.9002418,None,185.9002418,None,185.9002418,None,185.9002418,None,185.9002418,None,185.9002418,None,k,1,0.4709860999992088,185.9002418,None,,,,,,,,,,,,,17,001,2022_Oct_19_1429,Flanker,2021.2.0,242.70077422219057,
neutral left,0,a,neutral.png,neutral.png,neutral.png,left_arrow.png,neutral.png,neutral.png,neutral.png,,,,,7,2,44,4,,,,,,,,,,,,,186.3837984999991,None,,,,,,,,,,,,,,,,,,,,,,,,,,,,,,187.39349070000026,None,187.39349070000026,None,187.39349070000026,None,187.39349070000026,None,187.39349070000026,None,187.39349070000026,None,187.39349070000026,None,a,1,0.4097239000002446,187.39349070000026,None,,,,,,,,,,,,,17,001,2022_Oct_19_1429,Flanker,2021.2.0,242.70077422219057,
incongruent-left.jpg,0,a,right_arrow.png,right_arrow.png,right_arrow.png,left_arrow.png,right_arrow.png,right_arrow.png,right_arrow.png,,,,,7,3,45,1,,,,,,,,,,,,,187.81892589999916,None,,,,,,,,,,,,,,,,,,,,,,,,,,,,,,188.82836730000054,None,188.82836730000054,None,188.82836730000054,None,188.82836730000054,None,188.82836730000054,None,188.82836730000054,None,188.82836730000054,None,a,1,0.47105960000044433,188.82836730000054,None,,,,,,,,,,,,,17,001,2022_Oct_19_1429,Flanker,2021.2.0,242.70077422219057,
congruent-right.jpg,1,k,right_arrow.png,right_arrow.png,right_arrow.png,right_arrow.png,right_arrow.png,right_arrow.png,right_arrow.png,,,,,7,4,46,2,,,,,,,,,,,,,189.31217859999924,None,,,,,,,,,,,,,,,,,,,,,,,,,,,,,,190.32994039999903,None,190.32994039999903,None,190.32994039999903,None,190.32994039999903,None,190.32994039999903,None,190.32994039999903,None,190.32994039999903,None,k,1,0.6336984999998094,190.32994039999903,None,,,,,,,,,,,,,17,001,2022_Oct_19_1429,Flanker,2021.2.0,242.70077422219057,
incongruent-left.jpg,0,a,right_arrow.png,right_arrow.png,right_arrow.png,left_arrow.png,right_arrow.png,right_arrow.png,right_arrow.png,,,,,7,5,47,1,,,,,,,,,,,,,190.9806379999991,None,,,,,,,,,,,,,,,,,,,,,,,,,,,,,,191.9942919999994,None,191.9942919999994,None,191.9942919999994,None,191.9942919999994,None,191.9942919999994,None,191.9942919999994,None,191.9942919999994,None,a,1,0.457830000001195,191.9942919999994,None,,,,,,,,,,,,,17,001,2022_Oct_19_1429,Flanker,2021.2.0,242.70077422219057,
,,,,,,,,,,,,,,,,,,,,,,,,,,,,,,,,,,,,,,,,,,,,,,,,,,,,,,,,,,,,,,,,,,,,,,,,,,,,,,,,192.4819742999989,None,space,9.5793448000004,192.4819742999989,None,,,,,,,17,001,2022_Oct_19_1429,Flanker,2021.2.0,242.70077422219057,
congruent-left.jpg,1,a,left_arrow.png,left_arrow.png,left_arrow.png,left_arrow.png,left_arrow.png,left_arrow.png,left_arrow.png,,,,,,,,,0,0,0,0,,,,,,,,,202.08382709999933,None,,,,,,,,,,,,,,,,,,,,,,,,,,,,,,203.08921199999895,None,203.08921199999895,None,203.08921199999895,None,203.08921199999895,None,203.08921199999895,None,203.08921199999895,None,203.08921199999895,None,a,1,0.4524607000003016,203.08921199999895,None,,,,,,,,,,,,,17,001,2022_Oct_19_1429,Flanker,2021.2.0,242.70077422219057,
incongruent-right.jpg,0,k,left_arrow.png,left_arrow.png,left_arrow.png,right_arrow.png,left_arrow.png,left_arrow.png,left_arrow.png,,,,,,,,,0,1,1,3,,,,,,,,,203.55649269999958,None,,,,,,,,,,,,,,,,,,,,,,,,,,,,,,204.57410449999952,None,204.57410449999952,None,204.57410449999952,None,204.57410449999952,None,204.57410449999952,None,204.57410449999952,None,204.57410449999952,None,k,1,0.42374800000106916,204.57410449999952,None,,,,,,,,,,,,,17,001,2022_Oct_19_1429,Flanker,2021.2.0,242.70077422219057,
congruent-left.jpg,1,a,left_arrow.png,left_arrow.png,left_arrow.png,left_arrow.png,left_arrow.png,left_arrow.png,left_arrow.png,,,,,,,,,0,2,2,0,,,,,,,,,205.01637239999945,None,,,,,,,,,,,,,,,,,,,,,,,,,,,,,,206.02564859999984,None,206.02564859999984,None,206.02564859999984,None,206.02564859999984,None,206.02564859999984,None,206.02564859999984,None,206.02564859999984,None,a,1,0.38814470000033907,206.02564859999984,None,,,,,,,,,,,,,17,001,2022_Oct_19_1429,Flanker,2021.2.0,242.70077422219057,
neutral left,0,a,neutral.png,neutral.png,neutral.png,left_arrow.png,neutral.png,neutral.png,neutral.png,,,,,,,,,0,3,3,4,,,,,,,,,206.4262163000003,None,,,,,,,,,,,,,,,,,,,,,,,,,,,,,,207.43965260000004,None,207.43965260000004,None,207.43965260000004,None,207.43965260000004,None,207.43965260000004,None,207.43965260000004,None,207.43965260000004,None,a,1,0.39830389999951876,207.43965260000004,None,,,,,,,,,,,,,17,001,2022_Oct_19_1429,Flanker,2021.2.0,242.70077422219057,
neutral right,0,k,neutral.png,neutral.png,neutral.png,right_arrow.png,neutral.png,neutral.png,neutral.png,,,,,,,,,0,4,4,5,,,,,,,,,207.85689749999983,None,,,,,,,,,,,,,,,,,,,,,,,,,,,,,,208.8704314000006,None,208.8704314000006,None,208.8704314000006,None,208.8704314000006,None,208.8704314000006,None,208.8704314000006,None,208.8704314000006,None,k,1,0.37587579999853915,208.8704314000006,None,,,,,,,,,,,,,17,001,2022_Oct_19_1429,Flanker,2021.2.0,242.70077422219057,
neutral left,0,a,neutral.png,neutral.png,neutral.png,left_arrow.png,neutral.png,neutral.png,neutral.png,,,,,,,,,0,5,5,4,,,,,,,,,209.2625680000001,None,,,,,,,,,,,,,,,,,,,,,,,,,,,,,,210.27203299999928,None,210.27203299999928,None,210.27203299999928,None,210.27203299999928,None,210.27203299999928,None,210.27203299999928,None,210.27203299999928,None,a,1,0.3345558000000892,210.27203299999928,None,,,,,,,,,,,,,17,001,2022_Oct_19_1429,Flanker,2021.2.0,242.70077422219057,
neutral left,0,a,neutral.png,neutral.png,neutral.png,left_arrow.png,neutral.png,neutral.png,neutral.png,,,,,,,,,1,0,6,4,,,,,,,,,210.62232550000044,None,,,,,,,,,,,,,,,,,,,,,,,,,,,,,,211.63591169999927,None,211.63591169999927,None,211.63591169999927,None,211.63591169999927,None,211.63591169999927,None,211.63591169999927,None,211.63591169999927,None,a,1,0.4269230999998399,211.63591169999927,None,,,,,,,,,,,,,17,001,2022_Oct_19_1429,Flanker,2021.2.0,242.70077422219057,
congruent-left.jpg,1,a,left_arrow.png,left_arrow.png,left_arrow.png,left_arrow.png,left_arrow.png,left_arrow.png,left_arrow.png,,,,,,,,,1,1,7,0,,,,,,,,,212.0780603000003,None,,,,,,,,,,,,,,,,,,,,,,,,,,,,,,213.08740389999912,None,213.08740389999912,None,213.08740389999912,None,213.08740389999912,None,213.08740389999912,None,213.08740389999912,None,213.08740389999912,None,a,1,0.5116400000006252,213.08740389999912,None,,,,,,,,,,,,,17,001,2022_Oct_19_1429,Flanker,2021.2.0,242.70077422219057,
incongruent-right.jpg,0,k,left_arrow.png,left_arrow.png,left_arrow.png,right_arrow.png,left_arrow.png,left_arrow.png,left_arrow.png,,,,,,,,,1,2,8,3,,,,,,,,,213.61310299999968,None,,,,,,,,,,,,,,,,,,,,,,,,,,,,,,214.62657629999921,None,214.62657629999921,None,214.62657629999921,None,214.62657629999921,None,214.62657629999921,None,214.62657629999921,None,214.62657629999921,None,k,1,0.4846477999999479,214.62657629999921,None,,,,,,,,,,,,,17,001,2022_Oct_19_1429,Flanker,2021.2.0,242.70077422219057,
neutral right,0,k,neutral.png,neutral.png,neutral.png,right_arrow.png,neutral.png,neutral.png,neutral.png,,,,,,,,,1,3,9,5,,,,,,,,,215.12697370000024,None,,,,,,,,,,,,,,,,,,,,,,,,,,,,,,216.13640459999988,None,216.13640459999988,None,216.13640459999988,None,216.13640459999988,None,216.13640459999988,None,216.13640459999988,None,216.13640459999988,None,k,1,0.43074089999936405,216.13640459999988,None,,,,,,,,,,,,,17,001,2022_Oct_19_1429,Flanker,2021.2.0,242.70077422219057,
incongruent-left.jpg,0,a,right_arrow.png,right_arrow.png,right_arrow.png,left_arrow.png,right_arrow.png,right_arrow.png,right_arrow.png,,,,,,,,,1,4,10,1,,,,,,,,,216.57876509999915,None,,,,,,,,,,,,,,,,,,,,,,,,,,,,,,217.59222649999901,None,217.59222649999901,None,217.59222649999901,None,217.59222649999901,None,217.59222649999901,None,217.59222649999901,None,217.59222649999901,None,a,1,0.43110520000118413,217.59222649999901,None,,,,,,,,,,,,,17,001,2022_Oct_19_1429,Flanker,2021.2.0,242.70077422219057,
congruent-left.jpg,1,a,left_arrow.png,left_arrow.png,left_arrow.png,left_arrow.png,left_arrow.png,left_arrow.png,left_arrow.png,,,,,,,,,1,5,11,0,,,,,,,,,218.03451649999988,None,,,,,,,,,,,,,,,,,,,,,,,,,,,,,,219.04304819999925,None,219.04304819999925,None,219.04304819999925,None,219.04304819999925,None,219.04304819999925,None,219.04304819999925,None,219.04304819999925,None,a,1,0.3966135000009672,219.04304819999925,None,,,,,,,,,,,,,17,001,2022_Oct_19_1429,Flanker,2021.2.0,242.70077422219057,
neutral right,0,k,neutral.png,neutral.png,neutral.png,right_arrow.png,neutral.png,neutral.png,neutral.png,,,,,,,,,2,0,12,5,,,,,,,,,219.452604099999,None,,,,,,,,,,,,,,,,,,,,,,,,,,,,,,220.46597529999963,None,220.46597529999963,None,220.46597529999963,None,220.46597529999963,None,220.46597529999963,None,220.46597529999963,None,220.46597529999963,None,k,1,0.34986340000068594,220.46597529999963,None,,,,,,,,,,,,,17,001,2022_Oct_19_1429,Flanker,2021.2.0,242.70077422219057,
neutral right,0,k,neutral.png,neutral.png,neutral.png,right_arrow.png,neutral.png,neutral.png,neutral.png,,,,,,,,,2,1,13,5,,,,,,,,,220.83325139999943,None,,,,,,,,,,,,,,,,,,,,,,,,,,,,,,221.83827109999947,None,221.83827109999947,None,221.83827109999947,None,221.83827109999947,None,221.83827109999947,None,221.83827109999947,None,221.83827109999947,None,k,1,0.4016750000009779,221.83827109999947,None,,,,,,,,,,,,,17,001,2022_Oct_19_1429,Flanker,2021.2.0,242.70077422219057,
neutral right,0,k,neutral.png,neutral.png,neutral.png,right_arrow.png,neutral.png,neutral.png,neutral.png,,,,,,,,,2,2,14,5,,,,,,,,,222.25532070000008,None,,,,,,,,,,,,,,,,,,,,,,,,,,,,,,223.26070099999924,None,223.26070099999924,None,223.26070099999924,None,223.26070099999924,None,223.26070099999924,None,223.26070099999924,None,223.26070099999924,None,k,1,0.411568299999999,223.26070099999924,None,,,,,,,,,,,,,17,001,2022_Oct_19_1429,Flanker,2021.2.0,242.70077422219057,
incongruent-left.jpg,0,a,right_arrow.png,right_arrow.png,right_arrow.png,left_arrow.png,right_arrow.png,right_arrow.png,right_arrow.png,,,,,,,,,2,3,15,1,,,,,,,,,223.68613279999954,None,,,,,,,,,,,,,,,,,,,,,,,,,,,,,,224.6997792000002,None,224.6997792000002,None,224.6997792000002,None,224.6997792000002,None,224.6997792000002,None,224.6997792000002,None,224.6997792000002,None,a,1,0.4207894999999553,224.6997792000002,None,,,,,,,,,,,,,17,001,2022_Oct_19_1429,Flanker,2021.2.0,242.70077422219057,
neutral right,0,k,neutral.png,neutral.png,neutral.png,right_arrow.png,neutral.png,neutral.png,neutral.png,,,,,,,,,2,4,16,5,,,,,,,,,225.13357949999954,None,,,,,,,,,,,,,,,,,,,,,,,,,,,,,,226.14286340000035,None,226.14286340000035,None,226.14286340000035,None,226.14286340000035,None,226.14286340000035,None,226.14286340000035,None,226.14286340000035,None,k,1,0.3458730000002106,226.14286340000035,None,,,,,,,,,,,,,17,001,2022_Oct_19_1429,Flanker,2021.2.0,242.70077422219057,
incongruent-right.jpg,0,k,left_arrow.png,left_arrow.png,left_arrow.png,right_arrow.png,left_arrow.png,left_arrow.png,left_arrow.png,,,,,,,,,2,5,17,3,,,,,,,,,226.5017069000005,None,,,,,,,,,,,,,,,,,,,,,,,,,,,,,,227.51107589999992,None,227.51107589999992,None,227.51107589999992,None,227.51107589999992,None,227.51107589999992,None,227.51107589999992,None,227.51107589999992,None,k,1,0.546115800001644,227.51107589999992,None,,,,,,,,,,,,,17,001,2022_Oct_19_1429,Flanker,2021.2.0,242.70077422219057,
congruent-right.jpg,1,k,right_arrow.png,right_arrow.png,right_arrow.png,right_arrow.png,right_arrow.png,right_arrow.png,right_arrow.png,,,,,,,,,3,0,18,2,,,,,,,,,228.07008639999913,None,,,,,,,,,,,,,,,,,,,,,,,,,,,,,,229.07943519999935,None,229.07943519999935,None,229.07943519999935,None,229.07943519999935,None,229.07943519999935,None,229.07943519999935,None,229.07943519999935,None,k,1,0.46563330000026326,229.07943519999935,None,,,,,,,,,,,,,17,001,2022_Oct_19_1429,Flanker,2021.2.0,242.70077422219057,
congruent-right.jpg,1,k,right_arrow.png,right_arrow.png,right_arrow.png,right_arrow.png,right_arrow.png,right_arrow.png,right_arrow.png,,,,,,,,,3,1,19,2,,,,,,,,,229.56323059999886,None,,,,,,,,,,,,,,,,,,,,,,,,,,,,,,230.5767268999989,None,230.5767268999989,None,230.5767268999989,None,230.5767268999989,None,230.5767268999989,None,230.5767268999989,None,230.5767268999989,None,k,1,0.3843834999988758,230.5767268999989,None,,,,,,,,,,,,,17,001,2022_Oct_19_1429,Flanker,2021.2.0,242.70077422219057,
congruent-right.jpg,1,k,right_arrow.png,right_arrow.png,right_arrow.png,right_arrow.png,right_arrow.png,right_arrow.png,right_arrow.png,,,,,,,,,3,2,20,2,,,,,,,,,230.97726949999924,None,,,,,,,,,,,,,,,,,,,,,,,,,,,,,,231.99081079999996,None,231.99081079999996,None,231.99081079999996,None,231.99081079999996,None,231.99081079999996,None,231.99081079999996,None,231.99081079999996,None,k,1,0.36249490000045625,231.99081079999996,None,,,,,,,,,,,,,17,001,2022_Oct_19_1429,Flanker,2021.2.0,242.70077422219057,
neutral left,0,a,neutral.png,neutral.png,neutral.png,left_arrow.png,neutral.png,neutral.png,neutral.png,,,,,,,,,3,3,21,4,,,,,,,,,232.36631970000053,None,,,,,,,,,,,,,,,,,,,,,,,,,,,,,,233.3795553,None,233.3795553,None,233.3795553,None,233.3795553,None,233.3795553,None,233.3795553,None,233.3795553,None,a,1,0.46217410000099335,233.3795553,None,,,,,,,,,,,,,17,001,2022_Oct_19_1429,Flanker,2021.2.0,242.70077422219057,
incongruent-right.jpg,0,k,left_arrow.png,left_arrow.png,left_arrow.png,right_arrow.png,left_arrow.png,left_arrow.png,left_arrow.png,,,,,,,,,3,4,22,3,,,,,,,,,233.85533099999884,None,,,,,,,,,,,,,,,,,,,,,,,,,,,,,,234.8687759000004,None,234.8687759000004,None,234.8687759000004,None,234.8687759000004,None,234.8687759000004,None,234.8687759000004,None,234.8687759000004,None,k,1,0.5171831999996357,234.8687759000004,None,,,,,,,,,,,,,17,001,2022_Oct_19_1429,Flanker,2021.2.0,242.70077422219057,
incongruent-right.jpg,0,k,left_arrow.png,left_arrow.png,left_arrow.png,right_arrow.png,left_arrow.png,left_arrow.png,left_arrow.png,,,,,,,,,3,5,23,3,,,,,,,,,235.4028072000001,None,,,,,,,,,,,,,,,,,,,,,,,,,,,,,,236.41228899999987,None,236.41228899999987,None,236.41228899999987,None,236.41228899999987,None,236.41228899999987,None,236.41228899999987,None,236.41228899999987,None,k,1,0.421605699999418,236.41228899999987,None,,,,,,,,,,,,,17,001,2022_Oct_19_1429,Flanker,2021.2.0,242.70077422219057,
congruent-right.jpg,1,k,right_arrow.png,right_arrow.png,right_arrow.png,right_arrow.png,right_arrow.png,right_arrow.png,right_arrow.png,,,,,,,,,4,0,24,2,,,,,,,,,236.84608540000045,None,,,,,,,,,,,,,,,,,,,,,,,,,,,,,,237.85930670000016,None,237.85930670000016,None,237.85930670000016,None,237.85930670000016,None,237.85930670000016,None,237.85930670000016,None,237.85930670000016,None,k,1,0.39880249999987427,237.85930670000016,None,,,,,,,,,,,,,17,001,2022_Oct_19_1429,Flanker,2021.2.0,242.70077422219057,
neutral right,0,k,neutral.png,neutral.png,neutral.png,right_arrow.png,neutral.png,neutral.png,neutral.png,,,,,,,,,4,1,25,5,,,,,,,,,238.27666569999928,None,,,,,,,,,,,,,,,,,,,,,,,,,,,,,,239.29014599999937,None,239.29014599999937,None,239.29014599999937,None,239.29014599999937,None,239.29014599999937,None,239.29014599999937,None,239.29014599999937,None,k,1,0.3924286999990727,239.29014599999937,None,,,,,,,,,,,,,17,001,2022_Oct_19_1429,Flanker,2021.2.0,242.70077422219057,
congruent-left.jpg,1,a,left_arrow.png,left_arrow.png,left_arrow.png,left_arrow.png,left_arrow.png,left_arrow.png,left_arrow.png,,,,,,,,,4,2,26,0,,,,,,,,,239.69903499999964,None,,,,,,,,,,,,,,,,,,,,,,,,,,,,,,240.70831589999943,None,240.70831589999943,None,240.70831589999943,None,240.70831589999943,None,240.70831589999943,None,240.70831589999943,None,240.70831589999943,None,a,1,0.47820429999956104,240.70831589999943,None,,,,,,,,,,,,,17,001,2022_Oct_19_1429,Flanker,2021.2.0,242.70077422219057,
neutral left,0,a,neutral.png,neutral.png,neutral.png,left_arrow.png,neutral.png,neutral.png,neutral.png,,,,,,,,,4,3,27,4,,,,,,,,,241.20050079999965,None,,,,,,,,,,,,,,,,,,,,,,,,,,,,,,242.21424379999917,None,242.21424379999917,None,242.21424379999917,None,242.21424379999917,None,242.21424379999917,None,242.21424379999917,None,242.21424379999917,None,a,1,0.45263840000006894,242.21424379999917,None,,,,,,,,,,,,,17,001,2022_Oct_19_1429,Flanker,2021.2.0,242.70077422219057,
incongruent-right.jpg,0,k,left_arrow.png,left_arrow.png,left_arrow.png,right_arrow.png,left_arrow.png,left_arrow.png,left_arrow.png,,,,,,,,,4,4,28,3,,,,,,,,,242.68134909999935,None,,,,,,,,,,,,,,,,,,,,,,,,,,,,,,243.69488139999885,None,243.69488139999885,None,243.69488139999885,None,243.69488139999885,None,243.69488139999885,None,243.69488139999885,None,243.69488139999885,None,k,1,0.3720272999998997,243.69488139999885,None,,,,,,,,,,,,,17,001,2022_Oct_19_1429,Flanker,2021.2.0,242.70077422219057,
incongruent-left.jpg,0,a,right_arrow.png,right_arrow.png,right_arrow.png,left_arrow.png,right_arrow.png,right_arrow.png,right_arrow.png,,,,,,,,,4,5,29,1,,,,,,,,,244.07864419999896,None,,,,,,,,,,,,,,,,,,,,,,,,,,,,,,245.08795509999982,None,245.08795509999982,None,245.08795509999982,None,245.08795509999982,None,245.08795509999982,None,245.08795509999982,None,245.08795509999982,None,a,1,0.45145159999992757,245.08795509999982,None,,,,,,,,,,,,,17,001,2022_Oct_19_1429,Flanker,2021.2.0,242.70077422219057,
incongruent-left.jpg,0,a,right_arrow.png,right_arrow.png,right_arrow.png,left_arrow.png,right_arrow.png,right_arrow.png,right_arrow.png,,,,,,,,,5,0,30,1,,,,,,,,,245.55525060000036,None,,,,,,,,,,,,,,,,,,,,,,,,,,,,,,246.56870200000048,None,246.56870200000048,None,246.56870200000048,None,246.56870200000048,None,246.56870200000048,None,246.56870200000048,None,246.56870200000048,None,a,1,0.4986030000000028,246.56870200000048,None,,,,,,,,,,,,,17,001,2022_Oct_19_1429,Flanker,2021.2.0,242.70077422219057,
incongruent-left.jpg,0,a,right_arrow.png,right_arrow.png,right_arrow.png,left_arrow.png,right_arrow.png,right_arrow.png,right_arrow.png,,,,,,,,,5,1,31,1,,,,,,,,,247.0776791999997,None,,,,,,,,,,,,,,,,,,,,,,,,,,,,,,248.09135500000048,None,248.09135500000048,None,248.09135500000048,None,248.09135500000048,None,248.09135500000048,None,248.09135500000048,None,248.09135500000048,None,k,0,0.3681594999998197,248.09135500000048,None,,,,,,,,,,,,,17,001,2022_Oct_19_1429,Flanker,2021.2.0,242.70077422219057,
incongruent-right.jpg,0,k,left_arrow.png,left_arrow.png,left_arrow.png,right_arrow.png,left_arrow.png,left_arrow.png,left_arrow.png,,,,,,,,,5,2,32,3,,,,,,,,,248.47475049999957,None,,,,,,,,,,,,,,,,,,,,,,,,,,,,,,249.48842929999955,None,249.48842929999955,None,249.48842929999955,None,249.48842929999955,None,249.48842929999955,None,249.48842929999955,None,249.48842929999955,None,k,1,0.7552984000012657,249.48842929999955,None,,,,,,,,,,,,,17,001,2022_Oct_19_1429,Flanker,2021.2.0,242.70077422219057,
neutral left,0,a,neutral.png,neutral.png,neutral.png,left_arrow.png,neutral.png,neutral.png,neutral.png,,,,,,,,,5,3,33,4,,,,,,,,,250.25579789999938,None,,,,,,,,,,,,,,,,,,,,,,,,,,,,,,251.2736944999997,None,251.2736944999997,None,251.2736944999997,None,251.2736944999997,None,251.2736944999997,None,251.2736944999997,None,251.2736944999997,None,a,1,0.42628549999972165,251.2736944999997,None,,,,,,,,,,,,,17,001,2022_Oct_19_1429,Flanker,2021.2.0,242.70077422219057,
congruent-right.jpg,1,k,right_arrow.png,right_arrow.png,right_arrow.png,right_arrow.png,right_arrow.png,right_arrow.png,right_arrow.png,,,,,,,,,5,4,34,2,,,,,,,,,251.71568649999972,None,,,,,,,,,,,,,,,,,,,,,,,,,,,,,,252.72928200000024,None,252.72928200000024,None,252.72928200000024,None,252.72928200000024,None,252.72928200000024,None,252.72928200000024,None,252.72928200000024,None,k,1,0.33885689999988244,252.72928200000024,None,,,,,,,,,,,,,17,001,2022_Oct_19_1429,Flanker,2021.2.0,242.70077422219057,
congruent-right.jpg,1,k,right_arrow.png,right_arrow.png,right_arrow.png,right_arrow.png,right_arrow.png,right_arrow.png,right_arrow.png,,,,,,,,,5,5,35,2,,,,,,,,,253.07964299999912,None,,,,,,,,,,,,,,,,,,,,,,,,,,,,,,254.0848643999998,None,254.0848643999998,None,254.0848643999998,None,254.0848643999998,None,254.0848643999998,None,254.0848643999998,None,254.0848643999998,None,k,1,0.3835173000006762,254.0848643999998,None,,,,,,,,,,,,,17,001,2022_Oct_19_1429,Flanker,2021.2.0,242.70077422219057,
congruent-right.jpg,1,k,right_arrow.png,right_arrow.png,right_arrow.png,right_arrow.png,right_arrow.png,right_arrow.png,right_arrow.png,,,,,,,,,6,0,36,2,,,,,,,,,254.48530690000007,None,,,,,,,,,,,,,,,,,,,,,,,,,,,,,,255.49902780000048,None,255.49902780000048,None,255.49902780000048,None,255.49902780000048,None,255.49902780000048,None,255.49902780000048,None,255.49902780000048,None,k,1,0.43357490000016696,255.49902780000048,None,,,,,,,,,,,,,17,001,2022_Oct_19_1429,Flanker,2021.2.0,242.70077422219057,
incongruent-left.jpg,0,a,right_arrow.png,right_arrow.png,right_arrow.png,left_arrow.png,right_arrow.png,right_arrow.png,right_arrow.png,,,,,,,,,6,1,37,1,,,,,,,,,255.94935729999997,None,,,,,,,,,,,,,,,,,,,,,,,,,,,,,,256.9590778999991,None,256.9590778999991,None,256.9590778999991,None,256.9590778999991,None,256.9590778999991,None,256.9590778999991,None,256.9590778999991,None,a,1,0.4856974000012997,256.9590778999991,None,,,,,,,,,,,,,17,001,2022_Oct_19_1429,Flanker,2021.2.0,242.70077422219057,
neutral left,0,a,neutral.png,neutral.png,neutral.png,left_arrow.png,neutral.png,neutral.png,neutral.png,,,,,,,,,6,2,38,4,,,,,,,,,257.45929459999934,None,,,,,,,,,,,,,,,,,,,,,,,,,,,,,,258.47311459999946,None,258.47311459999946,None,258.47311459999946,None,258.47311459999946,None,258.47311459999946,None,258.47311459999946,None,258.47311459999946,None,a,1,0.4118512999993982,258.47311459999946,None,,,,,,,,,,,,,17,001,2022_Oct_19_1429,Flanker,2021.2.0,242.70077422219057,
neutral left,0,a,neutral.png,neutral.png,neutral.png,left_arrow.png,neutral.png,neutral.png,neutral.png,,,,,,,,,6,3,39,4,,,,,,,,,258.89832360000037,None,,,,,,,,,,,,,,,,,,,,,,,,,,,,,,259.90772370000013,None,259.90772370000013,None,259.90772370000013,None,259.90772370000013,None,259.90772370000013,None,259.90772370000013,None,259.90772370000013,None,a,1,0.3854477000004408,259.90772370000013,None,,,,,,,,,,,,,17,001,2022_Oct_19_1429,Flanker,2021.2.0,242.70077422219057,
congruent-left.jpg,1,a,left_arrow.png,left_arrow.png,left_arrow.png,left_arrow.png,left_arrow.png,left_arrow.png,left_arrow.png,,,,,,,,,6,4,40,0,,,,,,,,,260.30865489999996,None,,,,,,,,,,,,,,,,,,,,,,,,,,,,,,261.32172320000063,None,261.32172320000063,None,261.32172320000063,None,261.32172320000063,None,261.32172320000063,None,261.32172320000063,None,261.32172320000063,None,a,1,0.4516436000012618,261.32172320000063,None,,,,,,,,,,,,,17,001,2022_Oct_19_1429,Flanker,2021.2.0,242.70077422219057,
incongruent-left.jpg,0,a,right_arrow.png,right_arrow.png,right_arrow.png,left_arrow.png,right_arrow.png,right_arrow.png,right_arrow.png,,,,,,,,,6,5,41,1,,,,,,,,,261.78927420000036,None,,,,,,,,,,,,,,,,,,,,,,,,,,,,,,262.8024777999999,None,262.8024777999999,None,262.8024777999999,None,262.8024777999999,None,262.8024777999999,None,262.8024777999999,None,262.8024777999999,None,a,1,0.491213000001153,262.8024777999999,None,,,,,,,,,,,,,17,001,2022_Oct_19_1429,Flanker,2021.2.0,242.70077422219057,
congruent-left.jpg,1,a,left_arrow.png,left_arrow.png,left_arrow.png,left_arrow.png,left_arrow.png,left_arrow.png,left_arrow.png,,,,,,,,,7,0,42,0,,,,,,,,,263.3115565999997,None,,,,,,,,,,,,,,,,,,,,,,,,,,,,,,264.32091369999944,None,264.32091369999944,None,264.32091369999944,None,264.32091369999944,None,264.32091369999944,None,264.32091369999944,None,264.32091369999944,None,a,1,0.3968154999984108,264.32091369999944,None,,,,,,,,,,,,,17,001,2022_Oct_19_1429,Flanker,2021.2.0,242.70077422219057,
congruent-right.jpg,1,k,right_arrow.png,right_arrow.png,right_arrow.png,right_arrow.png,right_arrow.png,right_arrow.png,right_arrow.png,,,,,,,,,7,1,43,2,,,,,,,,,264.72950579999997,None,,,,,,,,,,,,,,,,,,,,,,,,,,,,,,265.7431493999993,None,265.7431493999993,None,265.7431493999993,None,265.7431493999993,None,265.7431493999993,None,265.7431493999993,None,265.7431493999993,None,k,1,0.430793999999878,265.7431493999993,None,,,,,,,,,,,,,17,001,2022_Oct_19_1429,Flanker,2021.2.0,242.70077422219057,
incongruent-left.jpg,0,a,right_arrow.png,right_arrow.png,right_arrow.png,left_arrow.png,right_arrow.png,right_arrow.png,right_arrow.png,,,,,,,,,7,2,44,1,,,,,,,,,266.1935651999993,None,,,,,,,,,,,,,,,,,,,,,,,,,,,,,,267.2074407,None,267.2074407,None,267.2074407,None,267.2074407,None,267.2074407,None,267.2074407,None,267.2074407,None,a,1,0.4386856999990414,267.2074407,None,,,,,,,,,,,,,17,001,2022_Oct_19_1429,Flanker,2021.2.0,242.70077422219057,
incongruent-right.jpg,0,k,left_arrow.png,left_arrow.png,left_arrow.png,right_arrow.png,left_arrow.png,left_arrow.png,left_arrow.png,,,,,,,,,7,3,45,3,,,,,,,,,267.6576243999989,None,,,,,,,,,,,,,,,,,,,,,,,,,,,,,,268.66722449999907,None,268.66722449999907,None,268.66722449999907,None,268.66722449999907,None,268.66722449999907,None,268.66722449999907,None,268.66722449999907,None,k,1,0.3231060999987676,268.66722449999907,None,,,,,,,,,,,,,17,001,2022_Oct_19_1429,Flanker,2021.2.0,242.70077422219057,
congruent-left.jpg,1,a,left_arrow.png,left_arrow.png,left_arrow.png,left_arrow.png,left_arrow.png,left_arrow.png,left_arrow.png,,,,,,,,,7,4,46,0,,,,,,,,,269.0090436999999,None,,,,,,,,,,,,,,,,,,,,,,,,,,,,,,270.02679009999883,None,270.02679009999883,None,270.02679009999883,None,270.02679009999883,None,270.02679009999883,None,270.02679009999883,None,270.02679009999883,None,a,1,0.3236968999990495,270.02679009999883,None,,,,,,,,,,,,,17,001,2022_Oct_19_1429,Flanker,2021.2.0,242.70077422219057,
neutral right,0,k,neutral.png,neutral.png,neutral.png,right_arrow.png,neutral.png,neutral.png,neutral.png,,,,,,,,,7,5,47,5,,,,,,,,,270.36881279999943,None,,,,,,,,,,,,,,,,,,,,,,,,,,,,,,271.3824163999998,None,271.3824163999998,None,271.3824163999998,None,271.3824163999998,None,271.3824163999998,None,271.3824163999998,None,271.3824163999998,None,k,1,0.3363071999992826,271.3824163999998,None,,,,,,,,,,,,,17,001,2022_Oct_19_1429,Flanker,2021.2.0,242.70077422219057,
,,,,,,,,,,,,,,,,,,,,,,,,,,,,,,,,,,,,,,,,,,,,,,,,,,,,,,,,,,,,,,,,,,,,,,,,,,,,,,,,271.7452947999991,None,space,10.703051399999822,271.7452947999991,None,,,,,,,17,001,2022_Oct_19_1429,Flanker,2021.2.0,242.70077422219057,
congruent-left.jpg,1,a,left_arrow.png,left_arrow.png,left_arrow.png,left_arrow.png,left_arrow.png,left_arrow.png,left_arrow.png,,,,,,,,,,,,,0,0,0,0,,,,,282.47341029999916,None,,,,,,,,,,,,,,,,,,,,,,,,,,,,,,283.4788475000005,None,283.4788475000005,None,283.4788475000005,None,283.4788475000005,None,283.4788475000005,None,283.4788475000005,None,283.4788475000005,None,a,1,0.4338367999989714,283.4788475000005,None,,,,,,,,,,,,,17,001,2022_Oct_19_1429,Flanker,2021.2.0,242.70077422219057,
congruent-right.jpg,1,k,right_arrow.png,right_arrow.png,right_arrow.png,right_arrow.png,right_arrow.png,right_arrow.png,right_arrow.png,,,,,,,,,,,,,0,1,1,2,,,,,283.92903959999967,None,,,,,,,,,,,,,,,,,,,,,,,,,,,,,,284.9427599999999,None,284.9427599999999,None,284.9427599999999,None,284.9427599999999,None,284.9427599999999,None,284.9427599999999,None,284.9427599999999,None,k,1,0.36181260000012117,284.9427599999999,None,,,,,,,,,,,,,17,001,2022_Oct_19_1429,Flanker,2021.2.0,242.70077422219057,
neutral right,0,k,neutral.png,neutral.png,neutral.png,right_arrow.png,neutral.png,neutral.png,neutral.png,,,,,,,,,,,,,0,2,2,5,,,,,285.3183747999992,None,,,,,,,,,,,,,,,,,,,,,,,,,,,,,,286.33180619999985,None,286.33180619999985,None,286.33180619999985,None,286.33180619999985,None,286.33180619999985,None,286.33180619999985,None,286.33180619999985,None,k,1,0.4373066000007384,286.33180619999985,None,,,,,,,,,,,,,17,001,2022_Oct_19_1429,Flanker,2021.2.0,242.70077422219057,
neutral right,0,k,neutral.png,neutral.png,neutral.png,right_arrow.png,neutral.png,neutral.png,neutral.png,,,,,,,,,,,,,0,3,3,5,,,,,286.7822218000001,None,,,,,,,,,,,,,,,,,,,,,,,,,,,,,,287.7917765000002,None,287.7917765000002,None,287.7917765000002,None,287.7917765000002,None,287.7917765000002,None,287.7917765000002,None,287.7917765000002,None,k,1,0.37725920000048063,287.7917765000002,None,,,,,,,,,,,,,17,001,2022_Oct_19_1429,Flanker,2021.2.0,242.70077422219057,
incongruent-right.jpg,0,k,left_arrow.png,left_arrow.png,left_arrow.png,right_arrow.png,left_arrow.png,left_arrow.png,left_arrow.png,,,,,,,,,,,,,0,4,4,3,,,,,288.1835546000002,None,,,,,,,,,,,,,,,,,,,,,,,,,,,,,,289.19321669999954,None,289.19321669999954,None,289.19321669999954,None,289.19321669999954,None,289.19321669999954,None,289.19321669999954,None,289.19321669999954,None,k,1,0.4799306000004435,289.19321669999954,None,,,,,,,,,,,,,17,001,2022_Oct_19_1429,Flanker,2021.2.0,242.70077422219057,
neutral left,0,a,neutral.png,neutral.png,neutral.png,left_arrow.png,neutral.png,neutral.png,neutral.png,,,,,,,,,,,,,0,5,5,4,,,,,289.6851621000005,None,,,,,,,,,,,,,,,,,,,,,,,,,,,,,,290.69461279999996,None,290.69461279999996,None,290.69461279999996,None,290.69461279999996,None,290.69461279999996,None,290.69461279999996,None,290.69461279999996,None,a,1,0.4267787999997381,290.69461279999996,None,,,,,,,,,,,,,17,001,2022_Oct_19_1429,Flanker,2021.2.0,242.70077422219057,
congruent-left.jpg,1,a,left_arrow.png,left_arrow.png,left_arrow.png,left_arrow.png,left_arrow.png,left_arrow.png,left_arrow.png,,,,,,,,,,,,,1,0,6,0,,,,,291.13678810000056,None,,,,,,,,,,,,,,,,,,,,,,,,,,,,,,292.14633890000005,None,292.14633890000005,None,292.14633890000005,None,292.14633890000005,None,292.14633890000005,None,292.14633890000005,None,292.14633890000005,None,a,1,0.391237200001342,292.14633890000005,None,,,,,,,,,,,,,17,001,2022_Oct_19_1429,Flanker,2021.2.0,242.70077422219057,
incongruent-right.jpg,0,k,left_arrow.png,left_arrow.png,left_arrow.png,right_arrow.png,left_arrow.png,left_arrow.png,left_arrow.png,,,,,,,,,,,,,1,1,7,3,,,,,292.55488969999897,None,,,,,,,,,,,,,,,,,,,,,,,,,,,,,,293.5686260000002,None,293.5686260000002,None,293.5686260000002,None,293.5686260000002,None,293.5686260000002,None,293.5686260000002,None,293.5686260000002,None,k,1,0.3773414999996021,293.5686260000002,None,,,,,,,,,,,,,17,001,2022_Oct_19_1429,Flanker,2021.2.0,242.70077422219057,
congruent-left.jpg,1,a,left_arrow.png,left_arrow.png,left_arrow.png,left_arrow.png,left_arrow.png,left_arrow.png,left_arrow.png,,,,,,,,,,,,,1,2,8,0,,,,,293.96098209999946,None,,,,,,,,,,,,,,,,,,,,,,,,,,,,,,294.970110799999,None,294.970110799999,None,294.970110799999,None,294.970110799999,None,294.970110799999,None,294.970110799999,None,294.970110799999,None,a,1,0.3918854999992618,294.970110799999,None,,,,,,,,,,,,,17,001,2022_Oct_19_1429,Flanker,2021.2.0,242.70077422219057,
incongruent-left.jpg,0,a,right_arrow.png,right_arrow.png,right_arrow.png,left_arrow.png,right_arrow.png,right_arrow.png,right_arrow.png,,,,,,,,,,,,,1,3,9,1,,,,,295.3789319999996,None,,,,,,,,,,,,,,,,,,,,,,,,,,,,,,296.38838880000003,None,296.38838880000003,None,296.38838880000003,None,296.38838880000003,None,296.38838880000003,None,296.38838880000003,None,296.38838880000003,None,a,1,0.4217468999995617,296.38838880000003,None,,,,,,,,,,,,,17,001,2022_Oct_19_1429,Flanker,2021.2.0,242.70077422219057,
incongruent-left.jpg,0,a,right_arrow.png,right_arrow.png,right_arrow.png,left_arrow.png,right_arrow.png,right_arrow.png,right_arrow.png,,,,,,,,,,,,,1,4,10,1,,,,,296.82191740000053,None,,,,,,,,,,,,,,,,,,,,,,,,,,,,,,297.8355037000001,None,297.8355037000001,None,297.8355037000001,None,297.8355037000001,None,297.8355037000001,None,297.8355037000001,None,297.8355037000001,None,a,1,0.3908264000001509,297.8355037000001,None,,,,,,,,,,,,,17,001,2022_Oct_19_1429,Flanker,2021.2.0,242.70077422219057,
congruent-left.jpg,1,a,left_arrow.png,left_arrow.png,left_arrow.png,left_arrow.png,left_arrow.png,left_arrow.png,left_arrow.png,,,,,,,,,,,,,1,5,11,0,,,,,298.2442343999992,None,,,,,,,,,,,,,,,,,,,,,,,,,,,,,,299.2579752999991,None,299.2579752999991,None,299.2579752999991,None,299.2579752999991,None,299.2579752999991,None,299.2579752999991,None,299.2579752999991,None,a,1,0.44070879999890167,299.2579752999991,None,,,,,,,,,,,,,17,001,2022_Oct_19_1429,Flanker,2021.2.0,242.70077422219057,
neutral right,0,k,neutral.png,neutral.png,neutral.png,right_arrow.png,neutral.png,neutral.png,neutral.png,,,,,,,,,,,,,2,0,12,5,,,,,299.7168012000002,None,,,,,,,,,,,,,,,,,,,,,,,,,,,,,,300.72621269999945,None,300.72621269999945,None,300.72621269999945,None,300.72621269999945,None,300.72621269999945,None,300.72621269999945,None,300.72621269999945,None,k,1,0.3805216000000655,300.72621269999945,None,,,,,,,,,,,,,17,001,2022_Oct_19_1429,Flanker,2021.2.0,242.70077422219057,
congruent-left.jpg,1,a,left_arrow.png,left_arrow.png,left_arrow.png,left_arrow.png,left_arrow.png,left_arrow.png,left_arrow.png,,,,,,,,,,,,,2,1,13,0,,,,,301.1183538000005,None,,,,,,,,,,,,,,,,,,,,,,,,,,,,,,302.1317197999997,None,302.1317197999997,None,302.1317197999997,None,302.1317197999997,None,302.1317197999997,None,302.1317197999997,None,302.1317197999997,None,a,1,0.4232103000013012,302.1317197999997,None,,,,,,,,,,,,,17,001,2022_Oct_19_1429,Flanker,2021.2.0,242.70077422219057,
incongruent-right.jpg,0,k,left_arrow.png,left_arrow.png,left_arrow.png,right_arrow.png,left_arrow.png,left_arrow.png,left_arrow.png,,,,,,,,,,,,,2,2,14,3,,,,,302.57402139999976,None,,,,,,,,,,,,,,,,,,,,,,,,,,,,,,303.5875763999993,None,303.5875763999993,None,303.5875763999993,None,303.5875763999993,None,303.5875763999993,None,303.5875763999993,None,303.5875763999993,None,k,1,0.5435850000012579,303.5875763999993,None,,,,,,,,,,,,,17,001,2022_Oct_19_1429,Flanker,2021.2.0,242.70077422219057,
incongruent-left.jpg,0,a,right_arrow.png,right_arrow.png,right_arrow.png,left_arrow.png,right_arrow.png,right_arrow.png,right_arrow.png,,,,,,,,,,,,,2,3,15,1,,,,,304.1463444000001,None,,,,,,,,,,,,,,,,,,,,,,,,,,,,,,305.16007460000037,None,305.16007460000037,None,305.16007460000037,None,305.16007460000037,None,305.16007460000037,None,305.16007460000037,None,305.16007460000037,None,a,1,0.315534999999727,305.16007460000037,None,,,,,,,,,,,,,17,001,2022_Oct_19_1429,Flanker,2021.2.0,242.70077422219057,
neutral left,0,a,neutral.png,neutral.png,neutral.png,left_arrow.png,neutral.png,neutral.png,neutral.png,,,,,,,,,,,,,2,4,16,4,,,,,305.49369449999904,None,,,,,,,,,,,,,,,,,,,,,,,,,,,,,,306.5031737999998,None,306.5031737999998,None,306.5031737999998,None,306.5031737999998,None,306.5031737999998,None,306.5031737999998,None,306.5031737999998,None,a,1,0.36434360000021115,306.5031737999998,None,,,,,,,,,,,,,17,001,2022_Oct_19_1429,Flanker,2021.2.0,242.70077422219057,
congruent-left.jpg,1,a,left_arrow.png,left_arrow.png,left_arrow.png,left_arrow.png,left_arrow.png,left_arrow.png,left_arrow.png,,,,,,,,,,,,,2,5,17,0,,,,,306.8867554999997,None,,,,,,,,,,,,,,,,,,,,,,,,,,,,,,307.9004845999989,None,307.9004845999989,None,307.9004845999989,None,307.9004845999989,None,307.9004845999989,None,307.9004845999989,None,307.9004845999989,None,a,1,0.4392260999993596,307.9004845999989,None,,,,,,,,,,,,,17,001,2022_Oct_19_1429,Flanker,2021.2.0,242.70077422219057,
congruent-right.jpg,1,k,right_arrow.png,right_arrow.png,right_arrow.png,right_arrow.png,right_arrow.png,right_arrow.png,right_arrow.png,,,,,,,,,,,,,3,0,18,2,,,,,308.35923919999914,None,,,,,,,,,,,,,,,,,,,,,,,,,,,,,,309.3688306999993,None,309.3688306999993,None,309.3688306999993,None,309.3688306999993,None,309.3688306999993,None,309.3688306999993,None,309.3688306999993,None,k,1,0.42743940000036673,309.3688306999993,None,,,,,,,,,,,,,17,001,2022_Oct_19_1429,Flanker,2021.2.0,242.70077422219057,
neutral right,0,k,neutral.png,neutral.png,neutral.png,right_arrow.png,neutral.png,neutral.png,neutral.png,,,,,,,,,,,,,3,1,19,5,,,,,309.8107493999996,None,,,,,,,,,,,,,,,,,,,,,,,,,,,,,,310.82444099999884,None,310.82444099999884,None,310.82444099999884,None,310.82444099999884,None,310.82444099999884,None,310.82444099999884,None,310.82444099999884,None,k,1,0.41996089999884134,310.82444099999884,None,,,,,,,,,,,,,17,001,2022_Oct_19_1429,Flanker,2021.2.0,242.70077422219057,
neutral left,0,a,neutral.png,neutral.png,neutral.png,left_arrow.png,neutral.png,neutral.png,neutral.png,,,,,,,,,,,,,3,2,20,4,,,,,311.2584642999991,None,,,,,,,,,,,,,,,,,,,,,,,,,,,,,,312.271797899999,None,312.271797899999,None,312.271797899999,None,312.271797899999,None,312.271797899999,None,312.271797899999,None,312.271797899999,None,a,1,0.4285515999999916,312.271797899999,None,,,,,,,,,,,,,17,001,2022_Oct_19_1429,Flanker,2021.2.0,242.70077422219057,
neutral left,0,a,neutral.png,neutral.png,neutral.png,left_arrow.png,neutral.png,neutral.png,neutral.png,,,,,,,,,,,,,3,3,21,4,,,,,312.71413629999915,None,,,,,,,,,,,,,,,,,,,,,,,,,,,,,,313.7232538999997,None,313.7232538999997,None,313.7232538999997,None,313.7232538999997,None,313.7232538999997,None,313.7232538999997,None,313.7232538999997,None,a,1,0.39344960000016727,313.7232538999997,None,,,,,,,,,,,,,17,001,2022_Oct_19_1429,Flanker,2021.2.0,242.70077422219057,
incongruent-left.jpg,0,a,right_arrow.png,right_arrow.png,right_arrow.png,left_arrow.png,right_arrow.png,right_arrow.png,right_arrow.png,,,,,,,,,,,,,3,4,22,1,,,,,314.13220270000056,None,,,,,,,,,,,,,,,,,,,,,,,,,,,,,,315.145524399999,None,315.145524399999,None,315.145524399999,None,315.145524399999,None,315.145524399999,None,315.145524399999,None,315.145524399999,None,a,1,0.49920639999982086,315.145524399999,None,,,,,,,,,,,,,17,001,2022_Oct_19_1429,Flanker,2021.2.0,242.70077422219057,
neutral right,0,k,neutral.png,neutral.png,neutral.png,right_arrow.png,neutral.png,neutral.png,neutral.png,,,,,,,,,,,,,3,5,23,5,,,,,315.66272319999916,None,,,,,,,,,,,,,,,,,,,,,,,,,,,,,,316.67658870000014,None,316.67658870000014,None,316.67658870000014,None,316.67658870000014,None,316.67658870000014,None,316.67658870000014,None,316.67658870000014,None,k,1,0.4166588000007323,316.67658870000014,None,,,,,,,,,,,,,17,001,2022_Oct_19_1429,Flanker,2021.2.0,242.70077422219057,
incongruent-right.jpg,0,k,left_arrow.png,left_arrow.png,left_arrow.png,right_arrow.png,left_arrow.png,left_arrow.png,left_arrow.png,,,,,,,,,,,,,4,0,24,3,,,,,317.1105370999994,None,,,,,,,,,,,,,,,,,,,,,,,,,,,,,,318.123673099999,None,318.123673099999,None,318.123673099999,None,318.123673099999,None,318.123673099999,None,318.123673099999,None,318.123673099999,None,k,1,0.5454785999991145,318.123673099999,None,,,,,,,,,,,,,17,001,2022_Oct_19_1429,Flanker,2021.2.0,242.70077422219057,
congruent-right.jpg,1,k,right_arrow.png,right_arrow.png,right_arrow.png,right_arrow.png,right_arrow.png,right_arrow.png,right_arrow.png,,,,,,,,,,,,,4,1,25,2,,,,,318.6826756999999,None,,,,,,,,,,,,,,,,,,,,,,,,,,,,,,319.69201520000024,None,319.69201520000024,None,319.69201520000024,None,319.69201520000024,None,319.69201520000024,None,319.69201520000024,None,319.69201520000024,None,k,1,0.44130739999854995,319.69201520000024,None,,,,,,,,,,,,,17,001,2022_Oct_19_1429,Flanker,2021.2.0,242.70077422219057,
neutral right,0,k,neutral.png,neutral.png,neutral.png,right_arrow.png,neutral.png,neutral.png,neutral.png,,,,,,,,,,,,,4,2,26,5,,,,,320.15098659999967,None,,,,,,,,,,,,,,,,,,,,,,,,,,,,,,321.16440650000004,None,321.16440650000004,None,321.16440650000004,None,321.16440650000004,None,321.16440650000004,None,321.16440650000004,None,321.16440650000004,None,k,1,0.43350400000053924,321.16440650000004,None,,,,,,,,,,,,,17,001,2022_Oct_19_1429,Flanker,2021.2.0,242.70077422219057,
congruent-right.jpg,1,k,right_arrow.png,right_arrow.png,right_arrow.png,right_arrow.png,right_arrow.png,right_arrow.png,right_arrow.png,,,,,,,,,,,,,4,3,27,2,,,,,321.61525729999994,None,,,,,,,,,,,,,,,,,,,,,,,,,,,,,,322.62845559999914,None,322.62845559999914,None,322.62845559999914,None,322.62845559999914,None,322.62845559999914,None,322.62845559999914,None,322.62845559999914,None,k,1,0.4252785999997286,322.62845559999914,None,,,,,,,,,,,,,17,001,2022_Oct_19_1429,Flanker,2021.2.0,242.70077422219057,
congruent-left.jpg,1,a,left_arrow.png,left_arrow.png,left_arrow.png,left_arrow.png,left_arrow.png,left_arrow.png,left_arrow.png,,,,,,,,,,,,,4,4,28,0,,,,,323.0705951,None,,,,,,,,,,,,,,,,,,,,,,,,,,,,,,324.07999969999946,None,324.07999969999946,None,324.07999969999946,None,324.07999969999946,None,324.07999969999946,None,324.07999969999946,None,324.07999969999946,None,a,1,0.4379168999985268,324.07999969999946,None,,,,,,,,,,,,,17,001,2022_Oct_19_1429,Flanker,2021.2.0,242.70077422219057,
incongruent-left.jpg,0,a,right_arrow.png,right_arrow.png,right_arrow.png,left_arrow.png,right_arrow.png,right_arrow.png,right_arrow.png,,,,,,,,,,,,,4,5,29,1,,,,,324.53078129999994,None,,,,,,,,,,,,,,,,,,,,,,,,,,,,,,325.5396325999991,None,325.5396325999991,None,325.5396325999991,None,325.5396325999991,None,325.5396325999991,None,325.5396325999991,None,325.5396325999991,None,a,1,0.5304816000007122,325.5396325999991,None,,,,,,,,,,,,,17,001,2022_Oct_19_1429,Flanker,2021.2.0,242.70077422219057,
neutral left,0,a,neutral.png,neutral.png,neutral.png,left_arrow.png,neutral.png,neutral.png,neutral.png,,,,,,,,,,,,,5,0,30,4,,,,,326.082120699999,None,,,,,,,,,,,,,,,,,,,,,,,,,,,,,,327.09592519999933,None,327.09592519999933,None,327.09592519999933,None,327.09592519999933,None,327.09592519999933,None,327.09592519999933,None,327.09592519999933,None,a,1,0.41440270000020973,327.09592519999933,None,,,,,,,,,,,,,17,001,2022_Oct_19_1429,Flanker,2021.2.0,242.70077422219057,
incongruent-left.jpg,0,a,right_arrow.png,right_arrow.png,right_arrow.png,left_arrow.png,right_arrow.png,right_arrow.png,right_arrow.png,,,,,,,,,,,,,5,1,31,1,,,,,327.52956749999976,None,,,,,,,,,,,,,,,,,,,,,,,,,,,,,,328.5392625000004,None,328.5392625000004,None,328.5392625000004,None,328.5392625000004,None,328.5392625000004,None,328.5392625000004,None,328.5392625000004,None,a,1,0.42735649999849556,328.5392625000004,None,,,,,,,,,,,,,17,001,2022_Oct_19_1429,Flanker,2021.2.0,242.70077422219057,
neutral left,0,a,neutral.png,neutral.png,neutral.png,left_arrow.png,neutral.png,neutral.png,neutral.png,,,,,,,,,,,,,5,2,32,4,,,,,328.9810029,None,,,,,,,,,,,,,,,,,,,,,,,,,,,,,,329.99497599999995,None,329.99497599999995,None,329.99497599999995,None,329.99497599999995,None,329.99497599999995,None,329.99497599999995,None,329.99497599999995,None,a,1,0.4037499000005482,329.99497599999995,None,,,,,,,,,,,,,17,001,2022_Oct_19_1429,Flanker,2021.2.0,242.70077422219057,
incongruent-right.jpg,0,k,left_arrow.png,left_arrow.png,left_arrow.png,right_arrow.png,left_arrow.png,left_arrow.png,left_arrow.png,,,,,,,,,,,,,5,3,33,3,,,,,330.41173940000044,None,,,,,,,,,,,,,,,,,,,,,,,,,,,,,,331.42115469999953,None,331.42115469999953,None,331.42115469999953,None,331.42115469999953,None,331.42115469999953,None,331.42115469999953,None,331.42115469999953,None,k,1,0.5298206000006758,331.42115469999953,None,,,,,,,,,,,,,17,001,2022_Oct_19_1429,Flanker,2021.2.0,242.70077422219057,
incongruent-left.jpg,0,a,right_arrow.png,right_arrow.png,right_arrow.png,left_arrow.png,right_arrow.png,right_arrow.png,right_arrow.png,,,,,,,,,,,,,5,4,34,1,,,,,331.96373239999957,None,,,,,,,,,,,,,,,,,,,,,,,,,,,,,,332.9772469999989,None,332.9772469999989,None,332.9772469999989,None,332.9772469999989,None,332.9772469999989,None,332.9772469999989,None,332.9772469999989,None,a,1,0.57391540000026,332.9772469999989,None,,,,,,,,,,,,,17,001,2022_Oct_19_1429,Flanker,2021.2.0,242.70077422219057,
congruent-left.jpg,1,a,left_arrow.png,left_arrow.png,left_arrow.png,left_arrow.png,left_arrow.png,left_arrow.png,left_arrow.png,,,,,,,,,,,,,5,5,35,0,,,,,333.56922959999974,None,,,,,,,,,,,,,,,,,,,,,,,,,,,,,,334.57894589999887,None,334.57894589999887,None,334.57894589999887,None,334.57894589999887,None,334.57894589999887,None,334.57894589999887,None,334.57894589999887,None,a,1,0.4604497000000265,334.57894589999887,None,,,,,,,,,,,,,17,001,2022_Oct_19_1429,Flanker,2021.2.0,242.70077422219057,
neutral left,0,a,neutral.png,neutral.png,neutral.png,left_arrow.png,neutral.png,neutral.png,neutral.png,,,,,,,,,,,,,6,0,36,4,,,,,335.05421709999973,None,,,,,,,,,,,,,,,,,,,,,,,,,,,,,,336.06802549999884,None,336.06802549999884,None,336.06802549999884,None,336.06802549999884,None,336.06802549999884,None,336.06802549999884,None,336.06802549999884,None,a,1,0.37150279999877966,336.06802549999884,None,,,,,,,,,,,,,17,001,2022_Oct_19_1429,Flanker,2021.2.0,242.70077422219057,
congruent-right.jpg,1,k,right_arrow.png,right_arrow.png,right_arrow.png,right_arrow.png,right_arrow.png,right_arrow.png,right_arrow.png,,,,,,,,,,,,,6,1,37,2,,,,,336.4514631000002,None,,,,,,,,,,,,,,,,,,,,,,,,,,,,,,337.46528959999887,None,337.46528959999887,None,337.46528959999887,None,337.46528959999887,None,337.46528959999887,None,337.46528959999887,None,337.46528959999887,None,k,1,0.5184570000001258,337.46528959999887,None,,,,,,,,,,,,,17,001,2022_Oct_19_1429,Flanker,2021.2.0,242.70077422219057,
incongruent-right.jpg,0,k,left_arrow.png,left_arrow.png,left_arrow.png,right_arrow.png,left_arrow.png,left_arrow.png,left_arrow.png,,,,,,,,,,,,,6,2,38,3,,,,,337.99892869999894,None,,,,,,,,,,,,,,,,,,,,,,,,,,,,,,339.00833599999896,None,339.00833599999896,None,339.00833599999896,None,339.00833599999896,None,339.00833599999896,None,339.00833599999896,None,339.00833599999896,None,k,1,0.5676667000007001,339.00833599999896,None,,,,,,,,,,,,,17,001,2022_Oct_19_1429,Flanker,2021.2.0,242.70077422219057,
neutral right,0,k,neutral.png,neutral.png,neutral.png,right_arrow.png,neutral.png,neutral.png,neutral.png,,,,,,,,,,,,,6,3,39,5,,,,,339.5923781999991,None,,,,,,,,,,,,,,,,,,,,,,,,,,,,,,340.6020910999996,None,340.6020910999996,None,340.6020910999996,None,340.6020910999996,None,340.6020910999996,None,340.6020910999996,None,340.6020910999996,None,k,1,0.42209209999964514,340.6020910999996,None,,,,,,,,,,,,,17,001,2022_Oct_19_1429,Flanker,2021.2.0,242.70077422219057,
incongruent-left.jpg,0,a,right_arrow.png,right_arrow.png,right_arrow.png,left_arrow.png,right_arrow.png,right_arrow.png,right_arrow.png,,,,,,,,,,,,,6,4,40,1,,,,,341.0359358000005,None,,,,,,,,,,,,,,,,,,,,,,,,,,,,,,342.04490069999883,None,342.04490069999883,None,342.04490069999883,None,342.04490069999883,None,342.04490069999883,None,342.04490069999883,None,342.04490069999883,None,a,1,0.40350949999992736,342.04490069999883,None,,,,,,,,,,,,,17,001,2022_Oct_19_1429,Flanker,2021.2.0,242.70077422219057,
neutral left,0,a,neutral.png,neutral.png,neutral.png,left_arrow.png,neutral.png,neutral.png,neutral.png,,,,,,,,,,,,,6,5,41,4,,,,,342.46200829999907,None,,,,,,,,,,,,,,,,,,,,,,,,,,,,,,343.4716642000003,None,343.4716642000003,None,343.4716642000003,None,343.4716642000003,None,343.4716642000003,None,343.4716642000003,None,343.4716642000003,None,a,1,0.43322020000050543,343.4716642000003,None,,,,,,,,,,,,,17,001,2022_Oct_19_1429,Flanker,2021.2.0,242.70077422219057,
incongruent-right.jpg,0,k,left_arrow.png,left_arrow.png,left_arrow.png,right_arrow.png,left_arrow.png,left_arrow.png,left_arrow.png,,,,,,,,,,,,,7,0,42,3,,,,,343.9222544000004,None,,,,,,,,,,,,,,,,,,,,,,,,,,,,,,344.9354681999994,None,344.9354681999994,None,344.9354681999994,None,344.9354681999994,None,344.9354681999994,None,344.9354681999994,None,344.9354681999994,None,k,1,0.4496252999997523,344.9354681999994,None,,,,,,,,,,,,,17,001,2022_Oct_19_1429,Flanker,2021.2.0,242.70077422219057,
congruent-right.jpg,1,k,right_arrow.png,right_arrow.png,right_arrow.png,right_arrow.png,right_arrow.png,right_arrow.png,right_arrow.png,,,,,,,,,,,,,7,1,43,2,,,,,345.40263649999906,None,,,,,,,,,,,,,,,,,,,,,,,,,,,,,,346.4164206000005,None,346.4164206000005,None,346.4164206000005,None,346.4164206000005,None,346.4164206000005,None,346.4164206000005,None,346.4164206000005,None,k,1,0.4965664999999717,346.4164206000005,None,,,,,,,,,,,,,17,001,2022_Oct_19_1429,Flanker,2021.2.0,242.70077422219057,
neutral right,0,k,neutral.png,neutral.png,neutral.png,right_arrow.png,neutral.png,neutral.png,neutral.png,,,,,,,,,,,,,7,2,44,5,,,,,346.9250869999996,None,,,,,,,,,,,,,,,,,,,,,,,,,,,,,,347.9348283999989,None,347.9348283999989,None,347.9348283999989,None,347.9348283999989,None,347.9348283999989,None,347.9348283999989,None,347.9348283999989,None,k,1,0.514369299999089,347.9348283999989,None,,,,,,,,,,,,,17,001,2022_Oct_19_1429,Flanker,2021.2.0,242.70077422219057,
congruent-right.jpg,1,k,right_arrow.png,right_arrow.png,right_arrow.png,right_arrow.png,right_arrow.png,right_arrow.png,right_arrow.png,,,,,,,,,,,,,7,3,45,2,,,,,348.46006599999964,None,,,,,,,,,,,,,,,,,,,,,,,,,,,,,,349.4739214000001,None,349.4739214000001,None,349.4739214000001,None,349.4739214000001,None,349.4739214000001,None,349.4739214000001,None,349.4739214000001,None,k,1,0.6237921000010829,349.4739214000001,None,,,,,,,,,,,,,17,001,2022_Oct_19_1429,Flanker,2021.2.0,242.70077422219057,
congruent-right.jpg,1,k,right_arrow.png,right_arrow.png,right_arrow.png,right_arrow.png,right_arrow.png,right_arrow.png,right_arrow.png,,,,,,,,,,,,,7,4,46,2,,,,,350.1161842999991,None,,,,,,,,,,,,,,,,,,,,,,,,,,,,,,351.12569540000004,None,351.12569540000004,None,351.12569540000004,None,351.12569540000004,None,351.12569540000004,None,351.12569540000004,None,351.12569540000004,None,k,1,0.41193070000008447,351.12569540000004,None,,,,,,,,,,,,,17,001,2022_Oct_19_1429,Flanker,2021.2.0,242.70077422219057,
incongruent-right.jpg,0,k,left_arrow.png,left_arrow.png,left_arrow.png,right_arrow.png,left_arrow.png,left_arrow.png,left_arrow.png,,,,,,,,,,,,,7,5,47,3,,,,,351.55090349999955,None,,,,,,,,,,,,,,,,,,,,,,,,,,,,,,352.5647580999994,None,352.5647580999994,None,352.5647580999994,None,352.5647580999994,None,352.5647580999994,None,352.5647580999994,None,352.5647580999994,None,k,1,0.4771063000007416,352.5647580999994,None,,,,,,,,,,,,,17,001,2022_Oct_19_1429,Flanker,2021.2.0,242.70077422219057,
,,,,,,,,,,,,,,,,,,,,,,,,,,,,,,,,,,,,,,,,,,,,,,,,,,,,,,,,,,,,,,,,,,,,,,,,,,,,,,,,353.06501500000013,None,space,12.0504576000003,353.06501500000013,None,,,,,,,17,001,2022_Oct_19_1429,Flanker,2021.2.0,242.70077422219057,
,,,,,,,,,,,,,,,,,,,,,,,,,,,,,,,,,,,,,,,,,,,,,,,,,,,,,,,,,,,,,,,,,,,,,,,,,,,,,,,,,,,,,,365.12788960000034,None,space,12.173284299999068,365.12788960000034,None,17,001,2022_Oct_19_1429,Flanker,2021.2.0,242.70077422219057,
