images,congruentcy,corrAns,arrow_1,arrow_2,arrow_3,target,arrow_5,arrow_6,arrow_7,practice.thisRepN,practice.thisTrialN,practice.thisN,practice.thisIndex,trials.thisRepN,trials.thisTrialN,trials.thisN,trials.thisIndex,trials_2.thisRepN,trials_2.thisTrialN,trials_2.thisN,trials_2.thisIndex,trials_3.thisRepN,trials_3.thisTrialN,trials_3.thisN,trials_3.thisIndex,instr_text.started,instr_text.stopped,instr_resp.keys,instr_resp.rt,polygon.started,polygon.stopped,arrow1_.started,arrow1_.stopped,arrow2_.started,arrow2_.stopped,arrow3_.started,arrow3_.stopped,target_p.started,target_p.stopped,arrow5_.started,arrow5_.stopped,arrow6_.started,arrow6_.stopped,arrow7_.started,arrow7_.stopped,key_resp_P.keys,key_resp_P.corr,key_resp_P.rt,key_resp_P.started,key_resp_P.stopped,text_2.started,text_2.stopped,text_3.started,text_3.stopped,text_4.started,text_4.stopped,key_resp_2.keys,key_resp_2.rt,key_resp_2.started,key_resp_2.stopped,arrow1.started,arrow1.stopped,arrow2.started,arrow2.stopped,arrow3.started,arrow3.stopped,target_t.started,target_t.stopped,arrow5.started,arrow5.stopped,arrow6.started,arrow6.stopped,arrow7.started,arrow7.stopped,key_resp.keys,key_resp.corr,key_resp.rt,key_resp.started,key_resp.stopped,text_5.started,text_5.stopped,key_resp_3.keys,key_resp_3.rt,key_resp_3.started,key_resp_3.stopped,text_6.started,text_6.stopped,key_resp_4.keys,key_resp_4.rt,key_resp_4.started,key_resp_4.stopped,participant,session,date,expName,psychopyVersion,frameRate,
,,,,,,,,,,,,,,,,,,,,,,,,,,10.392607400000998,None,space,9.506517000001622,,,,,,,,,,,,,,,,,,,,,,,,,,,,,,,,,,,,,,,,,,,,,,,,,,,,,,,,,,,,,,,18,001,2022_Oct_19_1655,Flanker,2021.2.0,239.70008725533302,
incongruent-left.jpg,0,a,right_arrow.png,right_arrow.png,right_arrow.png,left_arrow.png,right_arrow.png,right_arrow.png,right_arrow.png,0,0,0,1,,,,,,,,,,,,,,,,,19.92071230000147,None,20.92175380000117,None,20.92175380000117,None,20.92175380000117,None,20.92175380000117,None,20.92175380000117,None,20.92175380000117,None,20.92175380000117,None,a,1,5.234214299998712,20.92175380000117,None,26.17735520000133,None,,,,,,,,,,,,,,,,,,,,,,,,,,,,,,,,,,,,,,,,18,001,2022_Oct_19_1655,Flanker,2021.2.0,239.70008725533302,
congruent-right.jpg,1,k,right_arrow.png,right_arrow.png,right_arrow.png,right_arrow.png,right_arrow.png,right_arrow.png,right_arrow.png,0,1,1,2,,,,,,,,,,,,,,,,,27.674858700000186,None,28.684155000002647,None,28.684155000002647,None,28.684155000002647,None,28.684155000002647,None,28.684155000002647,None,28.684155000002647,None,28.684155000002647,None,k,1,0.6642328999987512,28.684155000002647,None,29.359967700002016,None,,,,,,,,,,,,,,,,,,,,,,,,,,,,,,,,,,,,,,,,18,001,2022_Oct_19_1655,Flanker,2021.2.0,239.70008725533302,
incongruent-left.jpg,0,a,right_arrow.png,right_arrow.png,right_arrow.png,left_arrow.png,right_arrow.png,right_arrow.png,right_arrow.png,0,2,2,1,,,,,,,,,,,,,,,,,30.86583320000136,None,31.875085200001195,None,31.875085200001195,None,31.875085200001195,None,31.875085200001195,None,31.875085200001195,None,31.875085200001195,None,31.875085200001195,None,a,1,0.7937710000005609,31.875085200001195,None,32.684335300000384,None,,,,,,,,,,,,,,,,,,,,,,,,,,,,,,,,,,,,,,,,18,001,2022_Oct_19_1655,Flanker,2021.2.0,239.70008725533302,
neutral left,0,a,neutral.png,neutral.png,neutral.png,left_arrow.png,neutral.png,neutral.png,neutral.png,0,3,3,4,,,,,,,,,,,,,,,,,34.18586490000234,None,35.1952603000027,None,35.1952603000027,None,35.1952603000027,None,35.1952603000027,None,35.1952603000027,None,35.1952603000027,None,35.1952603000027,None,a,1,0.5300274000001082,35.1952603000027,None,35.73749940000198,None,,,,,,,,,,,,,,,,,,,,,,,,,,,,,,,,,,,,,,,,18,001,2022_Oct_19_1655,Flanker,2021.2.0,239.70008725533302,
incongruent-right.jpg,0,k,left_arrow.png,left_arrow.png,left_arrow.png,right_arrow.png,left_arrow.png,left_arrow.png,left_arrow.png,0,4,4,3,,,,,,,,,,,,,,,,,37.24328170000081,None,38.24849540000287,None,38.24849540000287,None,38.24849540000287,None,38.24849540000287,None,38.24849540000287,None,38.24849540000287,None,38.24849540000287,None,k,1,0.6292782000018633,38.24849540000287,None,38.89086529999986,None,,,,,,,,,,,,,,,,,,,,,,,,,,,,,,,,,,,,,,,,18,001,2022_Oct_19_1655,Flanker,2021.2.0,239.70008725533302,
incongruent-right.jpg,0,k,left_arrow.png,left_arrow.png,left_arrow.png,right_arrow.png,left_arrow.png,left_arrow.png,left_arrow.png,0,5,5,3,,,,,,,,,,,,,,,,,40.392436300000554,None,41.40602410000065,None,41.40602410000065,None,41.40602410000065,None,41.40602410000065,None,41.40602410000065,None,41.40602410000065,None,41.40602410000065,None,k,1,0.5921236000031058,41.40602410000065,None,42.01528490000055,None,,,,,,,,,,,,,,,,,,,,,,,,,,,,,,,,,,,,,,,,18,001,2022_Oct_19_1655,Flanker,2021.2.0,239.70008725533302,
neutral left,0,a,neutral.png,neutral.png,neutral.png,left_arrow.png,neutral.png,neutral.png,neutral.png,1,0,6,4,,,,,,,,,,,,,,,,,43.52097370000047,None,44.52604870000141,None,44.52604870000141,None,44.52604870000141,None,44.52604870000141,None,44.52604870000141,None,44.52604870000141,None,44.52604870000141,None,a,1,0.5764983999979449,44.52604870000141,None,45.118282200000976,None,,,,,,,,,,,,,,,,,,,,,,,,,,,,,,,,,,,,,,,,18,001,2022_Oct_19_1655,Flanker,2021.2.0,239.70008725533302,
incongruent-right.jpg,0,k,left_arrow.png,left_arrow.png,left_arrow.png,right_arrow.png,left_arrow.png,left_arrow.png,left_arrow.png,1,1,7,3,,,,,,,,,,,,,,,,,46.61988349999956,None,47.63345550000304,None,47.63345550000304,None,47.63345550000304,None,47.63345550000304,None,47.63345550000304,None,47.63345550000304,None,47.63345550000304,None,k,1,0.5095185999998648,47.63345550000304,None,48.159021600000415,None,,,,,,,,,,,,,,,,,,,,,,,,,,,,,,,,,,,,,,,,18,001,2022_Oct_19_1655,Flanker,2021.2.0,239.70008725533302,
congruent-left.jpg,1,a,left_arrow.png,left_arrow.png,left_arrow.png,left_arrow.png,left_arrow.png,left_arrow.png,left_arrow.png,1,2,8,0,,,,,,,,,,,,,,,,,49.66478800000186,None,50.67432710000139,None,50.67432710000139,None,50.67432710000139,None,50.67432710000139,None,50.67432710000139,None,50.67432710000139,None,50.67432710000139,None,a,1,0.6050334999999905,50.67432710000139,None,51.29151590000038,None,,,,,,,,,,,,,,,,,,,,,,,,,,,,,,,,,,,,,,,,18,001,2022_Oct_19_1655,Flanker,2021.2.0,239.70008725533302,
neutral right,0,k,neutral.png,neutral.png,neutral.png,right_arrow.png,neutral.png,neutral.png,neutral.png,1,3,9,5,,,,,,,,,,,,,,,,,52.79337959999975,None,53.80690560000221,None,53.80690560000221,None,53.80690560000221,None,53.80690560000221,None,53.80690560000221,None,53.80690560000221,None,53.80690560000221,None,k,1,0.5128651000013633,53.80690560000221,None,54.3322173000015,None,,,,,,,,,,,,,,,,,,,,,,,,,,,,,,,,,,,,,,,,18,001,2022_Oct_19_1655,Flanker,2021.2.0,239.70008725533302,
congruent-left.jpg,1,a,left_arrow.png,left_arrow.png,left_arrow.png,left_arrow.png,left_arrow.png,left_arrow.png,left_arrow.png,1,4,10,0,,,,,,,,,,,,,,,,,55.83823140000095,None,56.847367100002884,None,56.847367100002884,None,56.847367100002884,None,56.847367100002884,None,56.847367100002884,None,56.847367100002884,None,56.847367100002884,None,a,1,0.5851561000017682,56.847367100002884,None,57.4483309999996,None,,,,,,,,,,,,,,,,,,,,,,,,,,,,,,,,,,,,,,,,18,001,2022_Oct_19_1655,Flanker,2021.2.0,239.70008725533302,
neutral left,0,a,neutral.png,neutral.png,neutral.png,left_arrow.png,neutral.png,neutral.png,neutral.png,1,5,11,4,,,,,,,,,,,,,,,,,58.95001070000217,None,59.963443100001314,None,59.963443100001314,None,59.963443100001314,None,59.963443100001314,None,59.963443100001314,None,59.963443100001314,None,59.963443100001314,None,a,1,0.5574611999982153,59.963443100001314,None,60.538938800000324,None,,,,,,,,,,,,,,,,,,,,,,,,,,,,,,,,,,,,,,,,18,001,2022_Oct_19_1655,Flanker,2021.2.0,239.70008725533302,
congruent-left.jpg,1,a,left_arrow.png,left_arrow.png,left_arrow.png,left_arrow.png,left_arrow.png,left_arrow.png,left_arrow.png,2,0,12,0,,,,,,,,,,,,,,,,,62.04490110000188,None,63.0500475000008,None,63.0500475000008,None,63.0500475000008,None,63.0500475000008,None,63.0500475000008,None,63.0500475000008,None,63.0500475000008,None,a,1,0.6792404000007082,63.0500475000008,None,63.74217620000127,None,,,,,,,,,,,,,,,,,,,,,,,,,,,,,,,,,,,,,,,,18,001,2022_Oct_19_1655,Flanker,2021.2.0,239.70008725533302,
neutral right,0,k,neutral.png,neutral.png,neutral.png,right_arrow.png,neutral.png,neutral.png,neutral.png,2,1,13,5,,,,,,,,,,,,,,,,,65.24829630000022,None,66.25346030000219,None,66.25346030000219,None,66.25346030000219,None,66.25346030000219,None,66.25346030000219,None,66.25346030000219,None,66.25346030000219,None,k,1,0.45202319999953033,66.25346030000219,None,66.72061960000065,None,,,,,,,,,,,,,,,,,,,,,,,,,,,,,,,,,,,,,,,,18,001,2022_Oct_19_1655,Flanker,2021.2.0,239.70008725533302,
neutral right,0,k,neutral.png,neutral.png,neutral.png,right_arrow.png,neutral.png,neutral.png,neutral.png,2,2,14,5,,,,,,,,,,,,,,,,,68.22662920000221,None,69.2355193000003,None,69.2355193000003,None,69.2355193000003,None,69.2355193000003,None,69.2355193000003,None,69.2355193000003,None,69.2355193000003,None,k,1,0.43036879999999655,69.2355193000003,None,69.6776557000012,None,,,,,,,,,,,,,,,,,,,,,,,,,,,,,,,,,,,,,,,,18,001,2022_Oct_19_1655,Flanker,2021.2.0,239.70008725533302,
congruent-left.jpg,1,a,left_arrow.png,left_arrow.png,left_arrow.png,left_arrow.png,left_arrow.png,left_arrow.png,left_arrow.png,2,3,15,0,,,,,,,,,,,,,,,,,71.18368410000039,None,72.19282270000258,None,72.19282270000258,None,72.19282270000258,None,72.19282270000258,None,72.19282270000258,None,72.19282270000258,None,72.19282270000258,None,a,1,0.47348369999963325,72.19282270000258,None,72.68510160000005,None,,,,,,,,,,,,,,,,,,,,,,,,,,,,,,,,,,,,,,,,18,001,2022_Oct_19_1655,Flanker,2021.2.0,239.70008725533302,
incongruent-left.jpg,0,a,right_arrow.png,right_arrow.png,right_arrow.png,left_arrow.png,right_arrow.png,right_arrow.png,right_arrow.png,2,4,16,1,,,,,,,,,,,,,,,,,74.18668450000041,None,75.2002945000022,None,75.2002945000022,None,75.2002945000022,None,75.2002945000022,None,75.2002945000022,None,75.2002945000022,None,75.2002945000022,None,a,1,0.522406600000977,75.2002945000022,None,75.73411770000166,None,,,,,,,,,,,,,,,,,,,,,,,,,,,,,,,,,,,,,,,,18,001,2022_Oct_19_1655,Flanker,2021.2.0,239.70008725533302,
neutral left,0,a,neutral.png,neutral.png,neutral.png,left_arrow.png,neutral.png,neutral.png,neutral.png,2,5,17,4,,,,,,,,,,,,,,,,,77.23584120000305,None,78.24927210000169,None,78.24927210000169,None,78.24927210000169,None,78.24927210000169,None,78.24927210000169,None,78.24927210000169,None,78.24927210000169,None,a,1,0.45799560000159545,78.24927210000169,None,78.72477790000266,None,,,,,,,,,,,,,,,,,,,,,,,,,,,,,,,,,,,,,,,,18,001,2022_Oct_19_1655,Flanker,2021.2.0,239.70008725533302,
neutral right,0,k,neutral.png,neutral.png,neutral.png,right_arrow.png,neutral.png,neutral.png,neutral.png,3,0,18,5,,,,,,,,,,,,,,,,,80.22651060000135,None,81.24009010000009,None,81.24009010000009,None,81.24009010000009,None,81.24009010000009,None,81.24009010000009,None,81.24009010000009,None,81.24009010000009,None,k,1,0.4995593000021472,81.24009010000009,None,81.75724249999985,None,,,,,,,,,,,,,,,,,,,,,,,,,,,,,,,,,,,,,,,,18,001,2022_Oct_19_1655,Flanker,2021.2.0,239.70008725533302,
congruent-right.jpg,1,k,right_arrow.png,right_arrow.png,right_arrow.png,right_arrow.png,right_arrow.png,right_arrow.png,right_arrow.png,3,1,19,2,,,,,,,,,,,,,,,,,83.26306250000198,None,84.27234000000317,None,84.27234000000317,None,84.27234000000317,None,84.27234000000317,None,84.27234000000317,None,84.27234000000317,None,84.27234000000317,None,k,1,0.45160009999744943,84.27234000000317,None,84.73979280000276,None,,,,,,,,,,,,,,,,,,,,,,,,,,,,,,,,,,,,,,,,18,001,2022_Oct_19_1655,Flanker,2021.2.0,239.70008725533302,
congruent-right.jpg,1,k,right_arrow.png,right_arrow.png,right_arrow.png,right_arrow.png,right_arrow.png,right_arrow.png,right_arrow.png,3,2,20,2,,,,,,,,,,,,,,,,,86.24109410000165,None,87.25525790000029,None,87.25525790000029,None,87.25525790000029,None,87.25525790000029,None,87.25525790000029,None,87.25525790000029,None,87.25525790000029,None,k,1,0.48510890000034124,87.25525790000029,None,87.75560410000253,None,,,,,,,,,,,,,,,,,,,,,,,,,,,,,,,,,,,,,,,,18,001,2022_Oct_19_1655,Flanker,2021.2.0,239.70008725533302,
incongruent-right.jpg,0,k,left_arrow.png,left_arrow.png,left_arrow.png,right_arrow.png,left_arrow.png,left_arrow.png,left_arrow.png,3,3,21,3,,,,,,,,,,,,,,,,,89.25686780000251,None,90.27057820000118,None,90.27057820000118,None,90.27057820000118,None,90.27057820000118,None,90.27057820000118,None,90.27057820000118,None,90.27057820000118,None,k,1,0.5662236999996821,90.27057820000118,None,90.854299300001,None,,,,,,,,,,,,,,,,,,,,,,,,,,,,,,,,,,,,,,,,18,001,2022_Oct_19_1655,Flanker,2021.2.0,239.70008725533302,
incongruent-left.jpg,0,a,right_arrow.png,right_arrow.png,right_arrow.png,left_arrow.png,right_arrow.png,right_arrow.png,right_arrow.png,3,4,22,1,,,,,,,,,,,,,,,,,92.36024960000213,None,93.36589660000027,None,93.36589660000027,None,93.36589660000027,None,93.36589660000027,None,93.36589660000027,None,93.36589660000027,None,93.36589660000027,None,a,1,0.4233787000011944,93.36589660000027,None,93.8077443000002,None,,,,,,,,,,,,,,,,,,,,,,,,,,,,,,,,,,,,,,,,18,001,2022_Oct_19_1655,Flanker,2021.2.0,239.70008725533302,
congruent-right.jpg,1,k,right_arrow.png,right_arrow.png,right_arrow.png,right_arrow.png,right_arrow.png,right_arrow.png,right_arrow.png,3,5,23,2,,,,,,,,,,,,,,,,,95.30904820000069,None,96.3227547000024,None,96.3227547000024,None,96.3227547000024,None,96.3227547000024,None,96.3227547000024,None,96.3227547000024,None,96.3227547000024,None,k,1,0.44281039999987115,96.3227547000024,None,96.78145650000079,None,,,,,,,,,,,,,,,,,,,,,,,,,,,,,,,,,,,,,,,,18,001,2022_Oct_19_1655,Flanker,2021.2.0,239.70008725533302,
,,,,,,,,,,,,,,,,,,,,,,,,,,,,,,,,,,,,,,,,,,,,,,,,,,,,,98.29567980000138,None,100.28959759999998,None,space,3.4052540000011504,100.28959759999998,None,,,,,,,,,,,,,,,,,,,,,,,,,,,,,,,,18,001,2022_Oct_19_1655,Flanker,2021.2.0,239.70008725533302,
congruent-left.jpg,1,a,left_arrow.png,left_arrow.png,left_arrow.png,left_arrow.png,left_arrow.png,left_arrow.png,left_arrow.png,,,,,0,0,0,0,,,,,,,,,,,,,103.71389810000255,None,,,,,,,,,,,,,,,,,,,,,,,,,,,,,,104.71935529999973,None,104.71935529999973,None,104.71935529999973,None,104.71935529999973,None,104.71935529999973,None,104.71935529999973,None,104.71935529999973,None,a,1,0.4875177999965672,104.71935529999973,None,,,,,,,,,,,,,18,001,2022_Oct_19_1655,Flanker,2021.2.0,239.70008725533302,
congruent-left.jpg,1,a,left_arrow.png,left_arrow.png,left_arrow.png,left_arrow.png,left_arrow.png,left_arrow.png,left_arrow.png,,,,,0,1,1,0,,,,,,,,,,,,,105.21964590000061,None,,,,,,,,,,,,,,,,,,,,,,,,,,,,,,106.23744210000223,None,106.23744210000223,None,106.23744210000223,None,106.23744210000223,None,106.23744210000223,None,106.23744210000223,None,106.23744210000223,None,a,1,0.4576409000001149,106.23744210000223,None,,,,,,,,,,,,,18,001,2022_Oct_19_1655,Flanker,2021.2.0,239.70008725533302,
incongruent-left.jpg,0,a,right_arrow.png,right_arrow.png,right_arrow.png,left_arrow.png,right_arrow.png,right_arrow.png,right_arrow.png,,,,,0,2,2,1,,,,,,,,,,,,,106.7130614000016,None,,,,,,,,,,,,,,,,,,,,,,,,,,,,,,107.72234670000034,None,107.72234670000034,None,107.72234670000034,None,107.72234670000034,None,107.72234670000034,None,107.72234670000034,None,107.72234670000034,None,a,1,0.5567923999988125,107.72234670000034,None,,,,,,,,,,,,,18,001,2022_Oct_19_1655,Flanker,2021.2.0,239.70008725533302,
incongruent-right.jpg,0,k,left_arrow.png,left_arrow.png,left_arrow.png,right_arrow.png,left_arrow.png,left_arrow.png,left_arrow.png,,,,,0,3,3,3,,,,,,,,,,,,,108.29811780000091,None,,,,,,,,,,,,,,,,,,,,,,,,,,,,,,109.31166289999965,None,109.31166289999965,None,109.31166289999965,None,109.31166289999965,None,109.31166289999965,None,109.31166289999965,None,109.31166289999965,None,k,1,0.43171409999922616,109.31166289999965,None,,,,,,,,,,,,,18,001,2022_Oct_19_1655,Flanker,2021.2.0,239.70008725533302,
neutral left,0,a,neutral.png,neutral.png,neutral.png,left_arrow.png,neutral.png,neutral.png,neutral.png,,,,,0,4,4,4,,,,,,,,,,,,,109.76213230000212,None,,,,,,,,,,,,,,,,,,,,,,,,,,,,,,110.77169549999962,None,110.77169549999962,None,110.77169549999962,None,110.77169549999962,None,110.77169549999962,None,110.77169549999962,None,110.77169549999962,None,a,1,0.3638537000006181,110.77169549999962,None,,,,,,,,,,,,,18,001,2022_Oct_19_1655,Flanker,2021.2.0,239.70008725533302,
congruent-left.jpg,1,a,left_arrow.png,left_arrow.png,left_arrow.png,left_arrow.png,left_arrow.png,left_arrow.png,left_arrow.png,,,,,0,5,5,0,,,,,,,,,,,,,111.14692480000303,None,,,,,,,,,,,,,,,,,,,,,,,,,,,,,,112.1609282999998,None,112.1609282999998,None,112.1609282999998,None,112.1609282999998,None,112.1609282999998,None,112.1609282999998,None,112.1609282999998,None,a,1,0.43080729999928735,112.1609282999998,None,,,,,,,,,,,,,18,001,2022_Oct_19_1655,Flanker,2021.2.0,239.70008725533302,
incongruent-left.jpg,0,a,right_arrow.png,right_arrow.png,right_arrow.png,left_arrow.png,right_arrow.png,right_arrow.png,right_arrow.png,,,,,1,0,6,1,,,,,,,,,,,,,112.60274770000251,None,,,,,,,,,,,,,,,,,,,,,,,,,,,,,,113.61620419999963,None,113.61620419999963,None,113.61620419999963,None,113.61620419999963,None,113.61620419999963,None,113.61620419999963,None,113.61620419999963,None,a,1,0.5598747999974876,113.61620419999963,None,,,,,,,,,,,,,18,001,2022_Oct_19_1655,Flanker,2021.2.0,239.70008725533302,
incongruent-right.jpg,0,k,left_arrow.png,left_arrow.png,left_arrow.png,right_arrow.png,left_arrow.png,left_arrow.png,left_arrow.png,,,,,1,1,7,3,,,,,,,,,,,,,114.19170959999974,None,,,,,,,,,,,,,,,,,,,,,,,,,,,,,,115.20111630000247,None,115.20111630000247,None,115.20111630000247,None,115.20111630000247,None,115.20111630000247,None,115.20111630000247,None,115.20111630000247,None,k,1,0.4873866999987513,115.20111630000247,None,,,,,,,,,,,,,18,001,2022_Oct_19_1655,Flanker,2021.2.0,239.70008725533302,
neutral left,0,a,neutral.png,neutral.png,neutral.png,left_arrow.png,neutral.png,neutral.png,neutral.png,,,,,1,2,8,4,,,,,,,,,,,,,115.70173600000271,None,,,,,,,,,,,,,,,,,,,,,,,,,,,,,,116.7152249000028,None,116.7152249000028,None,116.7152249000028,None,116.7152249000028,None,116.7152249000028,None,116.7152249000028,None,116.7152249000028,None,a,1,0.4211248000028718,116.7152249000028,None,,,,,,,,,,,,,18,001,2022_Oct_19_1655,Flanker,2021.2.0,239.70008725533302,
incongruent-right.jpg,0,k,left_arrow.png,left_arrow.png,left_arrow.png,right_arrow.png,left_arrow.png,left_arrow.png,left_arrow.png,,,,,1,3,9,3,,,,,,,,,,,,,117.14912110000296,None,,,,,,,,,,,,,,,,,,,,,,,,,,,,,,118.16243860000031,None,118.16243860000031,None,118.16243860000031,None,118.16243860000031,None,118.16243860000031,None,118.16243860000031,None,118.16243860000031,None,k,1,0.43812590000015916,118.16243860000031,None,,,,,,,,,,,,,18,001,2022_Oct_19_1655,Flanker,2021.2.0,239.70008725533302,
congruent-right.jpg,1,k,right_arrow.png,right_arrow.png,right_arrow.png,right_arrow.png,right_arrow.png,right_arrow.png,right_arrow.png,,,,,1,4,10,2,,,,,,,,,,,,,118.6132045000013,None,,,,,,,,,,,,,,,,,,,,,,,,,,,,,,119.62258190000284,None,119.62258190000284,None,119.62258190000284,None,119.62258190000284,None,119.62258190000284,None,119.62258190000284,None,119.62258190000284,None,k,1,0.4424475000014354,119.62258190000284,None,,,,,,,,,,,,,18,001,2022_Oct_19_1655,Flanker,2021.2.0,239.70008725533302,
incongruent-left.jpg,0,a,right_arrow.png,right_arrow.png,right_arrow.png,left_arrow.png,right_arrow.png,right_arrow.png,right_arrow.png,,,,,1,5,11,1,,,,,,,,,,,,,120.08140579999963,None,,,,,,,,,,,,,,,,,,,,,,,,,,,,,,121.0906896000015,None,121.0906896000015,None,121.0906896000015,None,121.0906896000015,None,121.0906896000015,None,121.0906896000015,None,121.0906896000015,None,a,1,0.39823810000234516,121.0906896000015,None,,,,,,,,,,,,,18,001,2022_Oct_19_1655,Flanker,2021.2.0,239.70008725533302,
congruent-left.jpg,1,a,left_arrow.png,left_arrow.png,left_arrow.png,left_arrow.png,left_arrow.png,left_arrow.png,left_arrow.png,,,,,2,0,12,0,,,,,,,,,,,,,121.50765890000184,None,,,,,,,,,,,,,,,,,,,,,,,,,,,,,,122.5257547000001,None,122.5257547000001,None,122.5257547000001,None,122.5257547000001,None,122.5257547000001,None,122.5257547000001,None,122.5257547000001,None,a,1,0.37135439999838127,122.5257547000001,None,,,,,,,,,,,,,18,001,2022_Oct_19_1655,Flanker,2021.2.0,239.70008725533302,
neutral right,0,k,neutral.png,neutral.png,neutral.png,right_arrow.png,neutral.png,neutral.png,neutral.png,,,,,2,1,13,5,,,,,,,,,,,,,122.90914260000136,None,,,,,,,,,,,,,,,,,,,,,,,,,,,,,,123.92278770000121,None,123.92278770000121,None,123.92278770000121,None,123.92278770000121,None,123.92278770000121,None,123.92278770000121,None,123.92278770000121,None,k,1,0.4065413999996963,123.92278770000121,None,,,,,,,,,,,,,18,001,2022_Oct_19_1655,Flanker,2021.2.0,239.70008725533302,
congruent-left.jpg,1,a,left_arrow.png,left_arrow.png,left_arrow.png,left_arrow.png,left_arrow.png,left_arrow.png,left_arrow.png,,,,,2,2,14,0,,,,,,,,,,,,,124.34856159999981,None,,,,,,,,,,,,,,,,,,,,,,,,,,,,,,125.35771329999989,None,125.35771329999989,None,125.35771329999989,None,125.35771329999989,None,125.35771329999989,None,125.35771329999989,None,125.35771329999989,None,a,1,0.38782930000161286,125.35771329999989,None,,,,,,,,,,,,,18,001,2022_Oct_19_1655,Flanker,2021.2.0,239.70008725533302,
neutral right,0,k,neutral.png,neutral.png,neutral.png,right_arrow.png,neutral.png,neutral.png,neutral.png,,,,,2,3,15,5,,,,,,,,,,,,,125.75806139999986,None,,,,,,,,,,,,,,,,,,,,,,,,,,,,,,126.77183650000006,None,126.77183650000006,None,126.77183650000006,None,126.77183650000006,None,126.77183650000006,None,126.77183650000006,None,126.77183650000006,None,k,1,0.37389649999749963,126.77183650000006,None,,,,,,,,,,,,,18,001,2022_Oct_19_1655,Flanker,2021.2.0,239.70008725533302,
congruent-right.jpg,1,k,right_arrow.png,right_arrow.png,right_arrow.png,right_arrow.png,right_arrow.png,right_arrow.png,right_arrow.png,,,,,2,4,16,2,,,,,,,,,,,,,127.16392110000015,None,,,,,,,,,,,,,,,,,,,,,,,,,,,,,,128.17331770000237,None,128.17331770000237,None,128.17331770000237,None,128.17331770000237,None,128.17331770000237,None,128.17331770000237,None,128.17331770000237,None,k,1,0.45260159999816096,128.17331770000237,None,,,,,,,,,,,,,18,001,2022_Oct_19_1655,Flanker,2021.2.0,239.70008725533302,
congruent-right.jpg,1,k,right_arrow.png,right_arrow.png,right_arrow.png,right_arrow.png,right_arrow.png,right_arrow.png,right_arrow.png,,,,,2,5,17,2,,,,,,,,,,,,,128.64056330000312,None,,,,,,,,,,,,,,,,,,,,,,,,,,,,,,129.6496240000015,None,129.6496240000015,None,129.6496240000015,None,129.6496240000015,None,129.6496240000015,None,129.6496240000015,None,129.6496240000015,None,k,1,0.44848780000029365,129.6496240000015,None,,,,,,,,,,,,,18,001,2022_Oct_19_1655,Flanker,2021.2.0,239.70008725533302,
incongruent-right.jpg,0,k,left_arrow.png,left_arrow.png,left_arrow.png,right_arrow.png,left_arrow.png,left_arrow.png,left_arrow.png,,,,,3,0,18,3,,,,,,,,,,,,,130.11712980000084,None,,,,,,,,,,,,,,,,,,,,,,,,,,,,,,131.1305549000026,None,131.1305549000026,None,131.1305549000026,None,131.1305549000026,None,131.1305549000026,None,131.1305549000026,None,131.1305549000026,None,k,1,0.4557687000014994,131.1305549000026,None,,,,,,,,,,,,,18,001,2022_Oct_19_1655,Flanker,2021.2.0,239.70008725533302,
congruent-right.jpg,1,k,right_arrow.png,right_arrow.png,right_arrow.png,right_arrow.png,right_arrow.png,right_arrow.png,right_arrow.png,,,,,3,1,19,2,,,,,,,,,,,,,131.59765980000157,None,,,,,,,,,,,,,,,,,,,,,,,,,,,,,,132.6113578000004,None,132.6113578000004,None,132.6113578000004,None,132.6113578000004,None,132.6113578000004,None,132.6113578000004,None,132.6113578000004,None,k,1,0.35917350000090664,132.6113578000004,None,,,,,,,,,,,,,18,001,2022_Oct_19_1655,Flanker,2021.2.0,239.70008725533302,
incongruent-left.jpg,0,a,right_arrow.png,right_arrow.png,right_arrow.png,left_arrow.png,right_arrow.png,right_arrow.png,right_arrow.png,,,,,3,2,20,1,,,,,,,,,,,,,132.98678500000096,None,,,,,,,,,,,,,,,,,,,,,,,,,,,,,,134.00007790000018,None,134.00007790000018,None,134.00007790000018,None,134.00007790000018,None,134.00007790000018,None,134.00007790000018,None,134.00007790000018,None,a,1,0.4272156000006362,134.00007790000018,None,,,,,,,,,,,,,18,001,2022_Oct_19_1655,Flanker,2021.2.0,239.70008725533302,
congruent-left.jpg,1,a,left_arrow.png,left_arrow.png,left_arrow.png,left_arrow.png,left_arrow.png,left_arrow.png,left_arrow.png,,,,,3,3,21,0,,,,,,,,,,,,,134.44255780000094,None,,,,,,,,,,,,,,,,,,,,,,,,,,,,,,135.45605910000086,None,135.45605910000086,None,135.45605910000086,None,135.45605910000086,None,135.45605910000086,None,135.45605910000086,None,135.45605910000086,None,a,1,0.37912409999989904,135.45605910000086,None,,,,,,,,,,,,,18,001,2022_Oct_19_1655,Flanker,2021.2.0,239.70008725533302,
neutral right,0,k,neutral.png,neutral.png,neutral.png,right_arrow.png,neutral.png,neutral.png,neutral.png,,,,,3,4,22,5,,,,,,,,,,,,,135.84787490000235,None,,,,,,,,,,,,,,,,,,,,,,,,,,,,,,136.85754210000232,None,136.85754210000232,None,136.85754210000232,None,136.85754210000232,None,136.85754210000232,None,136.85754210000232,None,136.85754210000232,None,k,1,0.3455615000020771,136.85754210000232,None,,,,,,,,,,,,,18,001,2022_Oct_19_1655,Flanker,2021.2.0,239.70008725533302,
neutral left,0,a,neutral.png,neutral.png,neutral.png,left_arrow.png,neutral.png,neutral.png,neutral.png,,,,,3,5,23,4,,,,,,,,,,,,,137.21633810000276,None,,,,,,,,,,,,,,,,,,,,,,,,,,,,,,138.2298370000026,None,138.2298370000026,None,138.2298370000026,None,138.2298370000026,None,138.2298370000026,None,138.2298370000026,None,138.2298370000026,None,a,1,0.39746000000013737,138.2298370000026,None,,,,,,,,,,,,,18,001,2022_Oct_19_1655,Flanker,2021.2.0,239.70008725533302,
congruent-right.jpg,1,k,right_arrow.png,right_arrow.png,right_arrow.png,right_arrow.png,right_arrow.png,right_arrow.png,right_arrow.png,,,,,4,0,24,2,,,,,,,,,,,,,138.63859539999976,None,,,,,,,,,,,,,,,,,,,,,,,,,,,,,,139.6478986000002,None,139.6478986000002,None,139.6478986000002,None,139.6478986000002,None,139.6478986000002,None,139.6478986000002,None,139.6478986000002,None,k,1,0.3315837999980431,139.6478986000002,None,,,,,,,,,,,,,18,001,2022_Oct_19_1655,Flanker,2021.2.0,239.70008725533302,
neutral right,0,k,neutral.png,neutral.png,neutral.png,right_arrow.png,neutral.png,neutral.png,neutral.png,,,,,4,1,25,5,,,,,,,,,,,,,139.99845790000109,None,,,,,,,,,,,,,,,,,,,,,,,,,,,,,,141.0161141000026,None,141.0161141000026,None,141.0161141000026,None,141.0161141000026,None,141.0161141000026,None,141.0161141000026,None,141.0161141000026,None,k,1,0.34751699999833363,141.0161141000026,None,,,,,,,,,,,,,18,001,2022_Oct_19_1655,Flanker,2021.2.0,239.70008725533302,
incongruent-left.jpg,0,a,right_arrow.png,right_arrow.png,right_arrow.png,left_arrow.png,right_arrow.png,right_arrow.png,right_arrow.png,,,,,4,2,26,1,,,,,,,,,,,,,141.37484320000294,None,,,,,,,,,,,,,,,,,,,,,,,,,,,,,,142.38400019999972,None,142.38400019999972,None,142.38400019999972,None,142.38400019999972,None,142.38400019999972,None,142.38400019999972,None,142.38400019999972,None,a,1,0.3398112000031688,142.38400019999972,None,,,,,,,,,,,,,18,001,2022_Oct_19_1655,Flanker,2021.2.0,239.70008725533302,
incongruent-right.jpg,0,k,left_arrow.png,left_arrow.png,left_arrow.png,right_arrow.png,left_arrow.png,left_arrow.png,left_arrow.png,,,,,4,3,27,3,,,,,,,,,,,,,142.74294569999984,None,,,,,,,,,,,,,,,,,,,,,,,,,,,,,,143.7522005000028,None,143.7522005000028,None,143.7522005000028,None,143.7522005000028,None,143.7522005000028,None,143.7522005000028,None,143.7522005000028,None,k,1,0.3638085999991745,143.7522005000028,None,,,,,,,,,,,,,18,001,2022_Oct_19_1655,Flanker,2021.2.0,239.70008725533302,
incongruent-right.jpg,0,k,left_arrow.png,left_arrow.png,left_arrow.png,right_arrow.png,left_arrow.png,left_arrow.png,left_arrow.png,,,,,4,4,28,3,,,,,,,,,,,,,144.1277383000015,None,,,,,,,,,,,,,,,,,,,,,,,,,,,,,,145.14108140000099,None,145.14108140000099,None,145.14108140000099,None,145.14108140000099,None,145.14108140000099,None,145.14108140000099,None,145.14108140000099,None,k,1,0.35932970000067144,145.14108140000099,None,,,,,,,,,,,,,18,001,2022_Oct_19_1655,Flanker,2021.2.0,239.70008725533302,
incongruent-left.jpg,0,a,right_arrow.png,right_arrow.png,right_arrow.png,left_arrow.png,right_arrow.png,right_arrow.png,right_arrow.png,,,,,4,5,29,1,,,,,,,,,,,,,145.51674330000242,None,,,,,,,,,,,,,,,,,,,,,,,,,,,,,,146.5303225000025,None,146.5303225000025,None,146.5303225000025,None,146.5303225000025,None,146.5303225000025,None,146.5303225000025,None,146.5303225000025,None,a,1,0.3703700000005483,146.5303225000025,None,,,,,,,,,,,,,18,001,2022_Oct_19_1655,Flanker,2021.2.0,239.70008725533302,
incongruent-right.jpg,0,k,left_arrow.png,left_arrow.png,left_arrow.png,right_arrow.png,left_arrow.png,left_arrow.png,left_arrow.png,,,,,5,0,30,3,,,,,,,,,,,,,146.91410250000263,None,,,,,,,,,,,,,,,,,,,,,,,,,,,,,,147.9191761000002,None,147.9191761000002,None,147.9191761000002,None,147.9191761000002,None,147.9191761000002,None,147.9191761000002,None,147.9191761000002,None,k,1,0.3734388000011677,147.9191761000002,None,,,,,,,,,,,,,18,001,2022_Oct_19_1655,Flanker,2021.2.0,239.70008725533302,
neutral right,0,k,neutral.png,neutral.png,neutral.png,right_arrow.png,neutral.png,neutral.png,neutral.png,,,,,5,1,31,5,,,,,,,,,,,,,148.3115953000015,None,,,,,,,,,,,,,,,,,,,,,,,,,,,,,,149.32078019999972,None,149.32078019999972,None,149.32078019999972,None,149.32078019999972,None,149.32078019999972,None,149.32078019999972,None,149.32078019999972,None,k,1,0.31614189999891096,149.32078019999972,None,,,,,,,,,,,,,18,001,2022_Oct_19_1655,Flanker,2021.2.0,239.70008725533302,
congruent-right.jpg,1,k,right_arrow.png,right_arrow.png,right_arrow.png,right_arrow.png,right_arrow.png,right_arrow.png,right_arrow.png,,,,,5,2,32,2,,,,,,,,,,,,,149.65444290000232,None,,,,,,,,,,,,,,,,,,,,,,,,,,,,,,150.66809040000226,None,150.66809040000226,None,150.66809040000226,None,150.66809040000226,None,150.66809040000226,None,150.66809040000226,None,150.66809040000226,None,k,1,0.3533179000005475,150.66809040000226,None,,,,,,,,,,,,,18,001,2022_Oct_19_1655,Flanker,2021.2.0,239.70008725533302,
congruent-left.jpg,1,a,left_arrow.png,left_arrow.png,left_arrow.png,left_arrow.png,left_arrow.png,left_arrow.png,left_arrow.png,,,,,5,3,33,0,,,,,,,,,,,,,151.0350854999997,None,,,,,,,,,,,,,,,,,,,,,,,,,,,,,,152.04422090000298,None,152.04422090000298,None,152.04422090000298,None,152.04422090000298,None,152.04422090000298,None,152.04422090000298,None,152.04422090000298,None,a,1,0.36892810000063037,152.04422090000298,None,,,,,,,,,,,,,18,001,2022_Oct_19_1655,Flanker,2021.2.0,239.70008725533302,
neutral right,0,k,neutral.png,neutral.png,neutral.png,right_arrow.png,neutral.png,neutral.png,neutral.png,,,,,5,4,34,5,,,,,,,,,,,,,152.42412260000128,None,,,,,,,,,,,,,,,,,,,,,,,,,,,,,,153.43771240000206,None,153.43771240000206,None,153.43771240000206,None,153.43771240000206,None,153.43771240000206,None,153.43771240000206,None,153.43771240000206,None,k,1,0.33562460000030114,153.43771240000206,None,,,,,,,,,,,,,18,001,2022_Oct_19_1655,Flanker,2021.2.0,239.70008725533302,
neutral right,0,k,neutral.png,neutral.png,neutral.png,right_arrow.png,neutral.png,neutral.png,neutral.png,,,,,5,5,35,5,,,,,,,,,,,,,153.7878092000028,None,,,,,,,,,,,,,,,,,,,,,,,,,,,,,,154.7974017000015,None,154.7974017000015,None,154.7974017000015,None,154.7974017000015,None,154.7974017000015,None,154.7974017000015,None,154.7974017000015,None,k,1,0.32811010000295937,154.7974017000015,None,,,,,,,,,,,,,18,001,2022_Oct_19_1655,Flanker,2021.2.0,239.70008725533302,
neutral right,0,k,neutral.png,neutral.png,neutral.png,right_arrow.png,neutral.png,neutral.png,neutral.png,,,,,6,0,36,5,,,,,,,,,,,,,155.13977630000227,None,,,,,,,,,,,,,,,,,,,,,,,,,,,,,,156.1530296000019,None,156.1530296000019,None,156.1530296000019,None,156.1530296000019,None,156.1530296000019,None,156.1530296000019,None,156.1530296000019,None,k,1,0.3726786000006541,156.1530296000019,None,,,,,,,,,,,,,18,001,2022_Oct_19_1655,Flanker,2021.2.0,239.70008725533302,
neutral left,0,a,neutral.png,neutral.png,neutral.png,left_arrow.png,neutral.png,neutral.png,neutral.png,,,,,6,1,37,4,,,,,,,,,,,,,156.54518350000217,None,,,,,,,,,,,,,,,,,,,,,,,,,,,,,,157.55871880000268,None,157.55871880000268,None,157.55871880000268,None,157.55871880000268,None,157.55871880000268,None,157.55871880000268,None,157.55871880000268,None,a,1,0.3915143000012904,157.55871880000268,None,,,,,,,,,,,,,18,001,2022_Oct_19_1655,Flanker,2021.2.0,239.70008725533302,
congruent-right.jpg,1,k,right_arrow.png,right_arrow.png,right_arrow.png,right_arrow.png,right_arrow.png,right_arrow.png,right_arrow.png,,,,,6,2,38,2,,,,,,,,,,,,,157.9674414000001,None,,,,,,,,,,,,,,,,,,,,,,,,,,,,,,158.9807944000022,None,158.9807944000022,None,158.9807944000022,None,158.9807944000022,None,158.9807944000022,None,158.9807944000022,None,158.9807944000022,None,k,1,0.43360349999784376,158.9807944000022,None,,,,,,,,,,,,,18,001,2022_Oct_19_1655,Flanker,2021.2.0,239.70008725533302,
incongruent-left.jpg,0,a,right_arrow.png,right_arrow.png,right_arrow.png,left_arrow.png,right_arrow.png,right_arrow.png,right_arrow.png,,,,,6,3,39,1,,,,,,,,,,,,,159.43150349999996,None,,,,,,,,,,,,,,,,,,,,,,,,,,,,,,160.4450840999998,None,160.4450840999998,None,160.4450840999998,None,160.4450840999998,None,160.4450840999998,None,160.4450840999998,None,160.4450840999998,None,a,1,0.40120890000252984,160.4450840999998,None,,,,,,,,,,,,,18,001,2022_Oct_19_1655,Flanker,2021.2.0,239.70008725533302,
congruent-right.jpg,1,k,right_arrow.png,right_arrow.png,right_arrow.png,right_arrow.png,right_arrow.png,right_arrow.png,right_arrow.png,,,,,6,4,40,2,,,,,,,,,,,,,160.86199990000023,None,,,,,,,,,,,,,,,,,,,,,,,,,,,,,,161.87163820000205,None,161.87163820000205,None,161.87163820000205,None,161.87163820000205,None,161.87163820000205,None,161.87163820000205,None,161.87163820000205,None,k,1,0.34284869999828516,161.87163820000205,None,,,,,,,,,,,,,18,001,2022_Oct_19_1655,Flanker,2021.2.0,239.70008725533302,
neutral left,0,a,neutral.png,neutral.png,neutral.png,left_arrow.png,neutral.png,neutral.png,neutral.png,,,,,6,5,41,4,,,,,,,,,,,,,162.23029940000197,None,,,,,,,,,,,,,,,,,,,,,,,,,,,,,,163.24388770000223,None,163.24388770000223,None,163.24388770000223,None,163.24388770000223,None,163.24388770000223,None,163.24388770000223,None,163.24388770000223,None,a,1,0.3787923999989289,163.24388770000223,None,,,,,,,,,,,,,18,001,2022_Oct_19_1655,Flanker,2021.2.0,239.70008725533302,
neutral left,0,a,neutral.png,neutral.png,neutral.png,left_arrow.png,neutral.png,neutral.png,neutral.png,,,,,7,0,42,4,,,,,,,,,,,,,163.63603710000098,None,,,,,,,,,,,,,,,,,,,,,,,,,,,,,,164.6453599000015,None,164.6453599000015,None,164.6453599000015,None,164.6453599000015,None,164.6453599000015,None,164.6453599000015,None,164.6453599000015,None,a,1,0.43377759999930277,164.6453599000015,None,,,,,,,,,,,,,18,001,2022_Oct_19_1655,Flanker,2021.2.0,239.70008725533302,
neutral left,0,a,neutral.png,neutral.png,neutral.png,left_arrow.png,neutral.png,neutral.png,neutral.png,,,,,7,1,43,4,,,,,,,,,,,,,165.0955814000008,None,,,,,,,,,,,,,,,,,,,,,,,,,,,,,,166.10943609999958,None,166.10943609999958,None,166.10943609999958,None,166.10943609999958,None,166.10943609999958,None,166.10943609999958,None,166.10943609999958,None,a,1,0.35360209999998915,166.10943609999958,None,,,,,,,,,,,,,18,001,2022_Oct_19_1655,Flanker,2021.2.0,239.70008725533302,
congruent-left.jpg,1,a,left_arrow.png,left_arrow.png,left_arrow.png,left_arrow.png,left_arrow.png,left_arrow.png,left_arrow.png,,,,,7,2,44,0,,,,,,,,,,,,,166.47648409999965,None,,,,,,,,,,,,,,,,,,,,,,,,,,,,,,167.49005380000017,None,167.49005380000017,None,167.49005380000017,None,167.49005380000017,None,167.49005380000017,None,167.49005380000017,None,167.49005380000017,None,a,1,0.42124110000077053,167.49005380000017,None,,,,,,,,,,,,,18,001,2022_Oct_19_1655,Flanker,2021.2.0,239.70008725533302,
incongruent-left.jpg,0,a,right_arrow.png,right_arrow.png,right_arrow.png,left_arrow.png,right_arrow.png,right_arrow.png,right_arrow.png,,,,,7,3,45,1,,,,,,,,,,,,,167.9236660000024,None,,,,,,,,,,,,,,,,,,,,,,,,,,,,,,168.93742430000202,None,168.93742430000202,None,168.93742430000202,None,168.93742430000202,None,168.93742430000202,None,168.93742430000202,None,168.93742430000202,None,a,1,0.43802299999879324,168.93742430000202,None,,,,,,,,,,,,,18,001,2022_Oct_19_1655,Flanker,2021.2.0,239.70008725533302,
neutral left,0,a,neutral.png,neutral.png,neutral.png,left_arrow.png,neutral.png,neutral.png,neutral.png,,,,,7,4,46,4,,,,,,,,,,,,,169.3878814000018,None,,,,,,,,,,,,,,,,,,,,,,,,,,,,,,170.40146730000197,None,170.40146730000197,None,170.40146730000197,None,170.40146730000197,None,170.40146730000197,None,170.40146730000197,None,170.40146730000197,None,a,1,0.3664864000020316,170.40146730000197,None,,,,,,,,,,,,,18,001,2022_Oct_19_1655,Flanker,2021.2.0,239.70008725533302,
incongruent-right.jpg,0,k,left_arrow.png,left_arrow.png,left_arrow.png,right_arrow.png,left_arrow.png,left_arrow.png,left_arrow.png,,,,,7,5,47,3,,,,,,,,,,,,,170.78519380000216,None,,,,,,,,,,,,,,,,,,,,,,,,,,,,,,171.80282390000139,None,171.80282390000139,None,171.80282390000139,None,171.80282390000139,None,171.80282390000139,None,171.80282390000139,None,171.80282390000139,None,k,1,0.37299050000001444,171.80282390000139,None,,,,,,,,,,,,,18,001,2022_Oct_19_1655,Flanker,2021.2.0,239.70008725533302,
,,,,,,,,,,,,,,,,,,,,,,,,,,,,,,,,,,,,,,,,,,,,,,,,,,,,,,,,,,,,,,,,,,,,,,,,,,,,,,,,172.2072956000011,None,space,12.03420620000179,172.2072956000011,None,,,,,,,18,001,2022_Oct_19_1655,Flanker,2021.2.0,239.70008725533302,
incongruent-left.jpg,0,a,right_arrow.png,right_arrow.png,right_arrow.png,left_arrow.png,right_arrow.png,right_arrow.png,right_arrow.png,,,,,,,,,0,0,0,1,,,,,,,,,184.26196870000058,None,,,,,,,,,,,,,,,,,,,,,,,,,,,,,,185.26698469999974,None,185.26698469999974,None,185.26698469999974,None,185.26698469999974,None,185.26698469999974,None,185.26698469999974,None,185.26698469999974,None,a,1,0.5347236000015982,185.26698469999974,None,,,,,,,,,,,,,18,001,2022_Oct_19_1655,Flanker,2021.2.0,239.70008725533302,
incongruent-left.jpg,0,a,right_arrow.png,right_arrow.png,right_arrow.png,left_arrow.png,right_arrow.png,right_arrow.png,right_arrow.png,,,,,,,,,0,1,1,1,,,,,,,,,185.8177797999997,None,,,,,,,,,,,,,,,,,,,,,,,,,,,,,,186.83138390000022,None,186.83138390000022,None,186.83138390000022,None,186.83138390000022,None,186.83138390000022,None,186.83138390000022,None,186.83138390000022,None,a,1,0.37079889999949955,186.83138390000022,None,,,,,,,,,,,,,18,001,2022_Oct_19_1655,Flanker,2021.2.0,239.70008725533302,
neutral left,0,a,neutral.png,neutral.png,neutral.png,left_arrow.png,neutral.png,neutral.png,neutral.png,,,,,,,,,0,2,2,4,,,,,,,,,187.21510470000067,None,,,,,,,,,,,,,,,,,,,,,,,,,,,,,,188.23291860000245,None,188.23291860000245,None,188.23291860000245,None,188.23291860000245,None,188.23291860000245,None,188.23291860000245,None,188.23291860000245,None,a,1,0.32117180000204826,188.23291860000245,None,,,,,,,,,,,,,18,001,2022_Oct_19_1655,Flanker,2021.2.0,239.70008725533302,
neutral right,0,k,neutral.png,neutral.png,neutral.png,right_arrow.png,neutral.png,neutral.png,neutral.png,,,,,,,,,0,3,3,5,,,,,,,,,188.5666525000015,None,,,,,,,,,,,,,,,,,,,,,,,,,,,,,,189.5758464999999,None,189.5758464999999,None,189.5758464999999,None,189.5758464999999,None,189.5758464999999,None,189.5758464999999,None,189.5758464999999,None,k,1,0.37072810000245227,189.5758464999999,None,,,,,,,,,,,,,18,001,2022_Oct_19_1655,Flanker,2021.2.0,239.70008725533302,
incongruent-left.jpg,0,a,right_arrow.png,right_arrow.png,right_arrow.png,left_arrow.png,right_arrow.png,right_arrow.png,right_arrow.png,,,,,,,,,0,4,4,1,,,,,,,,,189.9597352000019,None,,,,,,,,,,,,,,,,,,,,,,,,,,,,,,190.96909850000156,None,190.96909850000156,None,190.96909850000156,None,190.96909850000156,None,190.96909850000156,None,190.96909850000156,None,190.96909850000156,None,a,1,0.3774951000013971,190.96909850000156,None,,,,,,,,,,,,,18,001,2022_Oct_19_1655,Flanker,2021.2.0,239.70008725533302,
congruent-right.jpg,1,k,right_arrow.png,right_arrow.png,right_arrow.png,right_arrow.png,right_arrow.png,right_arrow.png,right_arrow.png,,,,,,,,,0,5,5,2,,,,,,,,,191.36110929999995,None,,,,,,,,,,,,,,,,,,,,,,,,,,,,,,192.370509700002,None,192.370509700002,None,192.370509700002,None,192.370509700002,None,192.370509700002,None,192.370509700002,None,192.370509700002,None,k,1,0.3446057999972254,192.370509700002,None,,,,,,,,,,,,,18,001,2022_Oct_19_1655,Flanker,2021.2.0,239.70008725533302,
incongruent-right.jpg,0,k,left_arrow.png,left_arrow.png,left_arrow.png,right_arrow.png,left_arrow.png,left_arrow.png,left_arrow.png,,,,,,,,,1,0,6,3,,,,,,,,,192.7297740000031,None,,,,,,,,,,,,,,,,,,,,,,,,,,,,,,193.73864859999958,None,193.73864859999958,None,193.73864859999958,None,193.73864859999958,None,193.73864859999958,None,193.73864859999958,None,193.73864859999958,None,k,1,0.3843242000002647,193.73864859999958,None,,,,,,,,,,,,,18,001,2022_Oct_19_1655,Flanker,2021.2.0,239.70008725533302,
neutral right,0,k,neutral.png,neutral.png,neutral.png,right_arrow.png,neutral.png,neutral.png,neutral.png,,,,,,,,,1,1,7,5,,,,,,,,,194.13914970000042,None,,,,,,,,,,,,,,,,,,,,,,,,,,,,,,195.15271230000144,None,195.15271230000144,None,195.15271230000144,None,195.15271230000144,None,195.15271230000144,None,195.15271230000144,None,195.15271230000144,None,k,1,0.3865375999994285,195.15271230000144,None,,,,,,,,,,,,,18,001,2022_Oct_19_1655,Flanker,2021.2.0,239.70008725533302,
congruent-right.jpg,1,k,right_arrow.png,right_arrow.png,right_arrow.png,right_arrow.png,right_arrow.png,right_arrow.png,right_arrow.png,,,,,,,,,1,2,8,2,,,,,,,,,195.55304650000107,None,,,,,,,,,,,,,,,,,,,,,,,,,,,,,,196.5668437000022,None,196.5668437000022,None,196.5668437000022,None,196.5668437000022,None,196.5668437000022,None,196.5668437000022,None,196.5668437000022,None,k,1,0.35636710000107996,196.5668437000022,None,,,,,,,,,,,,,18,001,2022_Oct_19_1655,Flanker,2021.2.0,239.70008725533302,
congruent-right.jpg,1,k,right_arrow.png,right_arrow.png,right_arrow.png,right_arrow.png,right_arrow.png,right_arrow.png,right_arrow.png,,,,,,,,,1,3,9,2,,,,,,,,,196.9425676000028,None,,,,,,,,,,,,,,,,,,,,,,,,,,,,,,197.95560880000266,None,197.95560880000266,None,197.95560880000266,None,197.95560880000266,None,197.95560880000266,None,197.95560880000266,None,197.95560880000266,None,k,1,0.34401989999969373,197.95560880000266,None,,,,,,,,,,,,,18,001,2022_Oct_19_1655,Flanker,2021.2.0,239.70008725533302,
congruent-left.jpg,1,a,left_arrow.png,left_arrow.png,left_arrow.png,left_arrow.png,left_arrow.png,left_arrow.png,left_arrow.png,,,,,,,,,1,4,10,0,,,,,,,,,198.31432300000233,None,,,,,,,,,,,,,,,,,,,,,,,,,,,,,,199.32790640000167,None,199.32790640000167,None,199.32790640000167,None,199.32790640000167,None,199.32790640000167,None,199.32790640000167,None,199.32790640000167,None,a,1,0.3716824999974051,199.32790640000167,None,,,,,,,,,,,,,18,001,2022_Oct_19_1655,Flanker,2021.2.0,239.70008725533302,
neutral left,0,a,neutral.png,neutral.png,neutral.png,left_arrow.png,neutral.png,neutral.png,neutral.png,,,,,,,,,1,5,11,4,,,,,,,,,199.7116528000006,None,,,,,,,,,,,,,,,,,,,,,,,,,,,,,,200.72509550000177,None,200.72509550000177,None,200.72509550000177,None,200.72509550000177,None,200.72509550000177,None,200.72509550000177,None,200.72509550000177,None,a,1,0.3428362999984529,200.72509550000177,None,,,,,,,,,,,,,18,001,2022_Oct_19_1655,Flanker,2021.2.0,239.70008725533302,
neutral left,0,a,neutral.png,neutral.png,neutral.png,left_arrow.png,neutral.png,neutral.png,neutral.png,,,,,,,,,2,0,12,4,,,,,,,,,201.08396820000053,None,,,,,,,,,,,,,,,,,,,,,,,,,,,,,,202.09750010000062,None,202.09750010000062,None,202.09750010000062,None,202.09750010000062,None,202.09750010000062,None,202.09750010000062,None,202.09750010000062,None,a,1,0.33843440000055125,202.09750010000062,None,,,,,,,,,,,,,18,001,2022_Oct_19_1655,Flanker,2021.2.0,239.70008725533302,
incongruent-right.jpg,0,k,left_arrow.png,left_arrow.png,left_arrow.png,right_arrow.png,left_arrow.png,left_arrow.png,left_arrow.png,,,,,,,,,2,1,13,3,,,,,,,,,202.4478777000004,None,,,,,,,,,,,,,,,,,,,,,,,,,,,,,,203.45740450000085,None,203.45740450000085,None,203.45740450000085,None,203.45740450000085,None,203.45740450000085,None,203.45740450000085,None,203.45740450000085,None,k,1,0.37891409999792813,203.45740450000085,None,,,,,,,,,,,,,18,001,2022_Oct_19_1655,Flanker,2021.2.0,239.70008725533302,
neutral left,0,a,neutral.png,neutral.png,neutral.png,left_arrow.png,neutral.png,neutral.png,neutral.png,,,,,,,,,2,2,14,4,,,,,,,,,203.84946500000297,None,,,,,,,,,,,,,,,,,,,,,,,,,,,,,,204.86293560000195,None,204.86293560000195,None,204.86293560000195,None,204.86293560000195,None,204.86293560000195,None,204.86293560000195,None,204.86293560000195,None,a,1,0.3495772999995097,204.86293560000195,None,,,,,,,,,,,,,18,001,2022_Oct_19_1655,Flanker,2021.2.0,239.70008725533302,
congruent-left.jpg,1,a,left_arrow.png,left_arrow.png,left_arrow.png,left_arrow.png,left_arrow.png,left_arrow.png,left_arrow.png,,,,,,,,,2,3,15,0,,,,,,,,,205.2300075000021,None,,,,,,,,,,,,,,,,,,,,,,,,,,,,,,206.24342030000116,None,206.24342030000116,None,206.24342030000116,None,206.24342030000116,None,206.24342030000116,None,206.24342030000116,None,206.24342030000116,None,a,1,0.393245700000989,206.24342030000116,None,,,,,,,,,,,,,18,001,2022_Oct_19_1655,Flanker,2021.2.0,239.70008725533302,
congruent-right.jpg,1,k,right_arrow.png,right_arrow.png,right_arrow.png,right_arrow.png,right_arrow.png,right_arrow.png,right_arrow.png,,,,,,,,,2,4,16,2,,,,,,,,,206.65233330000046,None,,,,,,,,,,,,,,,,,,,,,,,,,,,,,,207.66595740000048,None,207.66595740000048,None,207.66595740000048,None,207.66595740000048,None,207.66595740000048,None,207.66595740000048,None,207.66595740000048,None,k,1,0.37075779999941005,207.66595740000048,None,,,,,,,,,,,,,18,001,2022_Oct_19_1655,Flanker,2021.2.0,239.70008725533302,
incongruent-right.jpg,0,k,left_arrow.png,left_arrow.png,left_arrow.png,right_arrow.png,left_arrow.png,left_arrow.png,left_arrow.png,,,,,,,,,2,5,17,3,,,,,,,,,208.04964180000024,None,,,,,,,,,,,,,,,,,,,,,,,,,,,,,,209.0590658000001,None,209.0590658000001,None,209.0590658000001,None,209.0590658000001,None,209.0590658000001,None,209.0590658000001,None,209.0590658000001,None,a,0,0.34581359999720007,209.0590658000001,None,,,,,,,,,,,,,18,001,2022_Oct_19_1655,Flanker,2021.2.0,239.70008725533302,
incongruent-left.jpg,0,a,right_arrow.png,right_arrow.png,right_arrow.png,left_arrow.png,right_arrow.png,right_arrow.png,right_arrow.png,,,,,,,,,3,0,18,1,,,,,,,,,209.4179189000024,None,,,,,,,,,,,,,,,,,,,,,,,,,,,,,,210.4271918000013,None,210.4271918000013,None,210.4271918000013,None,210.4271918000013,None,210.4271918000013,None,210.4271918000013,None,210.4271918000013,None,a,1,0.4979300000013609,210.4271918000013,None,,,,,,,,,,,,,18,001,2022_Oct_19_1655,Flanker,2021.2.0,239.70008725533302,
congruent-left.jpg,1,a,left_arrow.png,left_arrow.png,left_arrow.png,left_arrow.png,left_arrow.png,left_arrow.png,left_arrow.png,,,,,,,,,3,1,19,0,,,,,,,,,210.9443824000009,None,,,,,,,,,,,,,,,,,,,,,,,,,,,,,,211.95375120000244,None,211.95375120000244,None,211.95375120000244,None,211.95375120000244,None,211.95375120000244,None,211.95375120000244,None,211.95375120000244,None,a,1,0.4518373999999312,211.95375120000244,None,,,,,,,,,,,,,18,001,2022_Oct_19_1655,Flanker,2021.2.0,239.70008725533302,
congruent-left.jpg,1,a,left_arrow.png,left_arrow.png,left_arrow.png,left_arrow.png,left_arrow.png,left_arrow.png,left_arrow.png,,,,,,,,,3,2,20,0,,,,,,,,,212.42103789999965,None,,,,,,,,,,,,,,,,,,,,,,,,,,,,,,213.43047520000255,None,213.43047520000255,None,213.43047520000255,None,213.43047520000255,None,213.43047520000255,None,213.43047520000255,None,213.43047520000255,None,a,1,0.40736810000089463,213.43047520000255,None,,,,,,,,,,,,,18,001,2022_Oct_19_1655,Flanker,2021.2.0,239.70008725533302,
congruent-left.jpg,1,a,left_arrow.png,left_arrow.png,left_arrow.png,left_arrow.png,left_arrow.png,left_arrow.png,left_arrow.png,,,,,,,,,3,3,21,0,,,,,,,,,213.85575690000042,None,,,,,,,,,,,,,,,,,,,,,,,,,,,,,,214.86926590000076,None,214.86926590000076,None,214.86926590000076,None,214.86926590000076,None,214.86926590000076,None,214.86926590000076,None,214.86926590000076,None,a,1,0.4166113999999652,214.86926590000076,None,,,,,,,,,,,,,18,001,2022_Oct_19_1655,Flanker,2021.2.0,239.70008725533302,
incongruent-right.jpg,0,k,left_arrow.png,left_arrow.png,left_arrow.png,right_arrow.png,left_arrow.png,left_arrow.png,left_arrow.png,,,,,,,,,3,4,22,3,,,,,,,,,215.30329020000136,None,,,,,,,,,,,,,,,,,,,,,,,,,,,,,,216.31685950000247,None,216.31685950000247,None,216.31685950000247,None,216.31685950000247,None,216.31685950000247,None,216.31685950000247,None,216.31685950000247,None,k,1,0.4172118999995291,216.31685950000247,None,,,,,,,,,,,,,18,001,2022_Oct_19_1655,Flanker,2021.2.0,239.70008725533302,
congruent-right.jpg,1,k,right_arrow.png,right_arrow.png,right_arrow.png,right_arrow.png,right_arrow.png,right_arrow.png,right_arrow.png,,,,,,,,,3,5,23,2,,,,,,,,,216.7506768000021,None,,,,,,,,,,,,,,,,,,,,,,,,,,,,,,217.764132100001,None,217.764132100001,None,217.764132100001,None,217.764132100001,None,217.764132100001,None,217.764132100001,None,217.764132100001,None,k,1,0.44210540000131004,217.764132100001,None,,,,,,,,,,,,,18,001,2022_Oct_19_1655,Flanker,2021.2.0,239.70008725533302,
neutral right,0,k,neutral.png,neutral.png,neutral.png,right_arrow.png,neutral.png,neutral.png,neutral.png,,,,,,,,,4,0,24,5,,,,,,,,,218.22292890000244,None,,,,,,,,,,,,,,,,,,,,,,,,,,,,,,219.23639340000227,None,219.23639340000227,None,219.23639340000227,None,219.23639340000227,None,219.23639340000227,None,219.23639340000227,None,219.23639340000227,None,k,1,0.38628670000252896,219.23639340000227,None,,,,,,,,,,,,,18,001,2022_Oct_19_1655,Flanker,2021.2.0,239.70008725533302,
congruent-right.jpg,1,k,right_arrow.png,right_arrow.png,right_arrow.png,right_arrow.png,right_arrow.png,right_arrow.png,right_arrow.png,,,,,,,,,4,1,25,2,,,,,,,,,219.63724280000315,None,,,,,,,,,,,,,,,,,,,,,,,,,,,,,,220.64650050000273,None,220.64650050000273,None,220.64650050000273,None,220.64650050000273,None,220.64650050000273,None,220.64650050000273,None,220.64650050000273,None,k,1,0.3682531000013114,220.64650050000273,None,,,,,,,,,,,,,18,001,2022_Oct_19_1655,Flanker,2021.2.0,239.70008725533302,
neutral left,0,a,neutral.png,neutral.png,neutral.png,left_arrow.png,neutral.png,neutral.png,neutral.png,,,,,,,,,4,2,26,4,,,,,,,,,221.0300352000013,None,,,,,,,,,,,,,,,,,,,,,,,,,,,,,,222.03952740000022,None,222.03952740000022,None,222.03952740000022,None,222.03952740000022,None,222.03952740000022,None,222.03952740000022,None,222.03952740000022,None,a,1,0.36744589999943855,222.03952740000022,None,,,,,,,,,,,,,18,001,2022_Oct_19_1655,Flanker,2021.2.0,239.70008725533302,
incongruent-left.jpg,0,a,right_arrow.png,right_arrow.png,right_arrow.png,left_arrow.png,right_arrow.png,right_arrow.png,right_arrow.png,,,,,,,,,4,3,27,1,,,,,,,,,222.42324080000253,None,,,,,,,,,,,,,,,,,,,,,,,,,,,,,,223.43680909999966,None,223.43680909999966,None,223.43680909999966,None,223.43680909999966,None,223.43680909999966,None,223.43680909999966,None,223.43680909999966,None,a,1,0.4822395000010147,223.43680909999966,None,,,,,,,,,,,,,18,001,2022_Oct_19_1655,Flanker,2021.2.0,239.70008725533302,
neutral right,0,k,neutral.png,neutral.png,neutral.png,right_arrow.png,neutral.png,neutral.png,neutral.png,,,,,,,,,4,4,28,5,,,,,,,,,223.93739710000227,None,,,,,,,,,,,,,,,,,,,,,,,,,,,,,,224.94674120000127,None,224.94674120000127,None,224.94674120000127,None,224.94674120000127,None,224.94674120000127,None,224.94674120000127,None,224.94674120000127,None,k,1,0.41241720000107307,224.94674120000127,None,,,,,,,,,,,,,18,001,2022_Oct_19_1655,Flanker,2021.2.0,239.70008725533302,
neutral right,0,k,neutral.png,neutral.png,neutral.png,right_arrow.png,neutral.png,neutral.png,neutral.png,,,,,,,,,4,5,29,5,,,,,,,,,225.37209260000236,None,,,,,,,,,,,,,,,,,,,,,,,,,,,,,,226.38166530000308,None,226.38166530000308,None,226.38166530000308,None,226.38166530000308,None,226.38166530000308,None,226.38166530000308,None,226.38166530000308,None,k,1,0.3616260000017064,226.38166530000308,None,,,,,,,,,,,,,18,001,2022_Oct_19_1655,Flanker,2021.2.0,239.70008725533302,
congruent-left.jpg,1,a,left_arrow.png,left_arrow.png,left_arrow.png,left_arrow.png,left_arrow.png,left_arrow.png,left_arrow.png,,,,,,,,,5,0,30,0,,,,,,,,,226.7568816000021,None,,,,,,,,,,,,,,,,,,,,,,,,,,,,,,227.7665345000023,None,227.7665345000023,None,227.7665345000023,None,227.7665345000023,None,227.7665345000023,None,227.7665345000023,None,227.7665345000023,None,a,1,0.41713330000129645,227.7665345000023,None,,,,,,,,,,,,,18,001,2022_Oct_19_1655,Flanker,2021.2.0,239.70008725533302,
neutral right,0,k,neutral.png,neutral.png,neutral.png,right_arrow.png,neutral.png,neutral.png,neutral.png,,,,,,,,,5,1,31,5,,,,,,,,,228.20035330000246,None,,,,,,,,,,,,,,,,,,,,,,,,,,,,,,229.21377810000195,None,229.21377810000195,None,229.21377810000195,None,229.21377810000195,None,229.21377810000195,None,229.21377810000195,None,229.21377810000195,None,k,1,0.39402419999896665,229.21377810000195,None,,,,,,,,,,,,,18,001,2022_Oct_19_1655,Flanker,2021.2.0,239.70008725533302,
neutral left,0,a,neutral.png,neutral.png,neutral.png,left_arrow.png,neutral.png,neutral.png,neutral.png,,,,,,,,,5,2,32,4,,,,,,,,,229.62261349999972,None,,,,,,,,,,,,,,,,,,,,,,,,,,,,,,230.63613880000048,None,230.63613880000048,None,230.63613880000048,None,230.63613880000048,None,230.63613880000048,None,230.63613880000048,None,230.63613880000048,None,a,1,0.41995180000230903,230.63613880000048,None,,,,,,,,,,,,,18,001,2022_Oct_19_1655,Flanker,2021.2.0,239.70008725533302,
incongruent-left.jpg,0,a,right_arrow.png,right_arrow.png,right_arrow.png,left_arrow.png,right_arrow.png,right_arrow.png,right_arrow.png,,,,,,,,,5,3,33,1,,,,,,,,,231.06991890000063,None,,,,,,,,,,,,,,,,,,,,,,,,,,,,,,232.07951650000177,None,232.07951650000177,None,232.07951650000177,None,232.07951650000177,None,232.07951650000177,None,232.07951650000177,None,232.07951650000177,None,a,1,0.48854900000151247,232.07951650000177,None,,,,,,,,,,,,,18,001,2022_Oct_19_1655,Flanker,2021.2.0,239.70008725533302,
congruent-left.jpg,1,a,left_arrow.png,left_arrow.png,left_arrow.png,left_arrow.png,left_arrow.png,left_arrow.png,left_arrow.png,,,,,,,,,5,4,34,0,,,,,,,,,232.5798485000014,None,,,,,,,,,,,,,,,,,,,,,,,,,,,,,,233.58914420000292,None,233.58914420000292,None,233.58914420000292,None,233.58914420000292,None,233.58914420000292,None,233.58914420000292,None,233.58914420000292,None,a,1,0.41124909999780357,233.58914420000292,None,,,,,,,,,,,,,18,001,2022_Oct_19_1655,Flanker,2021.2.0,239.70008725533302,
incongruent-left.jpg,0,a,right_arrow.png,right_arrow.png,right_arrow.png,left_arrow.png,right_arrow.png,right_arrow.png,right_arrow.png,,,,,,,,,5,5,35,1,,,,,,,,,234.014704600002,None,,,,,,,,,,,,,,,,,,,,,,,,,,,,,,235.02420640000128,None,235.02420640000128,None,235.02420640000128,None,235.02420640000128,None,235.02420640000128,None,235.02420640000128,None,235.02420640000128,None,a,1,0.48023250000187545,235.02420640000128,None,,,,,,,,,,,,,18,001,2022_Oct_19_1655,Flanker,2021.2.0,239.70008725533302,
neutral right,0,k,neutral.png,neutral.png,neutral.png,right_arrow.png,neutral.png,neutral.png,neutral.png,,,,,,,,,6,0,36,5,,,,,,,,,235.51628470000287,None,,,,,,,,,,,,,,,,,,,,,,,,,,,,,,236.52571060000264,None,236.52571060000264,None,236.52571060000264,None,236.52571060000264,None,236.52571060000264,None,236.52571060000264,None,236.52571060000264,None,k,1,0.41109209999922314,236.52571060000264,None,,,,,,,,,,,,,18,001,2022_Oct_19_1655,Flanker,2021.2.0,239.70008725533302,
neutral right,0,k,neutral.png,neutral.png,neutral.png,right_arrow.png,neutral.png,neutral.png,neutral.png,,,,,,,,,6,1,37,5,,,,,,,,,236.95102020000195,None,,,,,,,,,,,,,,,,,,,,,,,,,,,,,,237.964746200003,None,237.964746200003,None,237.964746200003,None,237.964746200003,None,237.964746200003,None,237.964746200003,None,237.964746200003,None,k,1,0.4041594000009354,237.964746200003,None,,,,,,,,,,,,,18,001,2022_Oct_19_1655,Flanker,2021.2.0,239.70008725533302,
incongruent-right.jpg,0,k,left_arrow.png,left_arrow.png,left_arrow.png,right_arrow.png,left_arrow.png,left_arrow.png,left_arrow.png,,,,,,,,,6,2,38,3,,,,,,,,,238.38184130000081,None,,,,,,,,,,,,,,,,,,,,,,,,,,,,,,239.3954900000026,None,239.3954900000026,None,239.3954900000026,None,239.3954900000026,None,239.3954900000026,None,239.3954900000026,None,239.3954900000026,None,k,1,0.4537255000032019,239.3954900000026,None,,,,,,,,,,,,,18,001,2022_Oct_19_1655,Flanker,2021.2.0,239.70008725533302,
congruent-right.jpg,1,k,right_arrow.png,right_arrow.png,right_arrow.png,right_arrow.png,right_arrow.png,right_arrow.png,right_arrow.png,,,,,,,,,6,3,39,2,,,,,,,,,239.86269300000276,None,,,,,,,,,,,,,,,,,,,,,,,,,,,,,,240.88033500000165,None,240.88033500000165,None,240.88033500000165,None,240.88033500000165,None,240.88033500000165,None,240.88033500000165,None,240.88033500000165,None,k,1,0.4010593999992125,240.88033500000165,None,,,,,,,,,,,,,18,001,2022_Oct_19_1655,Flanker,2021.2.0,239.70008725533302,
neutral left,0,a,neutral.png,neutral.png,neutral.png,left_arrow.png,neutral.png,neutral.png,neutral.png,,,,,,,,,6,4,40,4,,,,,,,,,241.2975686000027,None,,,,,,,,,,,,,,,,,,,,,,,,,,,,,,242.31089460000294,None,242.31089460000294,None,242.31089460000294,None,242.31089460000294,None,242.31089460000294,None,242.31089460000294,None,242.31089460000294,None,a,1,0.3947662999999011,242.31089460000294,None,,,,,,,,,,,,,18,001,2022_Oct_19_1655,Flanker,2021.2.0,239.70008725533302,
congruent-left.jpg,1,a,left_arrow.png,left_arrow.png,left_arrow.png,left_arrow.png,left_arrow.png,left_arrow.png,left_arrow.png,,,,,,,,,6,5,41,0,,,,,,,,,242.7197656999997,None,,,,,,,,,,,,,,,,,,,,,,,,,,,,,,243.73321520000172,None,243.73321520000172,None,243.73321520000172,None,243.73321520000172,None,243.73321520000172,None,243.73321520000172,None,243.73321520000172,None,a,1,0.3884370999985549,243.73321520000172,None,,,,,,,,,,,,,18,001,2022_Oct_19_1655,Flanker,2021.2.0,239.70008725533302,
incongruent-left.jpg,0,a,right_arrow.png,right_arrow.png,right_arrow.png,left_arrow.png,right_arrow.png,right_arrow.png,right_arrow.png,,,,,,,,,7,0,42,1,,,,,,,,,244.13376080000307,None,,,,,,,,,,,,,,,,,,,,,,,,,,,,,,245.14331760000277,None,245.14331760000277,None,245.14331760000277,None,245.14331760000277,None,245.14331760000277,None,245.14331760000277,None,245.14331760000277,None,a,1,0.49878309999985504,245.14331760000277,None,,,,,,,,,,,,,18,001,2022_Oct_19_1655,Flanker,2021.2.0,239.70008725533302,
incongruent-right.jpg,0,k,left_arrow.png,left_arrow.png,left_arrow.png,right_arrow.png,left_arrow.png,left_arrow.png,left_arrow.png,,,,,,,,,7,1,43,3,,,,,,,,,245.6604150000021,None,,,,,,,,,,,,,,,,,,,,,,,,,,,,,,246.66988910000146,None,246.66988910000146,None,246.66988910000146,None,246.66988910000146,None,246.66988910000146,None,246.66988910000146,None,246.66988910000146,None,k,1,0.43633239999689977,246.66988910000146,None,,,,,,,,,,,,,18,001,2022_Oct_19_1655,Flanker,2021.2.0,239.70008725533302,
neutral left,0,a,neutral.png,neutral.png,neutral.png,left_arrow.png,neutral.png,neutral.png,neutral.png,,,,,,,,,7,2,44,4,,,,,,,,,247.1201413000017,None,,,,,,,,,,,,,,,,,,,,,,,,,,,,,,248.12954270000046,None,248.12954270000046,None,248.12954270000046,None,248.12954270000046,None,248.12954270000046,None,248.12954270000046,None,248.12954270000046,None,a,1,0.4086875000029977,248.12954270000046,None,,,,,,,,,,,,,18,001,2022_Oct_19_1655,Flanker,2021.2.0,239.70008725533302,
congruent-right.jpg,1,k,right_arrow.png,right_arrow.png,right_arrow.png,right_arrow.png,right_arrow.png,right_arrow.png,right_arrow.png,,,,,,,,,7,3,45,2,,,,,,,,,248.55096070000218,None,,,,,,,,,,,,,,,,,,,,,,,,,,,,,,249.56043160000263,None,249.56043160000263,None,249.56043160000263,None,249.56043160000263,None,249.56043160000263,None,249.56043160000263,None,249.56043160000263,None,k,1,0.4340273999987403,249.56043160000263,None,,,,,,,,,,,,,18,001,2022_Oct_19_1655,Flanker,2021.2.0,239.70008725533302,
incongruent-right.jpg,0,k,left_arrow.png,left_arrow.png,left_arrow.png,right_arrow.png,left_arrow.png,left_arrow.png,left_arrow.png,,,,,,,,,7,4,46,3,,,,,,,,,250.01104340000165,None,,,,,,,,,,,,,,,,,,,,,,,,,,,,,,251.02030820000073,None,251.02030820000073,None,251.02030820000073,None,251.02030820000073,None,251.02030820000073,None,251.02030820000073,None,251.02030820000073,None,k,1,0.48660240000026533,251.02030820000073,None,,,,,,,,,,,,,18,001,2022_Oct_19_1655,Flanker,2021.2.0,239.70008725533302,
incongruent-right.jpg,0,k,left_arrow.png,left_arrow.png,left_arrow.png,right_arrow.png,left_arrow.png,left_arrow.png,left_arrow.png,,,,,,,,,7,5,47,3,,,,,,,,,251.52062090000254,None,,,,,,,,,,,,,,,,,,,,,,,,,,,,,,252.5343931000025,None,252.5343931000025,None,252.5343931000025,None,252.5343931000025,None,252.5343931000025,None,252.5343931000025,None,252.5343931000025,None,k,1,0.45258649999959744,252.5343931000025,None,,,,,,,,,,,,,18,001,2022_Oct_19_1655,Flanker,2021.2.0,239.70008725533302,
,,,,,,,,,,,,,,,,,,,,,,,,,,,,,,,,,,,,,,,,,,,,,,,,,,,,,,,,,,,,,,,,,,,,,,,,,,,,,,,,253.01406680000218,None,space,8.069913299998007,253.01406680000218,None,,,,,,,18,001,2022_Oct_19_1655,Flanker,2021.2.0,239.70008725533302,
incongruent-left.jpg,0,a,right_arrow.png,right_arrow.png,right_arrow.png,left_arrow.png,right_arrow.png,right_arrow.png,right_arrow.png,,,,,,,,,,,,,0,0,0,1,,,,,261.10589190000246,None,,,,,,,,,,,,,,,,,,,,,,,,,,,,,,262.10686070000156,None,262.10686070000156,None,262.10686070000156,None,262.10686070000156,None,262.10686070000156,None,262.10686070000156,None,262.10686070000156,None,a,1,0.4732807000000321,262.10686070000156,None,,,,,,,,,,,,,18,001,2022_Oct_19_1655,Flanker,2021.2.0,239.70008725533302,
incongruent-left.jpg,0,a,right_arrow.png,right_arrow.png,right_arrow.png,left_arrow.png,right_arrow.png,right_arrow.png,right_arrow.png,,,,,,,,,,,,,0,1,1,1,,,,,262.5995542000019,None,,,,,,,,,,,,,,,,,,,,,,,,,,,,,,263.6129366000023,None,263.6129366000023,None,263.6129366000023,None,263.6129366000023,None,263.6129366000023,None,263.6129366000023,None,263.6129366000023,None,a,1,0.46342839999852004,263.6129366000023,None,,,,,,,,,,,,,18,001,2022_Oct_19_1655,Flanker,2021.2.0,239.70008725533302,
incongruent-right.jpg,0,k,left_arrow.png,left_arrow.png,left_arrow.png,right_arrow.png,left_arrow.png,left_arrow.png,left_arrow.png,,,,,,,,,,,,,0,2,2,3,,,,,264.0884693000007,None,,,,,,,,,,,,,,,,,,,,,,,,,,,,,,265.0933700000023,None,265.0933700000023,None,265.0933700000023,None,265.0933700000023,None,265.0933700000023,None,265.0933700000023,None,265.0933700000023,None,k,1,0.4073859000018274,265.0933700000023,None,,,,,,,,,,,,,18,001,2022_Oct_19_1655,Flanker,2021.2.0,239.70008725533302,
congruent-left.jpg,1,a,left_arrow.png,left_arrow.png,left_arrow.png,left_arrow.png,left_arrow.png,left_arrow.png,left_arrow.png,,,,,,,,,,,,,0,3,3,0,,,,,265.51884319999954,None,,,,,,,,,,,,,,,,,,,,,,,,,,,,,,266.53260610000143,None,266.53260610000143,None,266.53260610000143,None,266.53260610000143,None,266.53260610000143,None,266.53260610000143,None,266.53260610000143,None,a,1,0.40817579999929876,266.53260610000143,None,,,,,,,,,,,,,18,001,2022_Oct_19_1655,Flanker,2021.2.0,239.70008725533302,
incongruent-left.jpg,0,a,right_arrow.png,right_arrow.png,right_arrow.png,left_arrow.png,right_arrow.png,right_arrow.png,right_arrow.png,,,,,,,,,,,,,0,4,4,1,,,,,266.95785530000285,None,,,,,,,,,,,,,,,,,,,,,,,,,,,,,,267.9674632000024,None,267.9674632000024,None,267.9674632000024,None,267.9674632000024,None,267.9674632000024,None,267.9674632000024,None,267.9674632000024,None,a,1,0.4534964999984368,267.9674632000024,None,,,,,,,,,,,,,18,001,2022_Oct_19_1655,Flanker,2021.2.0,239.70008725533302,
neutral left,0,a,neutral.png,neutral.png,neutral.png,left_arrow.png,neutral.png,neutral.png,neutral.png,,,,,,,,,,,,,0,5,5,4,,,,,268.43472440000187,None,,,,,,,,,,,,,,,,,,,,,,,,,,,,,,269.44383700000253,None,269.44383700000253,None,269.44383700000253,None,269.44383700000253,None,269.44383700000253,None,269.44383700000253,None,269.44383700000253,None,a,1,0.38537260000157403,269.44383700000253,None,,,,,,,,,,,,,18,001,2022_Oct_19_1655,Flanker,2021.2.0,239.70008725533302,
congruent-right.jpg,1,k,right_arrow.png,right_arrow.png,right_arrow.png,right_arrow.png,right_arrow.png,right_arrow.png,right_arrow.png,,,,,,,,,,,,,1,0,6,2,,,,,269.8442462000021,None,,,,,,,,,,,,,,,,,,,,,,,,,,,,,,270.8539896000002,None,270.8539896000002,None,270.8539896000002,None,270.8539896000002,None,270.8539896000002,None,270.8539896000002,None,270.8539896000002,None,k,1,0.5594307999999728,270.8539896000002,None,,,,,,,,,,,,,18,001,2022_Oct_19_1655,Flanker,2021.2.0,239.70008725533302,
congruent-right.jpg,1,k,right_arrow.png,right_arrow.png,right_arrow.png,right_arrow.png,right_arrow.png,right_arrow.png,right_arrow.png,,,,,,,,,,,,,1,1,7,2,,,,,271.4292693999996,None,,,,,,,,,,,,,,,,,,,,,,,,,,,,,,272.43896909999967,None,272.43896909999967,None,272.43896909999967,None,272.43896909999967,None,272.43896909999967,None,272.43896909999967,None,272.43896909999967,None,k,1,0.3988099999987753,272.43896909999967,None,,,,,,,,,,,,,18,001,2022_Oct_19_1655,Flanker,2021.2.0,239.70008725533302,
congruent-left.jpg,1,a,left_arrow.png,left_arrow.png,left_arrow.png,left_arrow.png,left_arrow.png,left_arrow.png,left_arrow.png,,,,,,,,,,,,,1,2,8,0,,,,,272.8557989000001,None,,,,,,,,,,,,,,,,,,,,,,,,,,,,,,273.8696533000002,None,273.8696533000002,None,273.8696533000002,None,273.8696533000002,None,273.8696533000002,None,273.8696533000002,None,273.8696533000002,None,a,1,0.3680787999983295,273.8696533000002,None,,,,,,,,,,,,,18,001,2022_Oct_19_1655,Flanker,2021.2.0,239.70008725533302,
neutral right,0,k,neutral.png,neutral.png,neutral.png,right_arrow.png,neutral.png,neutral.png,neutral.png,,,,,,,,,,,,,1,3,9,5,,,,,274.2531083000031,None,,,,,,,,,,,,,,,,,,,,,,,,,,,,,,275.2666831000024,None,275.2666831000024,None,275.2666831000024,None,275.2666831000024,None,275.2666831000024,None,275.2666831000024,None,275.2666831000024,None,k,1,0.36322130000189645,275.2666831000024,None,,,,,,,,,,,,,18,001,2022_Oct_19_1655,Flanker,2021.2.0,239.70008725533302,
neutral right,0,k,neutral.png,neutral.png,neutral.png,right_arrow.png,neutral.png,neutral.png,neutral.png,,,,,,,,,,,,,1,4,10,5,,,,,275.6420908,None,,,,,,,,,,,,,,,,,,,,,,,,,,,,,,276.64728260000265,None,276.64728260000265,None,276.64728260000265,None,276.64728260000265,None,276.64728260000265,None,276.64728260000265,None,276.64728260000265,None,k,1,0.3508508000013535,276.64728260000265,None,,,,,,,,,,,,,18,001,2022_Oct_19_1655,Flanker,2021.2.0,239.70008725533302,
incongruent-right.jpg,0,k,left_arrow.png,left_arrow.png,left_arrow.png,right_arrow.png,left_arrow.png,left_arrow.png,left_arrow.png,,,,,,,,,,,,,1,5,11,3,,,,,277.0148201000011,None,,,,,,,,,,,,,,,,,,,,,,,,,,,,,,278.0321167000002,None,278.0321167000002,None,278.0321167000002,None,278.0321167000002,None,278.0321167000002,None,278.0321167000002,None,278.0321167000002,None,k,1,0.41417530000035185,278.0321167000002,None,,,,,,,,,,,,,18,001,2022_Oct_19_1655,Flanker,2021.2.0,239.70008725533302,
neutral right,0,k,neutral.png,neutral.png,neutral.png,right_arrow.png,neutral.png,neutral.png,neutral.png,,,,,,,,,,,,,2,0,12,5,,,,,278.45757440000307,None,,,,,,,,,,,,,,,,,,,,,,,,,,,,,,279.4673118000028,None,279.4673118000028,None,279.4673118000028,None,279.4673118000028,None,279.4673118000028,None,279.4673118000028,None,279.4673118000028,None,k,1,0.3471947999969416,279.4673118000028,None,,,,,,,,,,,,,18,001,2022_Oct_19_1655,Flanker,2021.2.0,239.70008725533302,
neutral left,0,a,neutral.png,neutral.png,neutral.png,left_arrow.png,neutral.png,neutral.png,neutral.png,,,,,,,,,,,,,2,1,13,4,,,,,279.8340437000006,None,,,,,,,,,,,,,,,,,,,,,,,,,,,,,,280.8434126000029,None,280.8434126000029,None,280.8434126000029,None,280.8434126000029,None,280.8434126000029,None,280.8434126000029,None,280.8434126000029,None,a,1,0.3953055999991193,280.8434126000029,None,,,,,,,,,,,,,18,001,2022_Oct_19_1655,Flanker,2021.2.0,239.70008725533302,
incongruent-right.jpg,0,k,left_arrow.png,left_arrow.png,left_arrow.png,right_arrow.png,left_arrow.png,left_arrow.png,left_arrow.png,,,,,,,,,,,,,2,2,14,3,,,,,281.2524493000019,None,,,,,,,,,,,,,,,,,,,,,,,,,,,,,,282.26577420000103,None,282.26577420000103,None,282.26577420000103,None,282.26577420000103,None,282.26577420000103,None,282.26577420000103,None,282.26577420000103,None,k,1,0.3810857999997097,282.26577420000103,None,,,,,,,,,,,,,18,001,2022_Oct_19_1655,Flanker,2021.2.0,239.70008725533302,
neutral left,0,a,neutral.png,neutral.png,neutral.png,left_arrow.png,neutral.png,neutral.png,neutral.png,,,,,,,,,,,,,2,3,15,4,,,,,282.6578585999996,None,,,,,,,,,,,,,,,,,,,,,,,,,,,,,,283.6714004000023,None,283.6714004000023,None,283.6714004000023,None,283.6714004000023,None,283.6714004000023,None,283.6714004000023,None,283.6714004000023,None,a,1,0.39192130000083125,283.6714004000023,None,,,,,,,,,,,,,18,001,2022_Oct_19_1655,Flanker,2021.2.0,239.70008725533302,
incongruent-left.jpg,0,a,right_arrow.png,right_arrow.png,right_arrow.png,left_arrow.png,right_arrow.png,right_arrow.png,right_arrow.png,,,,,,,,,,,,,2,4,16,1,,,,,284.08019700000295,None,,,,,,,,,,,,,,,,,,,,,,,,,,,,,,285.09377529999983,None,285.09377529999983,None,285.09377529999983,None,285.09377529999983,None,285.09377529999983,None,285.09377529999983,None,285.09377529999983,None,a,1,0.46582430000125896,285.09377529999983,None,,,,,,,,,,,,,18,001,2022_Oct_19_1655,Flanker,2021.2.0,239.70008725533302,
neutral left,0,a,neutral.png,neutral.png,neutral.png,left_arrow.png,neutral.png,neutral.png,neutral.png,,,,,,,,,,,,,2,5,17,4,,,,,285.5777543000004,None,,,,,,,,,,,,,,,,,,,,,,,,,,,,,,286.59135700000115,None,286.59135700000115,None,286.59135700000115,None,286.59135700000115,None,286.59135700000115,None,286.59135700000115,None,286.59135700000115,None,a,1,0.4003102000024228,286.59135700000115,None,,,,,,,,,,,,,18,001,2022_Oct_19_1655,Flanker,2021.2.0,239.70008725533302,
congruent-left.jpg,1,a,left_arrow.png,left_arrow.png,left_arrow.png,left_arrow.png,left_arrow.png,left_arrow.png,left_arrow.png,,,,,,,,,,,,,3,0,18,0,,,,,287.00843800000075,None,,,,,,,,,,,,,,,,,,,,,,,,,,,,,,288.01797480000096,None,288.01797480000096,None,288.01797480000096,None,288.01797480000096,None,288.01797480000096,None,288.01797480000096,None,288.01797480000096,None,a,1,0.3817101000022376,288.01797480000096,None,,,,,,,,,,,,,18,001,2022_Oct_19_1655,Flanker,2021.2.0,239.70008725533302,
incongruent-right.jpg,0,k,left_arrow.png,left_arrow.png,left_arrow.png,right_arrow.png,left_arrow.png,left_arrow.png,left_arrow.png,,,,,,,,,,,,,3,1,19,3,,,,,288.41833800000313,None,,,,,,,,,,,,,,,,,,,,,,,,,,,,,,289.4318635000018,None,289.4318635000018,None,289.4318635000018,None,289.4318635000018,None,289.4318635000018,None,289.4318635000018,None,289.4318635000018,None,k,1,0.3522862999998324,289.4318635000018,None,,,,,,,,,,,,,18,001,2022_Oct_19_1655,Flanker,2021.2.0,239.70008725533302,
congruent-left.jpg,1,a,left_arrow.png,left_arrow.png,left_arrow.png,left_arrow.png,left_arrow.png,left_arrow.png,left_arrow.png,,,,,,,,,,,,,3,2,20,0,,,,,289.7990264,None,,,,,,,,,,,,,,,,,,,,,,,,,,,,,,290.80840929999977,None,290.80840929999977,None,290.80840929999977,None,290.80840929999977,None,290.80840929999977,None,290.80840929999977,None,290.80840929999977,None,a,1,0.35965000000214786,290.80840929999977,None,,,,,,,,,,,,,18,001,2022_Oct_19_1655,Flanker,2021.2.0,239.70008725533302,
neutral left,0,a,neutral.png,neutral.png,neutral.png,left_arrow.png,neutral.png,neutral.png,neutral.png,,,,,,,,,,,,,3,3,21,4,,,,,291.18362700000216,None,,,,,,,,,,,,,,,,,,,,,,,,,,,,,,292.1973747000011,None,292.1973747000011,None,292.1973747000011,None,292.1973747000011,None,292.1973747000011,None,292.1973747000011,None,292.1973747000011,None,a,1,0.41087960000004387,292.1973747000011,None,,,,,,,,,,,,,18,001,2022_Oct_19_1655,Flanker,2021.2.0,239.70008725533302,
congruent-left.jpg,1,a,left_arrow.png,left_arrow.png,left_arrow.png,left_arrow.png,left_arrow.png,left_arrow.png,left_arrow.png,,,,,,,,,,,,,3,4,22,0,,,,,292.6226179000005,None,,,,,,,,,,,,,,,,,,,,,,,,,,,,,,293.63617050000175,None,293.63617050000175,None,293.63617050000175,None,293.63617050000175,None,293.63617050000175,None,293.63617050000175,None,293.63617050000175,None,a,1,0.39629259999856004,293.63617050000175,None,,,,,,,,,,,,,18,001,2022_Oct_19_1655,Flanker,2021.2.0,239.70008725533302,
congruent-right.jpg,1,k,right_arrow.png,right_arrow.png,right_arrow.png,right_arrow.png,right_arrow.png,right_arrow.png,right_arrow.png,,,,,,,,,,,,,3,5,23,2,,,,,294.04495430000316,None,,,,,,,,,,,,,,,,,,,,,,,,,,,,,,295.05875370000285,None,295.05875370000285,None,295.05875370000285,None,295.05875370000285,None,295.05875370000285,None,295.05875370000285,None,295.05875370000285,None,k,1,0.3660879000017303,295.05875370000285,None,,,,,,,,,,,,,18,001,2022_Oct_19_1655,Flanker,2021.2.0,239.70008725533302,
incongruent-left.jpg,0,a,right_arrow.png,right_arrow.png,right_arrow.png,left_arrow.png,right_arrow.png,right_arrow.png,right_arrow.png,,,,,,,,,,,,,4,0,24,1,,,,,295.4422605,None,,,,,,,,,,,,,,,,,,,,,,,,,,,,,,296.4558309000022,None,296.4558309000022,None,296.4558309000022,None,296.4558309000022,None,296.4558309000022,None,296.4558309000022,None,296.4558309000022,None,a,1,0.39301459999842336,296.4558309000022,None,,,,,,,,,,,,,18,001,2022_Oct_19_1655,Flanker,2021.2.0,239.70008725533302,
congruent-right.jpg,1,k,right_arrow.png,right_arrow.png,right_arrow.png,right_arrow.png,right_arrow.png,right_arrow.png,right_arrow.png,,,,,,,,,,,,,4,1,25,2,,,,,296.8645995000006,None,,,,,,,,,,,,,,,,,,,,,,,,,,,,,,297.8782042000021,None,297.8782042000021,None,297.8782042000021,None,297.8782042000021,None,297.8782042000021,None,297.8782042000021,None,297.8782042000021,None,k,1,0.37114179999844055,297.8782042000021,None,,,,,,,,,,,,,18,001,2022_Oct_19_1655,Flanker,2021.2.0,239.70008725533302,
congruent-left.jpg,1,a,left_arrow.png,left_arrow.png,left_arrow.png,left_arrow.png,left_arrow.png,left_arrow.png,left_arrow.png,,,,,,,,,,,,,4,2,26,0,,,,,298.2619224000009,None,,,,,,,,,,,,,,,,,,,,,,,,,,,,,,299.2798838000017,None,299.2798838000017,None,299.2798838000017,None,299.2798838000017,None,299.2798838000017,None,299.2798838000017,None,299.2798838000017,None,a,1,0.40130969999881927,299.2798838000017,None,,,,,,,,,,,,,18,001,2022_Oct_19_1655,Flanker,2021.2.0,239.70008725533302,
incongruent-right.jpg,0,k,left_arrow.png,left_arrow.png,left_arrow.png,right_arrow.png,left_arrow.png,left_arrow.png,left_arrow.png,,,,,,,,,,,,,4,3,27,3,,,,,299.69685160000154,None,,,,,,,,,,,,,,,,,,,,,,,,,,,,,,300.71037250000154,None,300.71037250000154,None,300.71037250000154,None,300.71037250000154,None,300.71037250000154,None,300.71037250000154,None,300.71037250000154,None,k,1,0.331018299999414,300.71037250000154,None,,,,,,,,,,,,,18,001,2022_Oct_19_1655,Flanker,2021.2.0,239.70008725533302,
congruent-right.jpg,1,k,right_arrow.png,right_arrow.png,right_arrow.png,right_arrow.png,right_arrow.png,right_arrow.png,right_arrow.png,,,,,,,,,,,,,4,4,28,2,,,,,301.06115500000305,None,,,,,,,,,,,,,,,,,,,,,,,,,,,,,,302.07470260000264,None,302.07470260000264,None,302.07470260000264,None,302.07470260000264,None,302.07470260000264,None,302.07470260000264,None,302.07470260000264,None,k,1,0.4069048000019393,302.07470260000264,None,,,,,,,,,,,,,18,001,2022_Oct_19_1655,Flanker,2021.2.0,239.70008725533302,
congruent-right.jpg,1,k,right_arrow.png,right_arrow.png,right_arrow.png,right_arrow.png,right_arrow.png,right_arrow.png,right_arrow.png,,,,,,,,,,,,,4,5,29,2,,,,,302.4997656000014,None,,,,,,,,,,,,,,,,,,,,,,,,,,,,,,303.5135489000022,None,303.5135489000022,None,303.5135489000022,None,303.5135489000022,None,303.5135489000022,None,303.5135489000022,None,303.5135489000022,None,k,1,0.3922655999995186,303.5135489000022,None,,,,,,,,,,,,,18,001,2022_Oct_19_1655,Flanker,2021.2.0,239.70008725533302,
neutral left,0,a,neutral.png,neutral.png,neutral.png,left_arrow.png,neutral.png,neutral.png,neutral.png,,,,,,,,,,,,,5,0,30,4,,,,,303.92240239999956,None,,,,,,,,,,,,,,,,,,,,,,,,,,,,,,304.93148700000165,None,304.93148700000165,None,304.93148700000165,None,304.93148700000165,None,304.93148700000165,None,304.93148700000165,None,304.93148700000165,None,a,1,0.39850400000068475,304.93148700000165,None,,,,,,,,,,,,,18,001,2022_Oct_19_1655,Flanker,2021.2.0,239.70008725533302,
neutral right,0,k,neutral.png,neutral.png,neutral.png,right_arrow.png,neutral.png,neutral.png,neutral.png,,,,,,,,,,,,,5,1,31,5,,,,,305.3486346000027,None,,,,,,,,,,,,,,,,,,,,,,,,,,,,,,306.3663665000022,None,306.3663665000022,None,306.3663665000022,None,306.3663665000022,None,306.3663665000022,None,306.3663665000022,None,306.3663665000022,None,k,1,0.3558225999986462,306.3663665000022,None,,,,,,,,,,,,,18,001,2022_Oct_19_1655,Flanker,2021.2.0,239.70008725533302,
incongruent-right.jpg,0,k,left_arrow.png,left_arrow.png,left_arrow.png,right_arrow.png,left_arrow.png,left_arrow.png,left_arrow.png,,,,,,,,,,,,,5,2,32,3,,,,,306.73385880000205,None,,,,,,,,,,,,,,,,,,,,,,,,,,,,,,307.7470143999999,None,307.7470143999999,None,307.7470143999999,None,307.7470143999999,None,307.7470143999999,None,307.7470143999999,None,307.7470143999999,None,k,1,0.3433413999991899,307.7470143999999,None,,,,,,,,,,,,,18,001,2022_Oct_19_1655,Flanker,2021.2.0,239.70008725533302,
neutral left,0,a,neutral.png,neutral.png,neutral.png,left_arrow.png,neutral.png,neutral.png,neutral.png,,,,,,,,,,,,,5,3,33,4,,,,,308.1056998000022,None,,,,,,,,,,,,,,,,,,,,,,,,,,,,,,309.11942030000137,None,309.11942030000137,None,309.11942030000137,None,309.11942030000137,None,309.11942030000137,None,309.11942030000137,None,309.11942030000137,None,a,1,0.39512570000078995,309.11942030000137,None,,,,,,,,,,,,,18,001,2022_Oct_19_1655,Flanker,2021.2.0,239.70008725533302,
neutral right,0,k,neutral.png,neutral.png,neutral.png,right_arrow.png,neutral.png,neutral.png,neutral.png,,,,,,,,,,,,,5,4,34,5,,,,,309.52803810000114,None,,,,,,,,,,,,,,,,,,,,,,,,,,,,,,310.5417985000022,None,310.5417985000022,None,310.5417985000022,None,310.5417985000022,None,310.5417985000022,None,310.5417985000022,None,310.5417985000022,None,k,1,0.3412992999983544,310.5417985000022,None,,,,,,,,,,,,,18,001,2022_Oct_19_1655,Flanker,2021.2.0,239.70008725533302,
congruent-right.jpg,1,k,right_arrow.png,right_arrow.png,right_arrow.png,right_arrow.png,right_arrow.png,right_arrow.png,right_arrow.png,,,,,,,,,,,,,5,5,35,2,,,,,310.90065440000035,None,,,,,,,,,,,,,,,,,,,,,,,,,,,,,,311.91414070000246,None,311.91414070000246,None,311.91414070000246,None,311.91414070000246,None,311.91414070000246,None,311.91414070000246,None,311.91414070000246,None,k,1,0.3928371000001789,311.91414070000246,None,,,,,,,,,,,,,18,001,2022_Oct_19_1655,Flanker,2021.2.0,239.70008725533302,
incongruent-left.jpg,0,a,right_arrow.png,right_arrow.png,right_arrow.png,left_arrow.png,right_arrow.png,right_arrow.png,right_arrow.png,,,,,,,,,,,,,6,0,36,1,,,,,312.32290250000005,None,,,,,,,,,,,,,,,,,,,,,,,,,,,,,,313.3323209000009,None,313.3323209000009,None,313.3323209000009,None,313.3323209000009,None,313.3323209000009,None,313.3323209000009,None,313.3323209000009,None,a,1,0.37479200000234414,313.3323209000009,None,,,,,,,,,,,,,18,001,2022_Oct_19_1655,Flanker,2021.2.0,239.70008725533302,
neutral right,0,k,neutral.png,neutral.png,neutral.png,right_arrow.png,neutral.png,neutral.png,neutral.png,,,,,,,,,,,,,6,1,37,5,,,,,313.724815900001,None,,,,,,,,,,,,,,,,,,,,,,,,,,,,,,314.73352870000235,None,314.73352870000235,None,314.73352870000235,None,314.73352870000235,None,314.73352870000235,None,314.73352870000235,None,314.73352870000235,None,k,1,0.37379000000146334,314.73352870000235,None,,,,,,,,,,,,,18,001,2022_Oct_19_1655,Flanker,2021.2.0,239.70008725533302,
neutral left,0,a,neutral.png,neutral.png,neutral.png,left_arrow.png,neutral.png,neutral.png,neutral.png,,,,,,,,,,,,,6,2,38,4,,,,,315.1258777000003,None,,,,,,,,,,,,,,,,,,,,,,,,,,,,,,316.13940280000315,None,316.13940280000315,None,316.13940280000315,None,316.13940280000315,None,316.13940280000315,None,316.13940280000315,None,316.13940280000315,None,a,1,0.3843739999974787,316.13940280000315,None,,,,,,,,,,,,,18,001,2022_Oct_19_1655,Flanker,2021.2.0,239.70008725533302,
incongruent-left.jpg,0,a,right_arrow.png,right_arrow.png,right_arrow.png,left_arrow.png,right_arrow.png,right_arrow.png,right_arrow.png,,,,,,,,,,,,,6,3,39,1,,,,,316.53988160000154,None,,,,,,,,,,,,,,,,,,,,,,,,,,,,,,317.54905350000263,None,317.54905350000263,None,317.54905350000263,None,317.54905350000263,None,317.54905350000263,None,317.54905350000263,None,317.54905350000263,None,a,1,0.46262660000138567,317.54905350000263,None,,,,,,,,,,,,,18,001,2022_Oct_19_1655,Flanker,2021.2.0,239.70008725533302,
neutral right,0,k,neutral.png,neutral.png,neutral.png,right_arrow.png,neutral.png,neutral.png,neutral.png,,,,,,,,,,,,,6,4,40,5,,,,,318.0246939000026,None,,,,,,,,,,,,,,,,,,,,,,,,,,,,,,319.0383447000022,None,319.0383447000022,None,319.0383447000022,None,319.0383447000022,None,319.0383447000022,None,319.0383447000022,None,319.0383447000022,None,k,1,0.34153040000092005,319.0383447000022,None,,,,,,,,,,,,,18,001,2022_Oct_19_1655,Flanker,2021.2.0,239.70008725533302,
incongruent-right.jpg,0,k,left_arrow.png,left_arrow.png,left_arrow.png,right_arrow.png,left_arrow.png,left_arrow.png,left_arrow.png,,,,,,,,,,,,,6,5,41,3,,,,,319.39707620000263,None,,,,,,,,,,,,,,,,,,,,,,,,,,,,,,320.4069242000005,None,320.4069242000005,None,320.4069242000005,None,320.4069242000005,None,320.4069242000005,None,320.4069242000005,None,320.4069242000005,None,k,1,0.42117879999932484,320.4069242000005,None,,,,,,,,,,,,,18,001,2022_Oct_19_1655,Flanker,2021.2.0,239.70008725533302,
congruent-left.jpg,1,a,left_arrow.png,left_arrow.png,left_arrow.png,left_arrow.png,left_arrow.png,left_arrow.png,left_arrow.png,,,,,,,,,,,,,7,0,42,0,,,,,320.8401565000022,None,,,,,,,,,,,,,,,,,,,,,,,,,,,,,,321.8496761000024,None,321.8496761000024,None,321.8496761000024,None,321.8496761000024,None,321.8496761000024,None,321.8496761000024,None,321.8496761000024,None,a,1,0.38689890000023297,321.8496761000024,None,,,,,,,,,,,,,18,001,2022_Oct_19_1655,Flanker,2021.2.0,239.70008725533302,
incongruent-left.jpg,0,a,right_arrow.png,right_arrow.png,right_arrow.png,left_arrow.png,right_arrow.png,right_arrow.png,right_arrow.png,,,,,,,,,,,,,7,1,43,1,,,,,322.24993410000025,None,,,,,,,,,,,,,,,,,,,,,,,,,,,,,,323.26357890000145,None,323.26357890000145,None,323.26357890000145,None,323.26357890000145,None,323.26357890000145,None,323.26357890000145,None,323.26357890000145,None,a,1,0.42904599999747006,323.26357890000145,None,,,,,,,,,,,,,18,001,2022_Oct_19_1655,Flanker,2021.2.0,239.70008725533302,
congruent-left.jpg,1,a,left_arrow.png,left_arrow.png,left_arrow.png,left_arrow.png,left_arrow.png,left_arrow.png,left_arrow.png,,,,,,,,,,,,,7,2,44,0,,,,,323.70625270000164,None,,,,,,,,,,,,,,,,,,,,,,,,,,,,,,324.71945450000203,None,324.71945450000203,None,324.71945450000203,None,324.71945450000203,None,324.71945450000203,None,324.71945450000203,None,324.71945450000203,None,a,1,0.34949430000051507,324.71945450000203,None,,,,,,,,,,,,,18,001,2022_Oct_19_1655,Flanker,2021.2.0,239.70008725533302,
congruent-right.jpg,1,k,right_arrow.png,right_arrow.png,right_arrow.png,right_arrow.png,right_arrow.png,right_arrow.png,right_arrow.png,,,,,,,,,,,,,7,3,45,2,,,,,325.08647440000277,None,,,,,,,,,,,,,,,,,,,,,,,,,,,,,,326.10004090000075,None,326.10004090000075,None,326.10004090000075,None,326.10004090000075,None,326.10004090000075,None,326.10004090000075,None,326.10004090000075,None,k,1,0.4169508999984828,326.10004090000075,None,,,,,,,,,,,,,18,001,2022_Oct_19_1655,Flanker,2021.2.0,239.70008725533302,
incongruent-right.jpg,0,k,left_arrow.png,left_arrow.png,left_arrow.png,right_arrow.png,left_arrow.png,left_arrow.png,left_arrow.png,,,,,,,,,,,,,7,4,46,3,,,,,326.53383960000065,None,,,,,,,,,,,,,,,,,,,,,,,,,,,,,,327.5432172000001,None,327.5432172000001,None,327.5432172000001,None,327.5432172000001,None,327.5432172000001,None,327.5432172000001,None,327.5432172000001,None,k,1,0.3821291999993264,327.5432172000001,None,,,,,,,,,,,,,18,001,2022_Oct_19_1655,Flanker,2021.2.0,239.70008725533302,
neutral right,0,k,neutral.png,neutral.png,neutral.png,right_arrow.png,neutral.png,neutral.png,neutral.png,,,,,,,,,,,,,7,5,47,5,,,,,327.94408450000265,None,,,,,,,,,,,,,,,,,,,,,,,,,,,,,,328.9530500000001,None,328.9530500000001,None,328.9530500000001,None,328.9530500000001,None,328.9530500000001,None,328.9530500000001,None,328.9530500000001,None,k,1,0.3641733000004024,328.9530500000001,None,,,,,,,,,,,,,18,001,2022_Oct_19_1655,Flanker,2021.2.0,239.70008725533302,
,,,,,,,,,,,,,,,,,,,,,,,,,,,,,,,,,,,,,,,,,,,,,,,,,,,,,,,,,,,,,,,,,,,,,,,,,,,,,,,,329.34938300000067,None,space,14.145810999998503,329.34938300000067,None,,,,,,,18,001,2022_Oct_19_1655,Flanker,2021.2.0,239.70008725533302,
,,,,,,,,,,,,,,,,,,,,,,,,,,,,,,,,,,,,,,,,,,,,,,,,,,,,,,,,,,,,,,,,,,,,,,,,,,,,,,,,,,,,,,343.5142467000005,None,space,3.2133530999999493,343.5142467000005,None,18,001,2022_Oct_19_1655,Flanker,2021.2.0,239.70008725533302,
