images,congruentcy,corrAns,arrow_1,arrow_2,arrow_3,target,arrow_5,arrow_6,arrow_7,practice.thisRepN,practice.thisTrialN,practice.thisN,practice.thisIndex,trials.thisRepN,trials.thisTrialN,trials.thisN,trials.thisIndex,trials_2.thisRepN,trials_2.thisTrialN,trials_2.thisN,trials_2.thisIndex,trials_3.thisRepN,trials_3.thisTrialN,trials_3.thisN,trials_3.thisIndex,instr_text.started,instr_text.stopped,instr_resp.keys,instr_resp.rt,polygon.started,polygon.stopped,arrow1_.started,arrow1_.stopped,arrow2_.started,arrow2_.stopped,arrow3_.started,arrow3_.stopped,target_p.started,target_p.stopped,arrow5_.started,arrow5_.stopped,arrow6_.started,arrow6_.stopped,arrow7_.started,arrow7_.stopped,key_resp_P.keys,key_resp_P.corr,key_resp_P.rt,key_resp_P.started,key_resp_P.stopped,text_2.started,text_2.stopped,text_3.started,text_3.stopped,text_4.started,text_4.stopped,key_resp_2.keys,key_resp_2.rt,key_resp_2.started,key_resp_2.stopped,arrow1.started,arrow1.stopped,arrow2.started,arrow2.stopped,arrow3.started,arrow3.stopped,target_t.started,target_t.stopped,arrow5.started,arrow5.stopped,arrow6.started,arrow6.stopped,arrow7.started,arrow7.stopped,key_resp.keys,key_resp.corr,key_resp.rt,key_resp.started,key_resp.stopped,text_5.started,text_5.stopped,key_resp_3.keys,key_resp_3.rt,key_resp_3.started,key_resp_3.stopped,text_6.started,text_6.stopped,key_resp_4.keys,key_resp_4.rt,key_resp_4.started,key_resp_4.stopped,participant,session,date,expName,psychopyVersion,frameRate,
,,,,,,,,,,,,,,,,,,,,,,,,,,70.5441135000001,None,space,32.1902751000016,,,,,,,,,,,,,,,,,,,,,,,,,,,,,,,,,,,,,,,,,,,,,,,,,,,,,,,,,,,,,,,19,001,2022_Oct_20_1208,Flanker,2021.2.0,241.3290472790248,
neutral right,0,k,neutral.png,neutral.png,neutral.png,right_arrow.png,neutral.png,neutral.png,neutral.png,0,0,0,5,,,,,,,,,,,,,,,,,102.76211830000102,None,103.76326370000606,None,103.76326370000606,None,103.76326370000606,None,103.76326370000606,None,103.76326370000606,None,103.76326370000606,None,103.76326370000606,None,k,1,2.5398023999878205,103.76326370000606,None,106.32428430000436,None,,,,,,,,,,,,,,,,,,,,,,,,,,,,,,,,,,,,,,,,19,001,2022_Oct_20_1208,Flanker,2021.2.0,241.3290472790248,
incongruent-right.jpg,0,k,left_arrow.png,left_arrow.png,left_arrow.png,right_arrow.png,left_arrow.png,left_arrow.png,left_arrow.png,0,1,1,3,,,,,,,,,,,,,,,,,107.8175312000094,None,108.83110300000408,None,108.83110300000408,None,108.83110300000408,None,108.83110300000408,None,108.83110300000408,None,108.83110300000408,None,108.83110300000408,None,k,1,12.346010599998408,108.83110300000408,None,121.19433600000048,None,,,,,,,,,,,,,,,,,,,,,,,,,,,,,,,,,,,,,,,,19,001,2022_Oct_20_1208,Flanker,2021.2.0,241.3290472790248,
neutral right,0,k,neutral.png,neutral.png,neutral.png,right_arrow.png,neutral.png,neutral.png,neutral.png,0,2,2,5,,,,,,,,,,,,,,,,,122.6998930000118,None,123.70511819999956,None,123.70511819999956,None,123.70511819999956,None,123.70511819999956,None,123.70511819999956,None,123.70511819999956,None,123.70511819999956,None,k,1,1.072263699999894,123.70511819999956,None,124.78958570001123,None,,,,,,,,,,,,,,,,,,,,,,,,,,,,,,,,,,,,,,,,19,001,2022_Oct_20_1208,Flanker,2021.2.0,241.3290472790248,
congruent-left.jpg,1,a,left_arrow.png,left_arrow.png,left_arrow.png,left_arrow.png,left_arrow.png,left_arrow.png,left_arrow.png,0,3,3,0,,,,,,,,,,,,,,,,,126.29551880000508,None,127.30476520000957,None,127.30476520000957,None,127.30476520000957,None,127.30476520000957,None,127.30476520000957,None,127.30476520000957,None,127.30476520000957,None,a,1,1.129174099987722,127.30476520000957,None,128.44764390001365,None,,,,,,,,,,,,,,,,,,,,,,,,,,,,,,,,,,,,,,,,19,001,2022_Oct_20_1208,Flanker,2021.2.0,241.3290472790248,
incongruent-right.jpg,0,k,left_arrow.png,left_arrow.png,left_arrow.png,right_arrow.png,left_arrow.png,left_arrow.png,left_arrow.png,0,4,4,3,,,,,,,,,,,,,,,,,129.9533938000095,None,130.96315130000585,None,130.96315130000585,None,130.96315130000585,None,130.96315130000585,None,130.96315130000585,None,130.96315130000585,None,130.96315130000585,None,k,1,0.9834619000030216,130.96315130000585,None,131.96388990001287,None,,,,,,,,,,,,,,,,,,,,,,,,,,,,,,,,,,,,,,,,19,001,2022_Oct_20_1208,Flanker,2021.2.0,241.3290472790248,
incongruent-left.jpg,0,a,right_arrow.png,right_arrow.png,right_arrow.png,left_arrow.png,right_arrow.png,right_arrow.png,right_arrow.png,0,5,5,1,,,,,,,,,,,,,,,,,133.46555060001265,None,134.47913280001376,None,134.47913280001376,None,134.47913280001376,None,134.47913280001376,None,134.47913280001376,None,134.47913280001376,None,134.47913280001376,None,a,1,0.9717294000001857,134.47913280001376,None,135.46374010000727,None,,,,,,,,,,,,,,,,,,,,,,,,,,,,,,,,,,,,,,,,19,001,2022_Oct_20_1208,Flanker,2021.2.0,241.3290472790248,
congruent-right.jpg,1,k,right_arrow.png,right_arrow.png,right_arrow.png,right_arrow.png,right_arrow.png,right_arrow.png,right_arrow.png,1,0,6,2,,,,,,,,,,,,,,,,,136.96918180001376,None,137.974555400011,None,137.974555400011,None,137.974555400011,None,137.974555400011,None,137.974555400011,None,137.974555400011,None,137.974555400011,None,k,1,0.764749900001334,137.974555400011,None,138.75024520000443,None,,,,,,,,,,,,,,,,,,,,,,,,,,,,,,,,,,,,,,,,19,001,2022_Oct_20_1208,Flanker,2021.2.0,241.3290472790248,
neutral right,0,k,neutral.png,neutral.png,neutral.png,right_arrow.png,neutral.png,neutral.png,neutral.png,1,1,7,5,,,,,,,,,,,,,,,,,140.25214300000516,None,141.26123720000032,None,141.26123720000032,None,141.26123720000032,None,141.26123720000032,None,141.26123720000032,None,141.26123720000032,None,141.26123720000032,None,k,1,0.9105329000012716,141.26123720000032,None,142.18307820000337,None,,,,,,,,,,,,,,,,,,,,,,,,,,,,,,,,,,,,,,,,19,001,2022_Oct_20_1208,Flanker,2021.2.0,241.3290472790248,
neutral left,0,a,neutral.png,neutral.png,neutral.png,left_arrow.png,neutral.png,neutral.png,neutral.png,1,2,8,4,,,,,,,,,,,,,,,,,143.68465250000008,None,144.68991280000773,None,144.68991280000773,None,144.68991280000773,None,144.68991280000773,None,144.68991280000773,None,144.68991280000773,None,144.68991280000773,None,a,1,1.082394099998055,144.68991280000773,None,145.79106470000988,None,,,,,,,,,,,,,,,,,,,,,,,,,,,,,,,,,,,,,,,,19,001,2022_Oct_20_1208,Flanker,2021.2.0,241.3290472790248,
congruent-right.jpg,1,k,right_arrow.png,right_arrow.png,right_arrow.png,right_arrow.png,right_arrow.png,right_arrow.png,right_arrow.png,1,3,9,2,,,,,,,,,,,,,,,,,147.29274210000585,None,148.30622050000238,None,148.30622050000238,None,148.30622050000238,None,148.30622050000238,None,148.30622050000238,None,148.30622050000238,None,148.30622050000238,None,k,1,0.9705656000005547,148.30622050000238,None,149.29059750000306,None,,,,,,,,,,,,,,,,,,,,,,,,,,,,,,,,,,,,,,,,19,001,2022_Oct_20_1208,Flanker,2021.2.0,241.3290472790248,
neutral right,0,k,neutral.png,neutral.png,neutral.png,right_arrow.png,neutral.png,neutral.png,neutral.png,1,4,10,5,,,,,,,,,,,,,,,,,150.79216820000147,None,151.80160440001055,None,151.80160440001055,None,151.80160440001055,None,151.80160440001055,None,151.80160440001055,None,151.80160440001055,None,151.80160440001055,None,k,1,0.9556404000031762,151.80160440001055,None,152.76945420000993,None,,,,,,,,,,,,,,,,,,,,,,,,,,,,,,,,,,,,,,,,19,001,2022_Oct_20_1208,Flanker,2021.2.0,241.3290472790248,
congruent-left.jpg,1,a,left_arrow.png,left_arrow.png,left_arrow.png,left_arrow.png,left_arrow.png,left_arrow.png,left_arrow.png,1,5,11,0,,,,,,,,,,,,,,,,,154.27505590001238,None,155.28060220000043,None,155.28060220000043,None,155.28060220000043,None,155.28060220000043,None,155.28060220000043,None,155.28060220000043,None,155.28060220000043,None,a,1,0.7491222000098787,155.28060220000043,None,156.04785020000418,None,,,,,,,,,,,,,,,,,,,,,,,,,,,,,,,,,,,,,,,,19,001,2022_Oct_20_1208,Flanker,2021.2.0,241.3290472790248,
neutral left,0,a,neutral.png,neutral.png,neutral.png,left_arrow.png,neutral.png,neutral.png,neutral.png,2,0,12,4,,,,,,,,,,,,,,,,,157.54954170000565,None,158.5629781000025,None,158.5629781000025,None,158.5629781000025,None,158.5629781000025,None,158.5629781000025,None,158.5629781000025,None,158.5629781000025,None,a,1,0.7072077000048012,158.5629781000025,None,159.28895240000566,None,,,,,,,,,,,,,,,,,,,,,,,,,,,,,,,,,,,,,,,,19,001,2022_Oct_20_1208,Flanker,2021.2.0,241.3290472790248,
incongruent-left.jpg,0,a,right_arrow.png,right_arrow.png,right_arrow.png,left_arrow.png,right_arrow.png,right_arrow.png,right_arrow.png,2,1,13,1,,,,,,,,,,,,,,,,,160.79464250001183,None,161.80406040001253,None,161.80406040001253,None,161.80406040001253,None,161.80406040001253,None,161.80406040001253,None,161.80406040001253,None,161.80406040001253,None,a,1,1.306617299997015,161.80406040001253,None,163.1219926000049,None,,,,,,,,,,,,,,,,,,,,,,,,,,,,,,,,,,,,,,,,19,001,2022_Oct_20_1208,Flanker,2021.2.0,241.3290472790248,
incongruent-left.jpg,0,a,right_arrow.png,right_arrow.png,right_arrow.png,left_arrow.png,right_arrow.png,right_arrow.png,right_arrow.png,2,2,14,1,,,,,,,,,,,,,,,,,164.62787290000415,None,165.63734480000858,None,165.63734480000858,None,165.63734480000858,None,165.63734480000858,None,165.63734480000858,None,165.63734480000858,None,165.63734480000858,None,a,1,1.809931099996902,165.63734480000858,None,167.46422870000242,None,,,,,,,,,,,,,,,,,,,,,,,,,,,,,,,,,,,,,,,,19,001,2022_Oct_20_1208,Flanker,2021.2.0,241.3290472790248,
incongruent-right.jpg,0,k,left_arrow.png,left_arrow.png,left_arrow.png,right_arrow.png,left_arrow.png,left_arrow.png,left_arrow.png,2,3,15,3,,,,,,,,,,,,,,,,,168.96997580000607,None,169.9793994000065,None,169.9793994000065,None,169.9793994000065,None,169.9793994000065,None,169.9793994000065,None,169.9793994000065,None,169.9793994000065,None,k,1,1.68466709999484,169.9793994000065,None,171.6812009000132,None,,,,,,,,,,,,,,,,,,,,,,,,,,,,,,,,,,,,,,,,19,001,2022_Oct_20_1208,Flanker,2021.2.0,241.3290472790248,
neutral left,0,a,neutral.png,neutral.png,neutral.png,left_arrow.png,neutral.png,neutral.png,neutral.png,2,4,16,4,,,,,,,,,,,,,,,,,173.1868445,None,174.19635300000664,None,174.19635300000664,None,174.19635300000664,None,174.19635300000664,None,174.19635300000664,None,174.19635300000664,None,174.19635300000664,None,a,1,0.8759585999941919,174.19635300000664,None,175.0890960000106,None,,,,,,,,,,,,,,,,,,,,,,,,,,,,,,,,,,,,,,,,19,001,2022_Oct_20_1208,Flanker,2021.2.0,241.3290472790248,
incongruent-right.jpg,0,k,left_arrow.png,left_arrow.png,left_arrow.png,right_arrow.png,left_arrow.png,left_arrow.png,left_arrow.png,2,5,17,3,,,,,,,,,,,,,,,,,176.59048440000333,None,177.6042645000125,None,177.6042645000125,None,177.6042645000125,None,177.6042645000125,None,177.6042645000125,None,177.6042645000125,None,177.6042645000125,None,k,1,1.3008009000041056,177.6042645000125,None,178.92221010000503,None,,,,,,,,,,,,,,,,,,,,,,,,,,,,,,,,,,,,,,,,19,001,2022_Oct_20_1208,Flanker,2021.2.0,241.3290472790248,
congruent-right.jpg,1,k,right_arrow.png,right_arrow.png,right_arrow.png,right_arrow.png,right_arrow.png,right_arrow.png,right_arrow.png,3,0,18,2,,,,,,,,,,,,,,,,,180.42382180001005,None,181.4332745000138,None,181.4332745000138,None,181.4332745000138,None,181.4332745000138,None,181.4332745000138,None,181.4332745000138,None,181.4332745000138,None,k,1,0.8323628000071039,181.4332745000138,None,182.28413070000533,None,,,,,,,,,,,,,,,,,,,,,,,,,,,,,,,,,,,,,,,,19,001,2022_Oct_20_1208,Flanker,2021.2.0,241.3290472790248,
congruent-left.jpg,1,a,left_arrow.png,left_arrow.png,left_arrow.png,left_arrow.png,left_arrow.png,left_arrow.png,left_arrow.png,3,1,19,0,,,,,,,,,,,,,,,,,183.78559680000762,None,184.7910961000016,None,184.7910961000016,None,184.7910961000016,None,184.7910961000016,None,184.7910961000016,None,184.7910961000016,None,184.7910961000016,None,a,1,0.906723799998872,184.7910961000016,None,185.71705490000022,None,,,,,,,,,,,,,,,,,,,,,,,,,,,,,,,,,,,,,,,,19,001,2022_Oct_20_1208,Flanker,2021.2.0,241.3290472790248,
congruent-right.jpg,1,k,right_arrow.png,right_arrow.png,right_arrow.png,right_arrow.png,right_arrow.png,right_arrow.png,right_arrow.png,3,2,20,2,,,,,,,,,,,,,,,,,187.2225529999996,None,188.22778910001216,None,188.22778910001216,None,188.22778910001216,None,188.22778910001216,None,188.22778910001216,None,188.22778910001216,None,188.22778910001216,None,k,1,0.7265888999972958,188.22778910001216,None,188.9702718000044,None,,,,,,,,,,,,,,,,,,,,,,,,,,,,,,,,,,,,,,,,19,001,2022_Oct_20_1208,Flanker,2021.2.0,241.3290472790248,
neutral left,0,a,neutral.png,neutral.png,neutral.png,left_arrow.png,neutral.png,neutral.png,neutral.png,3,3,21,4,,,,,,,,,,,,,,,,,190.47199400000682,None,191.48141380000743,None,191.48141380000743,None,191.48141380000743,None,191.48141380000743,None,191.48141380000743,None,191.48141380000743,None,191.48141380000743,None,a,1,0.8494517999934033,191.48141380000743,None,192.34907600001316,None,,,,,,,,,,,,,,,,,,,,,,,,,,,,,,,,,,,,,,,,19,001,2022_Oct_20_1208,Flanker,2021.2.0,241.3290472790248,
incongruent-left.jpg,0,a,right_arrow.png,right_arrow.png,right_arrow.png,left_arrow.png,right_arrow.png,right_arrow.png,right_arrow.png,3,4,22,1,,,,,,,,,,,,,,,,,193.85462130000815,None,194.86416510000709,None,194.86416510000709,None,194.86416510000709,None,194.86416510000709,None,194.86416510000709,None,194.86416510000709,None,194.86416510000709,None,a,1,1.1792236999899615,194.86416510000709,None,196.05695920001017,None,,,,,,,,,,,,,,,,,,,,,,,,,,,,,,,,,,,,,,,,19,001,2022_Oct_20_1208,Flanker,2021.2.0,241.3290472790248,
congruent-left.jpg,1,a,left_arrow.png,left_arrow.png,left_arrow.png,left_arrow.png,left_arrow.png,left_arrow.png,left_arrow.png,3,5,23,0,,,,,,,,,,,,,,,,,197.55870590000995,None,198.56396310000855,None,198.56396310000855,None,198.56396310000855,None,198.56396310000855,None,198.56396310000855,None,198.56396310000855,None,198.56396310000855,None,a,1,0.6237075999961235,198.56396310000855,None,199.20627780001087,None,,,,,,,,,,,,,,,,,,,,,,,,,,,,,,,,,,,,,,,,19,001,2022_Oct_20_1208,Flanker,2021.2.0,241.3290472790248,
,,,,,,,,,,,,,,,,,,,,,,,,,,,,,,,,,,,,,,,,,,,,,,,,,,,,,200.72450350000872,None,202.7098585000058,None,space,2.774662100011483,202.7098585000058,None,,,,,,,,,,,,,,,,,,,,,,,,,,,,,,,,19,001,2022_Oct_20_1208,Flanker,2021.2.0,241.3290472790248,
neutral right,0,k,neutral.png,neutral.png,neutral.png,right_arrow.png,neutral.png,neutral.png,neutral.png,,,,,0,0,0,5,,,,,,,,,,,,,205.50446710000688,None,,,,,,,,,,,,,,,,,,,,,,,,,,,,,,206.50977380000404,None,206.50977380000404,None,206.50977380000404,None,206.50977380000404,None,206.50977380000404,None,206.50977380000404,None,206.50977380000404,None,k,1,2.0631502000032924,206.50977380000404,None,,,,,,,,,,,,,19,001,2022_Oct_20_1208,Flanker,2021.2.0,241.3290472790248,
congruent-left.jpg,1,a,left_arrow.png,left_arrow.png,left_arrow.png,left_arrow.png,left_arrow.png,left_arrow.png,left_arrow.png,,,,,0,1,1,0,,,,,,,,,,,,,208.58690560000832,None,,,,,,,,,,,,,,,,,,,,,,,,,,,,,,209.60467610000342,None,209.60467610000342,None,209.60467610000342,None,209.60467610000342,None,209.60467610000342,None,209.60467610000342,None,209.60467610000342,None,a,1,0.8244826000009198,209.60467610000342,None,,,,,,,,,,,,,19,001,2022_Oct_20_1208,Flanker,2021.2.0,241.3290472790248,
incongruent-left.jpg,0,a,right_arrow.png,right_arrow.png,right_arrow.png,left_arrow.png,right_arrow.png,right_arrow.png,right_arrow.png,,,,,0,2,2,1,,,,,,,,,,,,,210.44754410001042,None,,,,,,,,,,,,,,,,,,,,,,,,,,,,,,211.45676990000356,None,211.45676990000356,None,211.45676990000356,None,211.45676990000356,None,211.45676990000356,None,211.45676990000356,None,211.45676990000356,None,a,1,1.0767066999978852,211.45676990000356,None,,,,,,,,,,,,,19,001,2022_Oct_20_1208,Flanker,2021.2.0,241.3290472790248,
incongruent-right.jpg,0,k,left_arrow.png,left_arrow.png,left_arrow.png,right_arrow.png,left_arrow.png,left_arrow.png,left_arrow.png,,,,,0,3,3,3,,,,,,,,,,,,,212.5494722000003,None,,,,,,,,,,,,,,,,,,,,,,,,,,,,,,213.56736650000676,None,213.56736650000676,None,213.56736650000676,None,213.56736650000676,None,213.56736650000676,None,213.56736650000676,None,213.56736650000676,None,k,1,1.3984522999962792,213.56736650000676,None,,,,,,,,,,,,,19,001,2022_Oct_20_1208,Flanker,2021.2.0,241.3290472790248,
congruent-right.jpg,1,k,right_arrow.png,right_arrow.png,right_arrow.png,right_arrow.png,right_arrow.png,right_arrow.png,right_arrow.png,,,,,0,4,4,2,,,,,,,,,,,,,214.98537270000088,None,,,,,,,,,,,,,,,,,,,,,,,,,,,,,,215.99490960000549,None,215.99490960000549,None,215.99490960000549,None,215.99490960000549,None,215.99490960000549,None,215.99490960000549,None,215.99490960000549,None,k,1,0.7071569999970961,215.99490960000549,None,,,,,,,,,,,,,19,001,2022_Oct_20_1208,Flanker,2021.2.0,241.3290472790248,
congruent-left.jpg,1,a,left_arrow.png,left_arrow.png,left_arrow.png,left_arrow.png,left_arrow.png,left_arrow.png,left_arrow.png,,,,,0,5,5,0,,,,,,,,,,,,,216.7205690000119,None,,,,,,,,,,,,,,,,,,,,,,,,,,,,,,217.73427120000997,None,217.73427120000997,None,217.73427120000997,None,217.73427120000997,None,217.73427120000997,None,217.73427120000997,None,217.73427120000997,None,a,1,0.8320117000112077,217.73427120000997,None,,,,,,,,,,,,,19,001,2022_Oct_20_1208,Flanker,2021.2.0,241.3290472790248,
neutral right,0,k,neutral.png,neutral.png,neutral.png,right_arrow.png,neutral.png,neutral.png,neutral.png,,,,,1,0,6,5,,,,,,,,,,,,,218.58505150000565,None,,,,,,,,,,,,,,,,,,,,,,,,,,,,,,219.598633600006,None,219.598633600006,None,219.598633600006,None,219.598633600006,None,219.598633600006,None,219.598633600006,None,219.598633600006,None,k,1,1.2239696999895386,219.598633600006,None,,,,,,,,,,,,,19,001,2022_Oct_20_1208,Flanker,2021.2.0,241.3290472790248,
neutral left,0,a,neutral.png,neutral.png,neutral.png,left_arrow.png,neutral.png,neutral.png,neutral.png,,,,,1,1,7,4,,,,,,,,,,,,,220.8416123000061,None,,,,,,,,,,,,,,,,,,,,,,,,,,,,,,221.85517600001185,None,221.85517600001185,None,221.85517600001185,None,221.85517600001185,None,221.85517600001185,None,221.85517600001185,None,221.85517600001185,None,a,1,0.9997110000113025,221.85517600001185,None,,,,,,,,,,,,,19,001,2022_Oct_20_1208,Flanker,2021.2.0,241.3290472790248,
congruent-left.jpg,1,a,left_arrow.png,left_arrow.png,left_arrow.png,left_arrow.png,left_arrow.png,left_arrow.png,left_arrow.png,,,,,1,2,8,0,,,,,,,,,,,,,222.8729364000028,None,,,,,,,,,,,,,,,,,,,,,,,,,,,,,,223.88231690000976,None,223.88231690000976,None,223.88231690000976,None,223.88231690000976,None,223.88231690000976,None,223.88231690000976,None,223.88231690000976,None,a,1,0.9808448000112548,223.88231690000976,None,,,,,,,,,,,,,19,001,2022_Oct_20_1208,Flanker,2021.2.0,241.3290472790248,
neutral left,0,a,neutral.png,neutral.png,neutral.png,left_arrow.png,neutral.png,neutral.png,neutral.png,,,,,1,3,9,4,,,,,,,,,,,,,224.87504470000567,None,,,,,,,,,,,,,,,,,,,,,,,,,,,,,,225.88445420000062,None,225.88445420000062,None,225.88445420000062,None,225.88445420000062,None,225.88445420000062,None,225.88445420000062,None,225.88445420000062,None,a,1,0.7469199000042863,225.88445420000062,None,,,,,,,,,,,,,19,001,2022_Oct_20_1208,Flanker,2021.2.0,241.3290472790248,
neutral left,0,a,neutral.png,neutral.png,neutral.png,left_arrow.png,neutral.png,neutral.png,neutral.png,,,,,1,4,10,4,,,,,,,,,,,,,226.64384200000495,None,,,,,,,,,,,,,,,,,,,,,,,,,,,,,,227.65716490001068,None,227.65716490001068,None,227.65716490001068,None,227.65716490001068,None,227.65716490001068,None,227.65716490001068,None,227.65716490001068,None,a,1,0.5344677999964915,227.65716490001068,None,,,,,,,,,,,,,19,001,2022_Oct_20_1208,Flanker,2021.2.0,241.3290472790248,
incongruent-left.jpg,0,a,right_arrow.png,right_arrow.png,right_arrow.png,left_arrow.png,right_arrow.png,right_arrow.png,right_arrow.png,,,,,1,5,11,1,,,,,,,,,,,,,228.2079078000097,None,,,,,,,,,,,,,,,,,,,,,,,,,,,,,,229.22142780000286,None,229.22142780000286,None,229.22142780000286,None,229.22142780000286,None,229.22142780000286,None,229.22142780000286,None,229.22142780000286,None,a,1,1.298529799998505,229.22142780000286,None,,,,,,,,,,,,,19,001,2022_Oct_20_1208,Flanker,2021.2.0,241.3290472790248,
incongruent-right.jpg,0,k,left_arrow.png,left_arrow.png,left_arrow.png,right_arrow.png,left_arrow.png,left_arrow.png,left_arrow.png,,,,,2,0,12,3,,,,,,,,,,,,,230.5310382000025,None,,,,,,,,,,,,,,,,,,,,,,,,,,,,,,231.5404364999995,None,231.5404364999995,None,231.5404364999995,None,231.5404364999995,None,231.5404364999995,None,231.5404364999995,None,231.5404364999995,None,k,1,1.2678206999989925,231.5404364999995,None,,,,,,,,,,,,,19,001,2022_Oct_20_1208,Flanker,2021.2.0,241.3290472790248,
congruent-right.jpg,1,k,right_arrow.png,right_arrow.png,right_arrow.png,right_arrow.png,right_arrow.png,right_arrow.png,right_arrow.png,,,,,2,1,13,2,,,,,,,,,,,,,232.82514790000278,None,,,,,,,,,,,,,,,,,,,,,,,,,,,,,,233.834726400004,None,233.834726400004,None,233.834726400004,None,233.834726400004,None,233.834726400004,None,233.834726400004,None,233.834726400004,None,k,1,1.317866999990656,233.834726400004,None,,,,,,,,,,,,,19,001,2022_Oct_20_1208,Flanker,2021.2.0,241.3290472790248,
incongruent-left.jpg,0,a,right_arrow.png,right_arrow.png,right_arrow.png,left_arrow.png,right_arrow.png,right_arrow.png,right_arrow.png,,,,,2,2,14,1,,,,,,,,,,,,,235.16933090001112,None,,,,,,,,,,,,,,,,,,,,,,,,,,,,,,236.17873020000116,None,236.17873020000116,None,236.17873020000116,None,236.17873020000116,None,236.17873020000116,None,236.17873020000116,None,236.17873020000116,None,a,1,0.5180466000019806,236.17873020000116,None,,,,,,,,,,,,,19,001,2022_Oct_20_1208,Flanker,2021.2.0,241.3290472790248,
neutral left,0,a,neutral.png,neutral.png,neutral.png,left_arrow.png,neutral.png,neutral.png,neutral.png,,,,,2,3,15,4,,,,,,,,,,,,,236.7128459000087,None,,,,,,,,,,,,,,,,,,,,,,,,,,,,,,237.72619169999962,None,237.72619169999962,None,237.72619169999962,None,237.72619169999962,None,237.72619169999962,None,237.72619169999962,None,237.72619169999962,None,a,1,0.5948367999953916,237.72619169999962,None,,,,,,,,,,,,,19,001,2022_Oct_20_1208,Flanker,2021.2.0,241.3290472790248,
neutral right,0,k,neutral.png,neutral.png,neutral.png,right_arrow.png,neutral.png,neutral.png,neutral.png,,,,,2,4,16,5,,,,,,,,,,,,,238.3351696000027,None,,,,,,,,,,,,,,,,,,,,,,,,,,,,,,239.3448255000112,None,239.3448255000112,None,239.3448255000112,None,239.3448255000112,None,239.3448255000112,None,239.3448255000112,None,239.3448255000112,None,k,1,1.224523600001703,239.3448255000112,None,,,,,,,,,,,,,19,001,2022_Oct_20_1208,Flanker,2021.2.0,241.3290472790248,
incongruent-right.jpg,0,k,left_arrow.png,left_arrow.png,left_arrow.png,right_arrow.png,left_arrow.png,left_arrow.png,left_arrow.png,,,,,2,5,17,3,,,,,,,,,,,,,240.58757360000163,None,,,,,,,,,,,,,,,,,,,,,,,,,,,,,,241.60114470000553,None,241.60114470000553,None,241.60114470000553,None,241.60114470000553,None,241.60114470000553,None,241.60114470000553,None,241.60114470000553,None,k,1,0.6564006000116933,241.60114470000553,None,,,,,,,,,,,,,19,001,2022_Oct_20_1208,Flanker,2021.2.0,241.3290472790248,
congruent-right.jpg,1,k,right_arrow.png,right_arrow.png,right_arrow.png,right_arrow.png,right_arrow.png,right_arrow.png,right_arrow.png,,,,,3,0,18,2,,,,,,,,,,,,,242.26853260000644,None,,,,,,,,,,,,,,,,,,,,,,,,,,,,,,243.28208770000492,None,243.28208770000492,None,243.28208770000492,None,243.28208770000492,None,243.28208770000492,None,243.28208770000492,None,243.28208770000492,None,k,1,0.6078558000008343,243.28208770000492,None,,,,,,,,,,,,,19,001,2022_Oct_20_1208,Flanker,2021.2.0,241.3290472790248,
neutral right,0,k,neutral.png,neutral.png,neutral.png,right_arrow.png,neutral.png,neutral.png,neutral.png,,,,,3,1,19,5,,,,,,,,,,,,,243.90789830000722,None,,,,,,,,,,,,,,,,,,,,,,,,,,,,,,244.92146080000384,None,244.92146080000384,None,244.92146080000384,None,244.92146080000384,None,244.92146080000384,None,244.92146080000384,None,244.92146080000384,None,k,1,0.6166763999935938,244.92146080000384,None,,,,,,,,,,,,,19,001,2022_Oct_20_1208,Flanker,2021.2.0,241.3290472790248,
incongruent-left.jpg,0,a,right_arrow.png,right_arrow.png,right_arrow.png,left_arrow.png,right_arrow.png,right_arrow.png,right_arrow.png,,,,,3,2,20,1,,,,,,,,,,,,,245.5554806,None,,,,,,,,,,,,,,,,,,,,,,,,,,,,,,246.56890720000956,None,246.56890720000956,None,246.56890720000956,None,246.56890720000956,None,246.56890720000956,None,246.56890720000956,None,246.56890720000956,None,a,1,0.9296286000026157,246.56890720000956,None,,,,,,,,,,,,,19,001,2022_Oct_20_1208,Flanker,2021.2.0,241.3290472790248,
congruent-left.jpg,1,a,left_arrow.png,left_arrow.png,left_arrow.png,left_arrow.png,left_arrow.png,left_arrow.png,left_arrow.png,,,,,3,3,21,0,,,,,,,,,,,,,247.51181910000741,None,,,,,,,,,,,,,,,,,,,,,,,,,,,,,,248.52530380000826,None,248.52530380000826,None,248.52530380000826,None,248.52530380000826,None,248.52530380000826,None,248.52530380000826,None,248.52530380000826,None,a,1,0.6612592000019504,248.52530380000826,None,,,,,,,,,,,,,19,001,2022_Oct_20_1208,Flanker,2021.2.0,241.3290472790248,
incongruent-right.jpg,0,k,left_arrow.png,left_arrow.png,left_arrow.png,right_arrow.png,left_arrow.png,left_arrow.png,left_arrow.png,,,,,3,4,22,3,,,,,,,,,,,,,249.20103590001236,None,,,,,,,,,,,,,,,,,,,,,,,,,,,,,,250.218678300007,None,250.218678300007,None,250.218678300007,None,250.218678300007,None,250.218678300007,None,250.218678300007,None,250.218678300007,None,k,1,0.6480785000021569,250.218678300007,None,,,,,,,,,,,,,19,001,2022_Oct_20_1208,Flanker,2021.2.0,241.3290472790248,
congruent-left.jpg,1,a,left_arrow.png,left_arrow.png,left_arrow.png,left_arrow.png,left_arrow.png,left_arrow.png,left_arrow.png,,,,,3,5,23,0,,,,,,,,,,,,,250.88619840001047,None,,,,,,,,,,,,,,,,,,,,,,,,,,,,,,251.89554020001378,None,251.89554020001378,None,251.89554020001378,None,251.89554020001378,None,251.89554020001378,None,251.89554020001378,None,251.89554020001378,None,a,1,0.8676329000008991,251.89554020001378,None,,,,,,,,,,,,,19,001,2022_Oct_20_1208,Flanker,2021.2.0,241.3290472790248,
congruent-right.jpg,1,k,right_arrow.png,right_arrow.png,right_arrow.png,right_arrow.png,right_arrow.png,right_arrow.png,right_arrow.png,,,,,4,0,24,2,,,,,,,,,,,,,252.77995270000247,None,,,,,,,,,,,,,,,,,,,,,,,,,,,,,,253.79353090000222,None,253.79353090000222,None,253.79353090000222,None,253.79353090000222,None,253.79353090000222,None,253.79353090000222,None,253.79353090000222,None,k,1,0.8098636999930022,253.79353090000222,None,,,,,,,,,,,,,19,001,2022_Oct_20_1208,Flanker,2021.2.0,241.3290472790248,
congruent-right.jpg,1,k,right_arrow.png,right_arrow.png,right_arrow.png,right_arrow.png,right_arrow.png,right_arrow.png,right_arrow.png,,,,,4,1,25,2,,,,,,,,,,,,,254.61927910000668,None,,,,,,,,,,,,,,,,,,,,,,,,,,,,,,255.6370004000055,None,255.6370004000055,None,255.6370004000055,None,255.6370004000055,None,255.6370004000055,None,255.6370004000055,None,255.6370004000055,None,k,1,0.5344742000015685,255.6370004000055,None,,,,,,,,,,,,,19,001,2022_Oct_20_1208,Flanker,2021.2.0,241.3290472790248,
neutral right,0,k,neutral.png,neutral.png,neutral.png,right_arrow.png,neutral.png,neutral.png,neutral.png,,,,,4,2,26,5,,,,,,,,,,,,,256.18760080001084,None,,,,,,,,,,,,,,,,,,,,,,,,,,,,,,257.2054904000106,None,257.2054904000106,None,257.2054904000106,None,257.2054904000106,None,257.2054904000106,None,257.2054904000106,None,257.2054904000106,None,k,1,0.6542853999999352,257.2054904000106,None,,,,,,,,,,,,,19,001,2022_Oct_20_1208,Flanker,2021.2.0,241.3290472790248,
congruent-right.jpg,1,k,right_arrow.png,right_arrow.png,right_arrow.png,right_arrow.png,right_arrow.png,right_arrow.png,right_arrow.png,,,,,4,3,27,2,,,,,,,,,,,,,257.8727343000064,None,,,,,,,,,,,,,,,,,,,,,,,,,,,,,,258.8904889000114,None,258.8904889000114,None,258.8904889000114,None,258.8904889000114,None,258.8904889000114,None,258.8904889000114,None,258.8904889000114,None,k,1,0.865450500001316,258.8904889000114,None,,,,,,,,,,,,,19,001,2022_Oct_20_1208,Flanker,2021.2.0,241.3290472790248,
neutral left,0,a,neutral.png,neutral.png,neutral.png,left_arrow.png,neutral.png,neutral.png,neutral.png,,,,,4,4,28,4,,,,,,,,,,,,,259.77461540000513,None,,,,,,,,,,,,,,,,,,,,,,,,,,,,,,260.78424820001237,None,260.78424820001237,None,260.78424820001237,None,260.78424820001237,None,260.78424820001237,None,260.78424820001237,None,260.78424820001237,None,a,1,0.5879134999995586,260.78424820001237,None,,,,,,,,,,,,,19,001,2022_Oct_20_1208,Flanker,2021.2.0,241.3290472790248,
incongruent-left.jpg,0,a,right_arrow.png,right_arrow.png,right_arrow.png,left_arrow.png,right_arrow.png,right_arrow.png,right_arrow.png,,,,,4,5,29,1,,,,,,,,,,,,,261.38488090000465,None,,,,,,,,,,,,,,,,,,,,,,,,,,,,,,262.4025495000096,None,262.4025495000096,None,262.4025495000096,None,262.4025495000096,None,262.4025495000096,None,262.4025495000096,None,262.4025495000096,None,a,1,0.5459558000002289,262.4025495000096,None,,,,,,,,,,,,,19,001,2022_Oct_20_1208,Flanker,2021.2.0,241.3290472790248,
incongruent-right.jpg,0,k,left_arrow.png,left_arrow.png,left_arrow.png,right_arrow.png,left_arrow.png,left_arrow.png,left_arrow.png,,,,,5,0,30,3,,,,,,,,,,,,,262.96145650000835,None,,,,,,,,,,,,,,,,,,,,,,,,,,,,,,263.97087509999983,None,263.97087509999983,None,263.97087509999983,None,263.97087509999983,None,263.97087509999983,None,263.97087509999983,None,263.97087509999983,None,k,1,0.6177336999971885,263.97087509999983,None,,,,,,,,,,,,,19,001,2022_Oct_20_1208,Flanker,2021.2.0,241.3290472790248,
neutral left,0,a,neutral.png,neutral.png,neutral.png,left_arrow.png,neutral.png,neutral.png,neutral.png,,,,,5,1,31,4,,,,,,,,,,,,,264.6048123000073,None,,,,,,,,,,,,,,,,,,,,,,,,,,,,,,265.6184568000026,None,265.6184568000026,None,265.6184568000026,None,265.6184568000026,None,265.6184568000026,None,265.6184568000026,None,265.6184568000026,None,a,1,0.658700800006045,265.6184568000026,None,,,,,,,,,,,,,19,001,2022_Oct_20_1208,Flanker,2021.2.0,241.3290472790248,
neutral right,0,k,neutral.png,neutral.png,neutral.png,right_arrow.png,neutral.png,neutral.png,neutral.png,,,,,5,2,32,5,,,,,,,,,,,,,266.2942250000051,None,,,,,,,,,,,,,,,,,,,,,,,,,,,,,,267.2995593000087,None,267.2995593000087,None,267.2995593000087,None,267.2995593000087,None,267.2995593000087,None,267.2995593000087,None,267.2995593000087,None,k,1,1.281631500009098,267.2995593000087,None,,,,,,,,,,,,,19,001,2022_Oct_20_1208,Flanker,2021.2.0,241.3290472790248,
incongruent-left.jpg,0,a,right_arrow.png,right_arrow.png,right_arrow.png,left_arrow.png,right_arrow.png,right_arrow.png,right_arrow.png,,,,,5,3,33,1,,,,,,,,,,,,,268.5925838000112,None,,,,,,,,,,,,,,,,,,,,,,,,,,,,,,269.61007110000355,None,269.61007110000355,None,269.61007110000355,None,269.61007110000355,None,269.61007110000355,None,269.61007110000355,None,269.61007110000355,None,a,1,1.1474538999900687,269.61007110000355,None,,,,,,,,,,,,,19,001,2022_Oct_20_1208,Flanker,2021.2.0,241.3290472790248,
congruent-left.jpg,1,a,left_arrow.png,left_arrow.png,left_arrow.png,left_arrow.png,left_arrow.png,left_arrow.png,left_arrow.png,,,,,5,4,34,0,,,,,,,,,,,,,270.76975120000134,None,,,,,,,,,,,,,,,,,,,,,,,,,,,,,,271.7791709000012,None,271.7791709000012,None,271.7791709000012,None,271.7791709000012,None,271.7791709000012,None,271.7791709000012,None,271.7791709000012,None,a,1,0.9548400999919977,271.7791709000012,None,,,,,,,,,,,,,19,001,2022_Oct_20_1208,Flanker,2021.2.0,241.3290472790248,
incongruent-right.jpg,0,k,left_arrow.png,left_arrow.png,left_arrow.png,right_arrow.png,left_arrow.png,left_arrow.png,left_arrow.png,,,,,5,5,35,3,,,,,,,,,,,,,272.7469906000042,None,,,,,,,,,,,,,,,,,,,,,,,,,,,,,,273.7646156000119,None,273.7646156000119,None,273.7646156000119,None,273.7646156000119,None,273.7646156000119,None,273.7646156000119,None,273.7646156000119,None,k,1,0.5853675000107614,273.7646156000119,None,,,,,,,,,,,,,19,001,2022_Oct_20_1208,Flanker,2021.2.0,241.3290472790248,
incongruent-left.jpg,0,a,right_arrow.png,right_arrow.png,right_arrow.png,left_arrow.png,right_arrow.png,right_arrow.png,right_arrow.png,,,,,6,0,36,1,,,,,,,,,,,,,274.3652400000137,None,,,,,,,,,,,,,,,,,,,,,,,,,,,,,,275.37869660000433,None,275.37869660000433,None,275.37869660000433,None,275.37869660000433,None,275.37869660000433,None,275.37869660000433,None,275.37869660000433,None,a,1,0.49163319999934174,275.37869660000433,None,,,,,,,,,,,,,19,001,2022_Oct_20_1208,Flanker,2021.2.0,241.3290472790248,
neutral right,0,k,neutral.png,neutral.png,neutral.png,right_arrow.png,neutral.png,neutral.png,neutral.png,,,,,6,1,37,5,,,,,,,,,,,,,275.88785110000754,None,,,,,,,,,,,,,,,,,,,,,,,,,,,,,,276.9012892000028,None,276.9012892000028,None,276.9012892000028,None,276.9012892000028,None,276.9012892000028,None,276.9012892000028,None,276.9012892000028,None,k,1,0.5131306999974186,276.9012892000028,None,,,,,,,,,,,,,19,001,2022_Oct_20_1208,Flanker,2021.2.0,241.3290472790248,
congruent-left.jpg,1,a,left_arrow.png,left_arrow.png,left_arrow.png,left_arrow.png,left_arrow.png,left_arrow.png,left_arrow.png,,,,,6,2,38,0,,,,,,,,,,,,,277.42680430000473,None,,,,,,,,,,,,,,,,,,,,,,,,,,,,,,278.43621900001017,None,278.43621900001017,None,278.43621900001017,None,278.43621900001017,None,278.43621900001017,None,278.43621900001017,None,278.43621900001017,None,a,1,0.6505405000061728,278.43621900001017,None,,,,,,,,,,,,,19,001,2022_Oct_20_1208,Flanker,2021.2.0,241.3290472790248,
congruent-right.jpg,1,k,right_arrow.png,right_arrow.png,right_arrow.png,right_arrow.png,right_arrow.png,right_arrow.png,right_arrow.png,,,,,6,3,39,2,,,,,,,,,,,,,279.1036279000109,None,,,,,,,,,,,,,,,,,,,,,,,,,,,,,,280.11299360000703,None,280.11299360000703,None,280.11299360000703,None,280.11299360000703,None,280.11299360000703,None,280.11299360000703,None,280.11299360000703,None,k,1,0.8460378000017954,280.11299360000703,None,,,,,,,,,,,,,19,001,2022_Oct_20_1208,Flanker,2021.2.0,241.3290472790248,
neutral right,0,k,neutral.png,neutral.png,neutral.png,right_arrow.png,neutral.png,neutral.png,neutral.png,,,,,6,4,40,5,,,,,,,,,,,,,280.97234970000864,None,,,,,,,,,,,,,,,,,,,,,,,,,,,,,,281.9815406000125,None,281.9815406000125,None,281.9815406000125,None,281.9815406000125,None,281.9815406000125,None,281.9815406000125,None,281.9815406000125,None,k,1,0.7296715999982553,281.9815406000125,None,,,,,,,,,,,,,19,001,2022_Oct_20_1208,Flanker,2021.2.0,241.3290472790248,
incongruent-left.jpg,0,a,right_arrow.png,right_arrow.png,right_arrow.png,left_arrow.png,right_arrow.png,right_arrow.png,right_arrow.png,,,,,6,5,41,1,,,,,,,,,,,,,282.7241245000041,None,,,,,,,,,,,,,,,,,,,,,,,,,,,,,,283.7336127000017,None,283.7336127000017,None,283.7336127000017,None,283.7336127000017,None,283.7336127000017,None,283.7336127000017,None,283.7336127000017,None,a,1,0.5940314000035869,283.7336127000017,None,,,,,,,,,,,,,19,001,2022_Oct_20_1208,Flanker,2021.2.0,241.3290472790248,
neutral left,0,a,neutral.png,neutral.png,neutral.png,left_arrow.png,neutral.png,neutral.png,neutral.png,,,,,7,0,42,4,,,,,,,,,,,,,284.34252210000705,None,,,,,,,,,,,,,,,,,,,,,,,,,,,,,,285.3560634000023,None,285.3560634000023,None,285.3560634000023,None,285.3560634000023,None,285.3560634000023,None,285.3560634000023,None,285.3560634000023,None,a,1,0.5314978999958839,285.3560634000023,None,,,,,,,,,,,,,19,001,2022_Oct_20_1208,Flanker,2021.2.0,241.3290472790248,
congruent-right.jpg,1,k,right_arrow.png,right_arrow.png,right_arrow.png,right_arrow.png,right_arrow.png,right_arrow.png,right_arrow.png,,,,,7,1,43,2,,,,,,,,,,,,,285.90674740000395,None,,,,,,,,,,,,,,,,,,,,,,,,,,,,,,286.92031150001276,None,286.92031150001276,None,286.92031150001276,None,286.92031150001276,None,286.92031150001276,None,286.92031150001276,None,286.92031150001276,None,k,1,0.4794628000090597,286.92031150001276,None,,,,,,,,,,,,,19,001,2022_Oct_20_1208,Flanker,2021.2.0,241.3290472790248,
congruent-left.jpg,1,a,left_arrow.png,left_arrow.png,left_arrow.png,left_arrow.png,left_arrow.png,left_arrow.png,left_arrow.png,,,,,7,2,44,0,,,,,,,,,,,,,287.41251980001107,None,,,,,,,,,,,,,,,,,,,,,,,,,,,,,,288.4302316000103,None,288.4302316000103,None,288.4302316000103,None,288.4302316000103,None,288.4302316000103,None,288.4302316000103,None,288.4302316000103,None,a,1,0.6418963999894913,288.4302316000103,None,,,,,,,,,,,,,19,001,2022_Oct_20_1208,Flanker,2021.2.0,241.3290472790248,
incongruent-right.jpg,0,k,left_arrow.png,left_arrow.png,left_arrow.png,right_arrow.png,left_arrow.png,left_arrow.png,left_arrow.png,,,,,7,3,45,3,,,,,,,,,,,,,289.08931160000793,None,,,,,,,,,,,,,,,,,,,,,,,,,,,,,,290.0986198000028,None,290.0986198000028,None,290.0986198000028,None,290.0986198000028,None,290.0986198000028,None,290.0986198000028,None,290.0986198000028,None,k,1,0.5098591999994824,290.0986198000028,None,,,,,,,,,,,,,19,001,2022_Oct_20_1208,Flanker,2021.2.0,241.3290472790248,
neutral left,0,a,neutral.png,neutral.png,neutral.png,left_arrow.png,neutral.png,neutral.png,neutral.png,,,,,7,4,46,4,,,,,,,,,,,,,290.62417410001217,None,,,,,,,,,,,,,,,,,,,,,,,,,,,,,,291.6335844999994,None,291.6335844999994,None,291.6335844999994,None,291.6335844999994,None,291.6335844999994,None,291.6335844999994,None,291.6335844999994,None,a,1,0.37507609999738634,291.6335844999994,None,,,,,,,,,,,,,19,001,2022_Oct_20_1208,Flanker,2021.2.0,241.3290472790248,
incongruent-right.jpg,0,k,left_arrow.png,left_arrow.png,left_arrow.png,right_arrow.png,left_arrow.png,left_arrow.png,left_arrow.png,,,,,7,5,47,3,,,,,,,,,,,,,292.0256584000017,None,,,,,,,,,,,,,,,,,,,,,,,,,,,,,,293.03513800000655,None,293.03513800000655,None,293.03513800000655,None,293.03513800000655,None,293.03513800000655,None,293.03513800000655,None,293.03513800000655,None,k,1,0.47763839999970514,293.03513800000655,None,,,,,,,,,,,,,19,001,2022_Oct_20_1208,Flanker,2021.2.0,241.3290472790248,
,,,,,,,,,,,,,,,,,,,,,,,,,,,,,,,,,,,,,,,,,,,,,,,,,,,,,,,,,,,,,,,,,,,,,,,,,,,,,,,,293.5396221000119,None,space,8.206114000000525,293.5396221000119,None,,,,,,,19,001,2022_Oct_20_1208,Flanker,2021.2.0,241.3290472790248,
incongruent-left.jpg,0,a,right_arrow.png,right_arrow.png,right_arrow.png,left_arrow.png,right_arrow.png,right_arrow.png,right_arrow.png,,,,,,,,,0,0,0,1,,,,,,,,,301.7652500000113,None,,,,,,,,,,,,,,,,,,,,,,,,,,,,,,302.7704187000054,None,302.7704187000054,None,302.7704187000054,None,302.7704187000054,None,302.7704187000054,None,302.7704187000054,None,302.7704187000054,None,a,1,2.1679246999992756,302.7704187000054,None,,,,,,,,,,,,,19,001,2022_Oct_20_1208,Flanker,2021.2.0,241.3290472790248,
incongruent-left.jpg,0,a,right_arrow.png,right_arrow.png,right_arrow.png,left_arrow.png,right_arrow.png,right_arrow.png,right_arrow.png,,,,,,,,,0,1,1,1,,,,,,,,,304.95599159999983,None,,,,,,,,,,,,,,,,,,,,,,,,,,,,,,305.9696743000095,None,305.9696743000095,None,305.9696743000095,None,305.9696743000095,None,305.9696743000095,None,305.9696743000095,None,305.9696743000095,None,a,1,0.6008622000081232,305.9696743000095,None,,,,,,,,,,,,,19,001,2022_Oct_20_1208,Flanker,2021.2.0,241.3290472790248,
neutral right,0,k,neutral.png,neutral.png,neutral.png,right_arrow.png,neutral.png,neutral.png,neutral.png,,,,,,,,,0,2,2,5,,,,,,,,,306.5869440000097,None,,,,,,,,,,,,,,,,,,,,,,,,,,,,,,307.59621909999987,None,307.59621909999987,None,307.59621909999987,None,307.59621909999987,None,307.59621909999987,None,307.59621909999987,None,307.59621909999987,None,k,1,0.9424450999940746,307.59621909999987,None,,,,,,,,,,,,,19,001,2022_Oct_20_1208,Flanker,2021.2.0,241.3290472790248,
neutral left,0,a,neutral.png,neutral.png,neutral.png,left_arrow.png,neutral.png,neutral.png,neutral.png,,,,,,,,,0,3,3,4,,,,,,,,,308.5517087000044,None,,,,,,,,,,,,,,,,,,,,,,,,,,,,,,309.5651801000058,None,309.5651801000058,None,309.5651801000058,None,309.5651801000058,None,309.5651801000058,None,309.5651801000058,None,309.5651801000058,None,a,1,0.621672999986913,309.5651801000058,None,,,,,,,,,,,,,19,001,2022_Oct_20_1208,Flanker,2021.2.0,241.3290472790248,
congruent-left.jpg,1,a,left_arrow.png,left_arrow.png,left_arrow.png,left_arrow.png,left_arrow.png,left_arrow.png,left_arrow.png,,,,,,,,,0,4,4,0,,,,,,,,,310.1990669000079,None,,,,,,,,,,,,,,,,,,,,,,,,,,,,,,311.216957200013,None,311.216957200013,None,311.216957200013,None,311.216957200013,None,311.216957200013,None,311.216957200013,None,311.216957200013,None,a,1,0.6584093999990728,311.216957200013,None,,,,,,,,,,,,,19,001,2022_Oct_20_1208,Flanker,2021.2.0,241.3290472790248,
neutral right,0,k,neutral.png,neutral.png,neutral.png,right_arrow.png,neutral.png,neutral.png,neutral.png,,,,,,,,,0,5,5,5,,,,,,,,,311.89246220000496,None,,,,,,,,,,,,,,,,,,,,,,,,,,,,,,312.9063141000079,None,312.9063141000079,None,312.9063141000079,None,312.9063141000079,None,312.9063141000079,None,312.9063141000079,None,312.9063141000079,None,k,1,0.5930703999911202,312.9063141000079,None,,,,,,,,,,,,,19,001,2022_Oct_20_1208,Flanker,2021.2.0,241.3290472790248,
neutral left,0,a,neutral.png,neutral.png,neutral.png,left_arrow.png,neutral.png,neutral.png,neutral.png,,,,,,,,,1,0,6,4,,,,,,,,,313.51506370000425,None,,,,,,,,,,,,,,,,,,,,,,,,,,,,,,314.5245629000128,None,314.5245629000128,None,314.5245629000128,None,314.5245629000128,None,314.5245629000128,None,314.5245629000128,None,314.5245629000128,None,a,1,0.44696870000916533,314.5245629000128,None,,,,,,,,,,,,,19,001,2022_Oct_20_1208,Flanker,2021.2.0,241.3290472790248,
congruent-right.jpg,1,k,right_arrow.png,right_arrow.png,right_arrow.png,right_arrow.png,right_arrow.png,right_arrow.png,right_arrow.png,,,,,,,,,1,1,7,2,,,,,,,,,314.9833104000136,None,,,,,,,,,,,,,,,,,,,,,,,,,,,,,,315.9968951000046,None,315.9968951000046,None,315.9968951000046,None,315.9968951000046,None,315.9968951000046,None,315.9968951000046,None,315.9968951000046,None,k,1,0.5830188999971142,315.9968951000046,None,,,,,,,,,,,,,19,001,2022_Oct_20_1208,Flanker,2021.2.0,241.3290472790248,
incongruent-left.jpg,0,a,right_arrow.png,right_arrow.png,right_arrow.png,left_arrow.png,right_arrow.png,right_arrow.png,right_arrow.png,,,,,,,,,1,2,8,1,,,,,,,,,316.5974496000126,None,,,,,,,,,,,,,,,,,,,,,,,,,,,,,,317.6068471000035,None,317.6068471000035,None,317.6068471000035,None,317.6068471000035,None,317.6068471000035,None,317.6068471000035,None,317.6068471000035,None,a,1,0.8291842999897199,317.6068471000035,None,,,,,,,,,,,,,19,001,2022_Oct_20_1208,Flanker,2021.2.0,241.3290472790248,
neutral right,0,k,neutral.png,neutral.png,neutral.png,right_arrow.png,neutral.png,neutral.png,neutral.png,,,,,,,,,1,3,9,5,,,,,,,,,318.44949389999965,None,,,,,,,,,,,,,,,,,,,,,,,,,,,,,,319.4630088000122,None,319.4630088000122,None,319.4630088000122,None,319.4630088000122,None,319.4630088000122,None,319.4630088000122,None,319.4630088000122,None,k,1,0.5335046000109287,319.4630088000122,None,,,,,,,,,,,,,19,001,2022_Oct_20_1208,Flanker,2021.2.0,241.3290472790248,
incongruent-right.jpg,0,k,left_arrow.png,left_arrow.png,left_arrow.png,right_arrow.png,left_arrow.png,left_arrow.png,left_arrow.png,,,,,,,,,1,4,10,3,,,,,,,,,320.0135832000087,None,,,,,,,,,,,,,,,,,,,,,,,,,,,,,,321.0231896000041,None,321.0231896000041,None,321.0231896000041,None,321.0231896000041,None,321.0231896000041,None,321.0231896000041,None,321.0231896000041,None,k,1,0.8852863999927649,321.0231896000041,None,,,,,,,,,,,,,19,001,2022_Oct_20_1208,Flanker,2021.2.0,241.3290472790248,
incongruent-left.jpg,0,a,right_arrow.png,right_arrow.png,right_arrow.png,left_arrow.png,right_arrow.png,right_arrow.png,right_arrow.png,,,,,,,,,1,5,11,1,,,,,,,,,321.9239352000004,None,,,,,,,,,,,,,,,,,,,,,,,,,,,,,,322.93361880000157,None,322.93361880000157,None,322.93361880000157,None,322.93361880000157,None,322.93361880000157,None,322.93361880000157,None,322.93361880000157,None,a,1,0.8871609000052558,322.93361880000157,None,,,,,,,,,,,,,19,001,2022_Oct_20_1208,Flanker,2021.2.0,241.3290472790248,
congruent-left.jpg,1,a,left_arrow.png,left_arrow.png,left_arrow.png,left_arrow.png,left_arrow.png,left_arrow.png,left_arrow.png,,,,,,,,,2,0,12,0,,,,,,,,,323.83430560000124,None,,,,,,,,,,,,,,,,,,,,,,,,,,,,,,324.84789220000675,None,324.84789220000675,None,324.84789220000675,None,324.84789220000675,None,324.84789220000675,None,324.84789220000675,None,324.84789220000675,None,a,1,0.7491149999987101,324.84789220000675,None,,,,,,,,,,,,,19,001,2022_Oct_20_1208,Flanker,2021.2.0,241.3290472790248,
congruent-right.jpg,1,k,right_arrow.png,right_arrow.png,right_arrow.png,right_arrow.png,right_arrow.png,right_arrow.png,right_arrow.png,,,,,,,,,2,1,13,2,,,,,,,,,325.61534800000663,None,,,,,,,,,,,,,,,,,,,,,,,,,,,,,,326.6247357000102,None,326.6247357000102,None,326.6247357000102,None,326.6247357000102,None,326.6247357000102,None,326.6247357000102,None,326.6247357000102,None,k,1,1.1246752999868477,326.6247357000102,None,,,,,,,,,,,,,19,001,2022_Oct_20_1208,Flanker,2021.2.0,241.3290472790248,
neutral right,0,k,neutral.png,neutral.png,neutral.png,right_arrow.png,neutral.png,neutral.png,neutral.png,,,,,,,,,2,2,14,5,,,,,,,,,327.7676680000004,None,,,,,,,,,,,,,,,,,,,,,,,,,,,,,,328.78128120000474,None,328.78128120000474,None,328.78128120000474,None,328.78128120000474,None,328.78128120000474,None,328.78128120000474,None,328.78128120000474,None,k,1,0.7202911999920616,328.78128120000474,None,,,,,,,,,,,,,19,001,2022_Oct_20_1208,Flanker,2021.2.0,241.3290472790248,
neutral left,0,a,neutral.png,neutral.png,neutral.png,left_arrow.png,neutral.png,neutral.png,neutral.png,,,,,,,,,2,3,15,4,,,,,,,,,329.51533150000614,None,,,,,,,,,,,,,,,,,,,,,,,,,,,,,,330.53321010000946,None,330.53321010000946,None,330.53321010000946,None,330.53321010000946,None,330.53321010000946,None,330.53321010000946,None,330.53321010000946,None,a,1,0.7285788000008324,330.53321010000946,None,,,,,,,,,,,,,19,001,2022_Oct_20_1208,Flanker,2021.2.0,241.3290472790248,
congruent-left.jpg,1,a,left_arrow.png,left_arrow.png,left_arrow.png,left_arrow.png,left_arrow.png,left_arrow.png,left_arrow.png,,,,,,,,,2,4,16,0,,,,,,,,,331.27558910001244,None,,,,,,,,,,,,,,,,,,,,,,,,,,,,,,332.2892724000121,None,332.2892724000121,None,332.2892724000121,None,332.2892724000121,None,332.2892724000121,None,332.2892724000121,None,332.2892724000121,None,a,1,0.5726924000045983,332.2892724000121,None,,,,,,,,,,,,,19,001,2022_Oct_20_1208,Flanker,2021.2.0,241.3290472790248,
incongruent-right.jpg,0,k,left_arrow.png,left_arrow.png,left_arrow.png,right_arrow.png,left_arrow.png,left_arrow.png,left_arrow.png,,,,,,,,,2,5,17,3,,,,,,,,,332.87306500000705,None,,,,,,,,,,,,,,,,,,,,,,,,,,,,,,333.89119870000286,None,333.89119870000286,None,333.89119870000286,None,333.89119870000286,None,333.89119870000286,None,333.89119870000286,None,333.89119870000286,None,k,1,0.931072099992889,333.89119870000286,None,,,,,,,,,,,,,19,001,2022_Oct_20_1208,Flanker,2021.2.0,241.3290472790248,
congruent-right.jpg,1,k,right_arrow.png,right_arrow.png,right_arrow.png,right_arrow.png,right_arrow.png,right_arrow.png,right_arrow.png,,,,,,,,,3,0,18,2,,,,,,,,,334.8421429000009,None,,,,,,,,,,,,,,,,,,,,,,,,,,,,,,335.8513680000033,None,335.8513680000033,None,335.8513680000033,None,335.8513680000033,None,335.8513680000033,None,335.8513680000033,None,335.8513680000033,None,k,1,0.7631079999991925,335.8513680000033,None,,,,,,,,,,,,,19,001,2022_Oct_20_1208,Flanker,2021.2.0,241.3290472790248,
incongruent-right.jpg,0,k,left_arrow.png,left_arrow.png,left_arrow.png,right_arrow.png,left_arrow.png,left_arrow.png,left_arrow.png,,,,,,,,,3,1,19,3,,,,,,,,,336.6270599000127,None,,,,,,,,,,,,,,,,,,,,,,,,,,,,,,337.6366352000041,None,337.6366352000041,None,337.6366352000041,None,337.6366352000041,None,337.6366352000041,None,337.6366352000041,None,337.6366352000041,None,k,1,0.8181299999996554,337.6366352000041,None,,,,,,,,,,,,,19,001,2022_Oct_20_1208,Flanker,2021.2.0,241.3290472790248,
neutral left,0,a,neutral.png,neutral.png,neutral.png,left_arrow.png,neutral.png,neutral.png,neutral.png,,,,,,,,,3,2,20,4,,,,,,,,,338.4706784000009,None,,,,,,,,,,,,,,,,,,,,,,,,,,,,,,339.48021620001236,None,339.48021620001236,None,339.48021620001236,None,339.48021620001236,None,339.48021620001236,None,339.48021620001236,None,339.48021620001236,None,a,1,0.7829207000031602,339.48021620001236,None,,,,,,,,,,,,,19,001,2022_Oct_20_1208,Flanker,2021.2.0,241.3290472790248,
congruent-right.jpg,1,k,right_arrow.png,right_arrow.png,right_arrow.png,right_arrow.png,right_arrow.png,right_arrow.png,right_arrow.png,,,,,,,,,3,3,21,2,,,,,,,,,340.2809413000068,None,,,,,,,,,,,,,,,,,,,,,,,,,,,,,,341.2904739000078,None,341.2904739000078,None,341.2904739000078,None,341.2904739000078,None,341.2904739000078,None,341.2904739000078,None,341.2904739000078,None,k,1,0.9728095999889774,341.2904739000078,None,,,,,,,,,,,,,19,001,2022_Oct_20_1208,Flanker,2021.2.0,241.3290472790248,
neutral left,0,a,neutral.png,neutral.png,neutral.png,left_arrow.png,neutral.png,neutral.png,neutral.png,,,,,,,,,3,4,22,4,,,,,,,,,342.27471520000836,None,,,,,,,,,,,,,,,,,,,,,,,,,,,,,,343.2882917000097,None,343.2882917000097,None,343.2882917000097,None,343.2882917000097,None,343.2882917000097,None,343.2882917000097,None,343.2882917000097,None,a,1,0.455196299997624,343.2882917000097,None,,,,,,,,,,,,,19,001,2022_Oct_20_1208,Flanker,2021.2.0,241.3290472790248,
incongruent-left.jpg,0,a,right_arrow.png,right_arrow.png,right_arrow.png,left_arrow.png,right_arrow.png,right_arrow.png,right_arrow.png,,,,,,,,,3,5,23,1,,,,,,,,,343.75546210000175,None,,,,,,,,,,,,,,,,,,,,,,,,,,,,,,344.7690247000137,None,344.7690247000137,None,344.7690247000137,None,344.7690247000137,None,344.7690247000137,None,344.7690247000137,None,344.7690247000137,None,a,1,0.8866887000040151,344.7690247000137,None,,,,,,,,,,,,,19,001,2022_Oct_20_1208,Flanker,2021.2.0,241.3290472790248,
incongruent-left.jpg,0,a,right_arrow.png,right_arrow.png,right_arrow.png,left_arrow.png,right_arrow.png,right_arrow.png,right_arrow.png,,,,,,,,,4,0,24,1,,,,,,,,,345.66999880000367,None,,,,,,,,,,,,,,,,,,,,,,,,,,,,,,346.6835369000037,None,346.6835369000037,None,346.6835369000037,None,346.6835369000037,None,346.6835369000037,None,346.6835369000037,None,346.6835369000037,None,a,1,0.6844829999899957,346.6835369000037,None,,,,,,,,,,,,,19,001,2022_Oct_20_1208,Flanker,2021.2.0,241.3290472790248,
incongruent-right.jpg,0,k,left_arrow.png,left_arrow.png,left_arrow.png,right_arrow.png,left_arrow.png,left_arrow.png,left_arrow.png,,,,,,,,,4,1,25,3,,,,,,,,,347.3843230000057,None,,,,,,,,,,,,,,,,,,,,,,,,,,,,,,348.3980663000111,None,348.3980663000111,None,348.3980663000111,None,348.3980663000111,None,348.3980663000111,None,348.3980663000111,None,348.3980663000111,None,k,1,1.0102094000030775,348.3980663000111,None,,,,,,,,,,,,,19,001,2022_Oct_20_1208,Flanker,2021.2.0,241.3290472790248,
neutral right,0,k,neutral.png,neutral.png,neutral.png,right_arrow.png,neutral.png,neutral.png,neutral.png,,,,,,,,,4,2,26,5,,,,,,,,,349.4239821000083,None,,,,,,,,,,,,,,,,,,,,,,,,,,,,,,350.43768740000087,None,350.43768740000087,None,350.43768740000087,None,350.43768740000087,None,350.43768740000087,None,350.43768740000087,None,350.43768740000087,None,k,1,0.6988293999893358,350.43768740000087,None,,,,,,,,,,,,,19,001,2022_Oct_20_1208,Flanker,2021.2.0,241.3290472790248,
incongruent-right.jpg,0,k,left_arrow.png,left_arrow.png,left_arrow.png,right_arrow.png,left_arrow.png,left_arrow.png,left_arrow.png,,,,,,,,,4,3,27,3,,,,,,,,,351.1552512000053,None,,,,,,,,,,,,,,,,,,,,,,,,,,,,,,352.1687677000009,None,352.1687677000009,None,352.1687677000009,None,352.1687677000009,None,352.1687677000009,None,352.1687677000009,None,352.1687677000009,None,k,1,0.7199642999912612,352.1687677000009,None,,,,,,,,,,,,,19,001,2022_Oct_20_1208,Flanker,2021.2.0,241.3290472790248,
congruent-left.jpg,1,a,left_arrow.png,left_arrow.png,left_arrow.png,left_arrow.png,left_arrow.png,left_arrow.png,left_arrow.png,,,,,,,,,4,4,28,0,,,,,,,,,352.9027411000134,None,,,,,,,,,,,,,,,,,,,,,,,,,,,,,,353.91621960001066,None,353.91621960001066,None,353.91621960001066,None,353.91621960001066,None,353.91621960001066,None,353.91621960001066,None,353.91621960001066,None,a,1,0.7807309000054374,353.91621960001066,None,,,,,,,,,,,,,19,001,2022_Oct_20_1208,Flanker,2021.2.0,241.3290472790248,
neutral right,0,k,neutral.png,neutral.png,neutral.png,right_arrow.png,neutral.png,neutral.png,neutral.png,,,,,,,,,4,5,29,5,,,,,,,,,354.7087455000001,None,,,,,,,,,,,,,,,,,,,,,,,,,,,,,,355.718463000012,None,355.718463000012,None,355.718463000012,None,355.718463000012,None,355.718463000012,None,355.718463000012,None,355.718463000012,None,k,1,0.6667904000059934,355.718463000012,None,,,,,,,,,,,,,19,001,2022_Oct_20_1208,Flanker,2021.2.0,241.3290472790248,
incongruent-left.jpg,0,a,right_arrow.png,right_arrow.png,right_arrow.png,left_arrow.png,right_arrow.png,right_arrow.png,right_arrow.png,,,,,,,,,5,0,30,1,,,,,,,,,356.4023073000135,None,,,,,,,,,,,,,,,,,,,,,,,,,,,,,,357.4159078000084,None,357.4159078000084,None,357.4159078000084,None,357.4159078000084,None,357.4159078000084,None,357.4159078000084,None,357.4159078000084,None,a,1,0.6576844000082929,357.4159078000084,None,,,,,,,,,,,,,19,001,2022_Oct_20_1208,Flanker,2021.2.0,241.3290472790248,
congruent-right.jpg,1,k,right_arrow.png,right_arrow.png,right_arrow.png,right_arrow.png,right_arrow.png,right_arrow.png,right_arrow.png,,,,,,,,,5,1,31,2,,,,,,,,,358.09151670000574,None,,,,,,,,,,,,,,,,,,,,,,,,,,,,,,359.10521270000027,None,359.10521270000027,None,359.10521270000027,None,359.10521270000027,None,359.10521270000027,None,359.10521270000027,None,359.10521270000027,None,k,1,0.46442210000532214,359.10521270000027,None,,,,,,,,,,,,,19,001,2022_Oct_20_1208,Flanker,2021.2.0,241.3290472790248,
neutral left,0,a,neutral.png,neutral.png,neutral.png,left_arrow.png,neutral.png,neutral.png,neutral.png,,,,,,,,,5,2,32,4,,,,,,,,,359.58058280000114,None,,,,,,,,,,,,,,,,,,,,,,,,,,,,,,360.5941681000113,None,360.5941681000113,None,360.5941681000113,None,360.5941681000113,None,360.5941681000113,None,360.5941681000113,None,360.5941681000113,None,a,1,0.40769919999002013,360.5941681000113,None,,,,,,,,,,,,,19,001,2022_Oct_20_1208,Flanker,2021.2.0,241.3290472790248,
congruent-left.jpg,1,a,left_arrow.png,left_arrow.png,left_arrow.png,left_arrow.png,left_arrow.png,left_arrow.png,left_arrow.png,,,,,,,,,5,3,33,0,,,,,,,,,361.0196195000026,None,,,,,,,,,,,,,,,,,,,,,,,,,,,,,,362.03345380000246,None,362.03345380000246,None,362.03345380000246,None,362.03345380000246,None,362.03345380000246,None,362.03345380000246,None,362.03345380000246,None,a,1,0.5206797999999253,362.03345380000246,None,,,,,,,,,,,,,19,001,2022_Oct_20_1208,Flanker,2021.2.0,241.3290472790248,
congruent-right.jpg,1,k,right_arrow.png,right_arrow.png,right_arrow.png,right_arrow.png,right_arrow.png,right_arrow.png,right_arrow.png,,,,,,,,,5,4,34,2,,,,,,,,,362.56718110000656,None,,,,,,,,,,,,,,,,,,,,,,,,,,,,,,363.5808047000028,None,363.5808047000028,None,363.5808047000028,None,363.5808047000028,None,363.5808047000028,None,363.5808047000028,None,363.5808047000028,None,k,1,0.39746229999582283,363.5808047000028,None,,,,,,,,,,,,,19,001,2022_Oct_20_1208,Flanker,2021.2.0,241.3290472790248,
neutral left,0,a,neutral.png,neutral.png,neutral.png,left_arrow.png,neutral.png,neutral.png,neutral.png,,,,,,,,,5,5,35,4,,,,,,,,,363.98944220000703,None,,,,,,,,,,,,,,,,,,,,,,,,,,,,,,364.9990758000058,None,364.9990758000058,None,364.9990758000058,None,364.9990758000058,None,364.9990758000058,None,364.9990758000058,None,364.9990758000058,None,a,1,0.6753994999889983,364.9990758000058,None,,,,,,,,,,,,,19,001,2022_Oct_20_1208,Flanker,2021.2.0,241.3290472790248,
congruent-right.jpg,1,k,right_arrow.png,right_arrow.png,right_arrow.png,right_arrow.png,right_arrow.png,right_arrow.png,right_arrow.png,,,,,,,,,6,0,36,2,,,,,,,,,365.6913104000123,None,,,,,,,,,,,,,,,,,,,,,,,,,,,,,,366.70066270000825,None,366.70066270000825,None,366.70066270000825,None,366.70066270000825,None,366.70066270000825,None,366.70066270000825,None,366.70066270000825,None,k,1,1.2301433000102406,366.70066270000825,None,,,,,,,,,,,,,19,001,2022_Oct_20_1208,Flanker,2021.2.0,241.3290472790248,
neutral left,0,a,neutral.png,neutral.png,neutral.png,left_arrow.png,neutral.png,neutral.png,neutral.png,,,,,,,,,6,1,37,4,,,,,,,,,367.9437040000048,None,,,,,,,,,,,,,,,,,,,,,,,,,,,,,,368.95734790001006,None,368.95734790001006,None,368.95734790001006,None,368.95734790001006,None,368.95734790001006,None,368.95734790001006,None,368.95734790001006,None,a,1,0.7417239000060363,368.95734790001006,None,,,,,,,,,,,,,19,001,2022_Oct_20_1208,Flanker,2021.2.0,241.3290472790248,
neutral right,0,k,neutral.png,neutral.png,neutral.png,right_arrow.png,neutral.png,neutral.png,neutral.png,,,,,,,,,6,2,38,5,,,,,,,,,369.71635040000547,None,,,,,,,,,,,,,,,,,,,,,,,,,,,,,,370.7258456000127,None,370.7258456000127,None,370.7258456000127,None,370.7258456000127,None,370.7258456000127,None,370.7258456000127,None,370.7258456000127,None,k,1,0.597418799996376,370.7258456000127,None,,,,,,,,,,,,,19,001,2022_Oct_20_1208,Flanker,2021.2.0,241.3290472790248,
congruent-left.jpg,1,a,left_arrow.png,left_arrow.png,left_arrow.png,left_arrow.png,left_arrow.png,left_arrow.png,left_arrow.png,,,,,,,,,6,3,39,0,,,,,,,,,371.33515140000964,None,,,,,,,,,,,,,,,,,,,,,,,,,,,,,,372.3482955000072,None,372.3482955000072,None,372.3482955000072,None,372.3482955000072,None,372.3482955000072,None,372.3482955000072,None,372.3482955000072,None,a,1,0.7031959000014467,372.3482955000072,None,,,,,,,,,,,,,19,001,2022_Oct_20_1208,Flanker,2021.2.0,241.3290472790248,
incongruent-left.jpg,0,a,right_arrow.png,right_arrow.png,right_arrow.png,left_arrow.png,right_arrow.png,right_arrow.png,right_arrow.png,,,,,,,,,6,4,40,1,,,,,,,,,373.06581630000437,None,,,,,,,,,,,,,,,,,,,,,,,,,,,,,,374.07945910000126,None,374.07945910000126,None,374.07945910000126,None,374.07945910000126,None,374.07945910000126,None,374.07945910000126,None,374.07945910000126,None,a,1,0.7882940999988932,374.07945910000126,None,,,,,,,,,,,,,19,001,2022_Oct_20_1208,Flanker,2021.2.0,241.3290472790248,
incongruent-right.jpg,0,k,left_arrow.png,left_arrow.png,left_arrow.png,right_arrow.png,left_arrow.png,left_arrow.png,left_arrow.png,,,,,,,,,6,5,41,3,,,,,,,,,374.88028330000816,None,,,,,,,,,,,,,,,,,,,,,,,,,,,,,,375.89391140000953,None,375.89391140000953,None,375.89391140000953,None,375.89391140000953,None,375.89391140000953,None,375.89391140000953,None,375.89391140000953,None,k,1,0.6140899000019999,375.89391140000953,None,,,,,,,,,,,,,19,001,2022_Oct_20_1208,Flanker,2021.2.0,241.3290472790248,
congruent-left.jpg,1,a,left_arrow.png,left_arrow.png,left_arrow.png,left_arrow.png,left_arrow.png,left_arrow.png,left_arrow.png,,,,,,,,,7,0,42,0,,,,,,,,,376.51969370000006,None,,,,,,,,,,,,,,,,,,,,,,,,,,,,,,377.53311750000285,None,377.53311750000285,None,377.53311750000285,None,377.53311750000285,None,377.53311750000285,None,377.53311750000285,None,377.53311750000285,None,a,1,0.6470764999976382,377.53311750000285,None,,,,,,,,,,,,,19,001,2022_Oct_20_1208,Flanker,2021.2.0,241.3290472790248,
congruent-left.jpg,1,a,left_arrow.png,left_arrow.png,left_arrow.png,left_arrow.png,left_arrow.png,left_arrow.png,left_arrow.png,,,,,,,,,7,1,43,0,,,,,,,,,378.192194400006,None,,,,,,,,,,,,,,,,,,,,,,,,,,,,,,379.201575900006,None,379.201575900006,None,379.201575900006,None,379.201575900006,None,379.201575900006,None,379.201575900006,None,379.201575900006,None,a,1,0.5870065999915823,379.201575900006,None,,,,,,,,,,,,,19,001,2022_Oct_20_1208,Flanker,2021.2.0,241.3290472790248,
incongruent-right.jpg,0,k,left_arrow.png,left_arrow.png,left_arrow.png,right_arrow.png,left_arrow.png,left_arrow.png,left_arrow.png,,,,,,,,,7,2,44,3,,,,,,,,,379.80218160001095,None,,,,,,,,,,,,,,,,,,,,,,,,,,,,,,380.8199175000045,None,380.8199175000045,None,380.8199175000045,None,380.8199175000045,None,380.8199175000045,None,380.8199175000045,None,380.8199175000045,None,k,1,0.913090200003353,380.8199175000045,None,,,,,,,,,,,,,19,001,2022_Oct_20_1208,Flanker,2021.2.0,241.3290472790248,
congruent-right.jpg,1,k,right_arrow.png,right_arrow.png,right_arrow.png,right_arrow.png,right_arrow.png,right_arrow.png,right_arrow.png,,,,,,,,,7,3,45,2,,,,,,,,,381.74591170001077,None,,,,,,,,,,,,,,,,,,,,,,,,,,,,,,382.7593513000029,None,382.7593513000029,None,382.7593513000029,None,382.7593513000029,None,382.7593513000029,None,382.7593513000029,None,382.7593513000029,None,k,1,0.5735647999972571,382.7593513000029,None,,,,,,,,,,,,,19,001,2022_Oct_20_1208,Flanker,2021.2.0,241.3290472790248,
neutral right,0,k,neutral.png,neutral.png,neutral.png,right_arrow.png,neutral.png,neutral.png,neutral.png,,,,,,,,,7,4,46,5,,,,,,,,,383.3517751000036,None,,,,,,,,,,,,,,,,,,,,,,,,,,,,,,384.3693645000021,None,384.3693645000021,None,384.3693645000021,None,384.3693645000021,None,384.3693645000021,None,384.3693645000021,None,384.3693645000021,None,k,1,0.595805000004475,384.3693645000021,None,,,,,,,,,,,,,19,001,2022_Oct_20_1208,Flanker,2021.2.0,241.3290472790248,
incongruent-right.jpg,0,k,left_arrow.png,left_arrow.png,left_arrow.png,right_arrow.png,left_arrow.png,left_arrow.png,left_arrow.png,,,,,,,,,7,5,47,3,,,,,,,,,384.98274140000285,None,,,,,,,,,,,,,,,,,,,,,,,,,,,,,,385.99637330000405,None,385.99637330000405,None,385.99637330000405,None,385.99637330000405,None,385.99637330000405,None,385.99637330000405,None,385.99637330000405,None,k,1,0.9130389999918407,385.99637330000405,None,,,,,,,,,,,,,19,001,2022_Oct_20_1208,Flanker,2021.2.0,241.3290472790248,
,,,,,,,,,,,,,,,,,,,,,,,,,,,,,,,,,,,,,,,,,,,,,,,,,,,,,,,,,,,,,,,,,,,,,,,,,,,,,,,,386.93469639999967,None,space,3.1911599000013666,386.93469639999967,None,,,,,,,19,001,2022_Oct_20_1208,Flanker,2021.2.0,241.3290472790248,
neutral left,0,a,neutral.png,neutral.png,neutral.png,left_arrow.png,neutral.png,neutral.png,neutral.png,,,,,,,,,,,,,0,0,0,4,,,,,390.1466267000069,None,,,,,,,,,,,,,,,,,,,,,,,,,,,,,,391.14741460001096,None,391.14741460001096,None,391.14741460001096,None,391.14741460001096,None,391.14741460001096,None,391.14741460001096,None,391.14741460001096,None,a,1,1.5068101999931969,391.14741460001096,None,,,,,,,,,,,,,19,001,2022_Oct_20_1208,Flanker,2021.2.0,241.3290472790248,
congruent-left.jpg,1,a,left_arrow.png,left_arrow.png,left_arrow.png,left_arrow.png,left_arrow.png,left_arrow.png,left_arrow.png,,,,,,,,,,,,,0,1,1,0,,,,,392.6657712000015,None,,,,,,,,,,,,,,,,,,,,,,,,,,,,,,393.6792686000117,None,393.6792686000117,None,393.6792686000117,None,393.6792686000117,None,393.6792686000117,None,393.6792686000117,None,393.6792686000117,None,a,1,0.7671914999955334,393.6792686000117,None,,,,,,,,,,,,,19,001,2022_Oct_20_1208,Flanker,2021.2.0,241.3290472790248,
congruent-left.jpg,1,a,left_arrow.png,left_arrow.png,left_arrow.png,left_arrow.png,left_arrow.png,left_arrow.png,left_arrow.png,,,,,,,,,,,,,0,2,2,0,,,,,394.4592496000114,None,,,,,,,,,,,,,,,,,,,,,,,,,,,,,,395.4729907000001,None,395.4729907000001,None,395.4729907000001,None,395.4729907000001,None,395.4729907000001,None,395.4729907000001,None,395.4729907000001,None,a,1,0.7257004999992205,395.4729907000001,None,,,,,,,,,,,,,19,001,2022_Oct_20_1208,Flanker,2021.2.0,241.3290472790248,
incongruent-left.jpg,0,a,right_arrow.png,right_arrow.png,right_arrow.png,left_arrow.png,right_arrow.png,right_arrow.png,right_arrow.png,,,,,,,,,,,,,0,3,3,1,,,,,396.2153023000137,None,,,,,,,,,,,,,,,,,,,,,,,,,,,,,,397.2244739000016,None,397.2244739000016,None,397.2244739000016,None,397.2244739000016,None,397.2244739000016,None,397.2244739000016,None,397.2244739000016,None,a,1,0.5024626999947941,397.2244739000016,None,,,,,,,,,,,,,19,001,2022_Oct_20_1208,Flanker,2021.2.0,241.3290472790248,
incongruent-right.jpg,0,k,left_arrow.png,left_arrow.png,left_arrow.png,right_arrow.png,left_arrow.png,left_arrow.png,left_arrow.png,,,,,,,,,,,,,0,4,4,3,,,,,397.74193030000606,None,,,,,,,,,,,,,,,,,,,,,,,,,,,,,,398.7513168000005,None,398.7513168000005,None,398.7513168000005,None,398.7513168000005,None,398.7513168000005,None,398.7513168000005,None,398.7513168000005,None,k,1,0.6160642000031658,398.7513168000005,None,,,,,,,,,,,,,19,001,2022_Oct_20_1208,Flanker,2021.2.0,241.3290472790248,
incongruent-left.jpg,0,a,right_arrow.png,right_arrow.png,right_arrow.png,left_arrow.png,right_arrow.png,right_arrow.png,right_arrow.png,,,,,,,,,,,,,0,5,5,1,,,,,399.38534060001257,None,,,,,,,,,,,,,,,,,,,,,,,,,,,,,,400.3905572000076,None,400.3905572000076,None,400.3905572000076,None,400.3905572000076,None,400.3905572000076,None,400.3905572000076,None,400.3905572000076,None,a,1,1.8489447000029031,400.3905572000076,None,,,,,,,,,,,,,19,001,2022_Oct_20_1208,Flanker,2021.2.0,241.3290472790248,
neutral left,0,a,neutral.png,neutral.png,neutral.png,left_arrow.png,neutral.png,neutral.png,neutral.png,,,,,,,,,,,,,1,0,6,4,,,,,402.2509512000106,None,,,,,,,,,,,,,,,,,,,,,,,,,,,,,,403.2687743000133,None,403.2687743000133,None,403.2687743000133,None,403.2687743000133,None,403.2687743000133,None,403.2687743000133,None,403.2687743000133,None,a,1,0.5229567999922438,403.2687743000133,None,,,,,,,,,,,,,19,001,2022_Oct_20_1208,Flanker,2021.2.0,241.3290472790248,
congruent-left.jpg,1,a,left_arrow.png,left_arrow.png,left_arrow.png,left_arrow.png,left_arrow.png,left_arrow.png,left_arrow.png,,,,,,,,,,,,,1,1,7,0,,,,,403.81093669999973,None,,,,,,,,,,,,,,,,,,,,,,,,,,,,,,404.8245072000136,None,404.8245072000136,None,404.8245072000136,None,404.8245072000136,None,404.8245072000136,None,404.8245072000136,None,404.8245072000136,None,a,1,0.6714457000052789,404.8245072000136,None,,,,,,,,,,,,,19,001,2022_Oct_20_1208,Flanker,2021.2.0,241.3290472790248,
neutral right,0,k,neutral.png,neutral.png,neutral.png,right_arrow.png,neutral.png,neutral.png,neutral.png,,,,,,,,,,,,,1,2,8,5,,,,,405.5085065000021,None,,,,,,,,,,,,,,,,,,,,,,,,,,,,,,406.5222855000029,None,406.5222855000029,None,406.5222855000029,None,406.5222855000029,None,406.5222855000029,None,406.5222855000029,None,406.5222855000029,None,k,1,0.9019611999974586,406.5222855000029,None,,,,,,,,,,,,,19,001,2022_Oct_20_1208,Flanker,2021.2.0,241.3290472790248,
neutral right,0,k,neutral.png,neutral.png,neutral.png,right_arrow.png,neutral.png,neutral.png,neutral.png,,,,,,,,,,,,,1,3,9,5,,,,,407.4397929000115,None,,,,,,,,,,,,,,,,,,,,,,,,,,,,,,408.45334659999935,None,408.45334659999935,None,408.45334659999935,None,408.45334659999935,None,408.45334659999935,None,408.45334659999935,None,408.45334659999935,None,k,1,0.7791260000085458,408.45334659999935,None,,,,,,,,,,,,,19,001,2022_Oct_20_1208,Flanker,2021.2.0,241.3290472790248,
neutral right,0,k,neutral.png,neutral.png,neutral.png,right_arrow.png,neutral.png,neutral.png,neutral.png,,,,,,,,,,,,,1,4,10,5,,,,,409.2458636000083,None,,,,,,,,,,,,,,,,,,,,,,,,,,,,,,410.255352600012,None,410.255352600012,None,410.255352600012,None,410.255352600012,None,410.255352600012,None,410.255352600012,None,410.255352600012,None,k,1,0.6497335000021849,410.255352600012,None,,,,,,,,,,,,,19,001,2022_Oct_20_1208,Flanker,2021.2.0,241.3290472790248,
congruent-right.jpg,1,k,right_arrow.png,right_arrow.png,right_arrow.png,right_arrow.png,right_arrow.png,right_arrow.png,right_arrow.png,,,,,,,,,,,,,1,5,11,2,,,,,410.92278870000155,None,,,,,,,,,,,,,,,,,,,,,,,,,,,,,,411.9363311000052,None,411.9363311000052,None,411.9363311000052,None,411.9363311000052,None,411.9363311000052,None,411.9363311000052,None,411.9363311000052,None,k,1,0.672624500002712,411.9363311000052,None,,,,,,,,,,,,,19,001,2022_Oct_20_1208,Flanker,2021.2.0,241.3290472790248,
neutral left,0,a,neutral.png,neutral.png,neutral.png,left_arrow.png,neutral.png,neutral.png,neutral.png,,,,,,,,,,,,,2,0,12,4,,,,,412.6204091000109,None,,,,,,,,,,,,,,,,,,,,,,,,,,,,,,413.62977540001157,None,413.62977540001157,None,413.62977540001157,None,413.62977540001157,None,413.62977540001157,None,413.62977540001157,None,413.62977540001157,None,a,1,0.6356557000108296,413.62977540001157,None,,,,,,,,,,,,,19,001,2022_Oct_20_1208,Flanker,2021.2.0,241.3290472790248,
incongruent-left.jpg,0,a,right_arrow.png,right_arrow.png,right_arrow.png,left_arrow.png,right_arrow.png,right_arrow.png,right_arrow.png,,,,,,,,,,,,,2,1,13,1,,,,,414.2805054000055,None,,,,,,,,,,,,,,,,,,,,,,,,,,,,,,415.2899769000069,None,415.2899769000069,None,415.2899769000069,None,415.2899769000069,None,415.2899769000069,None,415.2899769000069,None,415.2899769000069,None,a,1,0.5436881000059657,415.2899769000069,None,,,,,,,,,,,,,19,001,2022_Oct_20_1208,Flanker,2021.2.0,241.3290472790248,
incongruent-right.jpg,0,k,left_arrow.png,left_arrow.png,left_arrow.png,right_arrow.png,left_arrow.png,left_arrow.png,left_arrow.png,,,,,,,,,,,,,2,2,14,3,,,,,415.84892890001356,None,,,,,,,,,,,,,,,,,,,,,,,,,,,,,,416.86237520001305,None,416.86237520001305,None,416.86237520001305,None,416.86237520001305,None,416.86237520001305,None,416.86237520001305,None,416.86237520001305,None,k,1,0.5872550000058254,416.86237520001305,None,,,,,,,,,,,,,19,001,2022_Oct_20_1208,Flanker,2021.2.0,241.3290472790248,
neutral left,0,a,neutral.png,neutral.png,neutral.png,left_arrow.png,neutral.png,neutral.png,neutral.png,,,,,,,,,,,,,2,3,15,4,,,,,417.46288880000066,None,,,,,,,,,,,,,,,,,,,,,,,,,,,,,,418.47243300000264,None,418.47243300000264,None,418.47243300000264,None,418.47243300000264,None,418.47243300000264,None,418.47243300000264,None,418.47243300000264,None,a,1,0.4973491999990074,418.47243300000264,None,,,,,,,,,,,,,19,001,2022_Oct_20_1208,Flanker,2021.2.0,241.3290472790248,
incongruent-right.jpg,0,k,left_arrow.png,left_arrow.png,left_arrow.png,right_arrow.png,left_arrow.png,left_arrow.png,left_arrow.png,,,,,,,,,,,,,2,4,16,3,,,,,418.981165300007,None,,,,,,,,,,,,,,,,,,,,,,,,,,,,,,419.9907431000029,None,419.9907431000029,None,419.9907431000029,None,419.9907431000029,None,419.9907431000029,None,419.9907431000029,None,419.9907431000029,None,k,1,0.5392547999945236,419.9907431000029,None,,,,,,,,,,,,,19,001,2022_Oct_20_1208,Flanker,2021.2.0,241.3290472790248,
neutral left,0,a,neutral.png,neutral.png,neutral.png,left_arrow.png,neutral.png,neutral.png,neutral.png,,,,,,,,,,,,,2,5,17,4,,,,,420.5495244000049,None,,,,,,,,,,,,,,,,,,,,,,,,,,,,,,421.55902810000407,None,421.55902810000407,None,421.55902810000407,None,421.55902810000407,None,421.55902810000407,None,421.55902810000407,None,421.55902810000407,None,a,1,0.7152354999998352,421.55902810000407,None,,,,,,,,,,,,,19,001,2022_Oct_20_1208,Flanker,2021.2.0,241.3290472790248,
neutral left,0,a,neutral.png,neutral.png,neutral.png,left_arrow.png,neutral.png,neutral.png,neutral.png,,,,,,,,,,,,,3,0,18,4,,,,,422.29300570000487,None,,,,,,,,,,,,,,,,,,,,,,,,,,,,,,423.30256760001066,None,423.30256760001066,None,423.30256760001066,None,423.30256760001066,None,423.30256760001066,None,423.30256760001066,None,423.30256760001066,None,a,1,0.5639227000065148,423.30256760001066,None,,,,,,,,,,,,,19,001,2022_Oct_20_1208,Flanker,2021.2.0,241.3290472790248,
incongruent-left.jpg,0,a,right_arrow.png,right_arrow.png,right_arrow.png,left_arrow.png,right_arrow.png,right_arrow.png,right_arrow.png,,,,,,,,,,,,,3,1,19,1,,,,,423.87835130000894,None,,,,,,,,,,,,,,,,,,,,,,,,,,,,,,424.8874322000047,None,424.8874322000047,None,424.8874322000047,None,424.8874322000047,None,424.8874322000047,None,424.8874322000047,None,424.8874322000047,None,a,1,0.9233102999860421,424.8874322000047,None,,,,,,,,,,,,,19,001,2022_Oct_20_1208,Flanker,2021.2.0,241.3290472790248,
congruent-left.jpg,1,a,left_arrow.png,left_arrow.png,left_arrow.png,left_arrow.png,left_arrow.png,left_arrow.png,left_arrow.png,,,,,,,,,,,,,3,2,20,0,,,,,425.82175350000034,None,,,,,,,,,,,,,,,,,,,,,,,,,,,,,,426.83127680000325,None,426.83127680000325,None,426.83127680000325,None,426.83127680000325,None,426.83127680000325,None,426.83127680000325,None,426.83127680000325,None,a,1,0.7157189999998081,426.83127680000325,None,,,,,,,,,,,,,19,001,2022_Oct_20_1208,Flanker,2021.2.0,241.3290472790248,
congruent-right.jpg,1,k,right_arrow.png,right_arrow.png,right_arrow.png,right_arrow.png,right_arrow.png,right_arrow.png,right_arrow.png,,,,,,,,,,,,,3,3,21,2,,,,,427.5652453000075,None,,,,,,,,,,,,,,,,,,,,,,,,,,,,,,428.57897700001195,None,428.57897700001195,None,428.57897700001195,None,428.57897700001195,None,428.57897700001195,None,428.57897700001195,None,428.57897700001195,None,k,1,0.7682708000065759,428.57897700001195,None,,,,,,,,,,,,,19,001,2022_Oct_20_1208,Flanker,2021.2.0,241.3290472790248,
incongruent-left.jpg,0,a,right_arrow.png,right_arrow.png,right_arrow.png,left_arrow.png,right_arrow.png,right_arrow.png,right_arrow.png,,,,,,,,,,,,,3,4,22,1,,,,,429.3630856000091,None,,,,,,,,,,,,,,,,,,,,,,,,,,,,,,430.3725936000119,None,430.3725936000119,None,430.3725936000119,None,430.3725936000119,None,430.3725936000119,None,430.3725936000119,None,430.3725936000119,None,a,1,0.6148140000004787,430.3725936000119,None,,,,,,,,,,,,,19,001,2022_Oct_20_1208,Flanker,2021.2.0,241.3290472790248,
neutral right,0,k,neutral.png,neutral.png,neutral.png,right_arrow.png,neutral.png,neutral.png,neutral.png,,,,,,,,,,,,,3,5,23,5,,,,,431.0065700000123,None,,,,,,,,,,,,,,,,,,,,,,,,,,,,,,432.01589420001255,None,432.01589420001255,None,432.01589420001255,None,432.01589420001255,None,432.01589420001255,None,432.01589420001255,None,432.01589420001255,None,k,1,0.7958349999971688,432.01589420001255,None,,,,,,,,,,,,,19,001,2022_Oct_20_1208,Flanker,2021.2.0,241.3290472790248,
congruent-right.jpg,1,k,right_arrow.png,right_arrow.png,right_arrow.png,right_arrow.png,right_arrow.png,right_arrow.png,right_arrow.png,,,,,,,,,,,,,4,0,24,2,,,,,432.825110100006,None,,,,,,,,,,,,,,,,,,,,,,,,,,,,,,433.84300410001015,None,433.84300410001015,None,433.84300410001015,None,433.84300410001015,None,433.84300410001015,None,433.84300410001015,None,433.84300410001015,None,k,1,1.0010369000083301,433.84300410001015,None,,,,,,,,,,,,,19,001,2022_Oct_20_1208,Flanker,2021.2.0,241.3290472790248,
congruent-right.jpg,1,k,right_arrow.png,right_arrow.png,right_arrow.png,right_arrow.png,right_arrow.png,right_arrow.png,right_arrow.png,,,,,,,,,,,,,4,1,25,2,,,,,434.8605099000124,None,,,,,,,,,,,,,,,,,,,,,,,,,,,,,,435.86989750000066,None,435.86989750000066,None,435.86989750000066,None,435.86989750000066,None,435.86989750000066,None,435.86989750000066,None,435.86989750000066,None,k,1,0.9263834000012139,435.86989750000066,None,,,,,,,,,,,,,19,001,2022_Oct_20_1208,Flanker,2021.2.0,241.3290472790248,
incongruent-left.jpg,0,a,right_arrow.png,right_arrow.png,right_arrow.png,left_arrow.png,right_arrow.png,right_arrow.png,right_arrow.png,,,,,,,,,,,,,4,2,26,1,,,,,436.8126398000022,None,,,,,,,,,,,,,,,,,,,,,,,,,,,,,,437.8220391000068,None,437.8220391000068,None,437.8220391000068,None,437.8220391000068,None,437.8220391000068,None,437.8220391000068,None,437.8220391000068,None,a,1,0.7426700000069104,437.8220391000068,None,,,,,,,,,,,,,19,001,2022_Oct_20_1208,Flanker,2021.2.0,241.3290472790248,
incongruent-left.jpg,0,a,right_arrow.png,right_arrow.png,right_arrow.png,left_arrow.png,right_arrow.png,right_arrow.png,right_arrow.png,,,,,,,,,,,,,4,3,27,1,,,,,438.5813307000062,None,,,,,,,,,,,,,,,,,,,,,,,,,,,,,,439.59886610000103,None,439.59886610000103,None,439.59886610000103,None,439.59886610000103,None,439.59886610000103,None,439.59886610000103,None,439.59886610000103,None,a,1,0.5978510999993887,439.59886610000103,None,,,,,,,,,,,,,19,001,2022_Oct_20_1208,Flanker,2021.2.0,241.3290472790248,
congruent-right.jpg,1,k,right_arrow.png,right_arrow.png,right_arrow.png,right_arrow.png,right_arrow.png,right_arrow.png,right_arrow.png,,,,,,,,,,,,,4,4,28,2,,,,,440.2080194000009,None,,,,,,,,,,,,,,,,,,,,,,,,,,,,,,441.21724680000625,None,441.21724680000625,None,441.21724680000625,None,441.21724680000625,None,441.21724680000625,None,441.21724680000625,None,441.21724680000625,None,k,1,0.9237637000042014,441.21724680000625,None,,,,,,,,,,,,,19,001,2022_Oct_20_1208,Flanker,2021.2.0,241.3290472790248,
incongruent-right.jpg,0,k,left_arrow.png,left_arrow.png,left_arrow.png,right_arrow.png,left_arrow.png,left_arrow.png,left_arrow.png,,,,,,,,,,,,,4,5,29,3,,,,,442.16005780000705,None,,,,,,,,,,,,,,,,,,,,,,,,,,,,,,443.1777875000116,None,443.1777875000116,None,443.1777875000116,None,443.1777875000116,None,443.1777875000116,None,443.1777875000116,None,443.1777875000116,None,k,1,0.6354527000075905,443.1777875000116,None,,,,,,,,,,,,,19,001,2022_Oct_20_1208,Flanker,2021.2.0,241.3290472790248,
incongruent-left.jpg,0,a,right_arrow.png,right_arrow.png,right_arrow.png,left_arrow.png,right_arrow.png,right_arrow.png,right_arrow.png,,,,,,,,,,,,,5,0,30,1,,,,,443.8285292000073,None,,,,,,,,,,,,,,,,,,,,,,,,,,,,,,444.83384960000694,None,444.83384960000694,None,444.83384960000694,None,444.83384960000694,None,444.83384960000694,None,444.83384960000694,None,444.83384960000694,None,a,1,1.187850400005118,444.83384960000694,None,,,,,,,,,,,,,19,001,2022_Oct_20_1208,Flanker,2021.2.0,241.3290472790248,
congruent-left.jpg,1,a,left_arrow.png,left_arrow.png,left_arrow.png,left_arrow.png,left_arrow.png,left_arrow.png,left_arrow.png,,,,,,,,,,,,,5,1,31,0,,,,,446.0350030000118,None,,,,,,,,,,,,,,,,,,,,,,,,,,,,,,447.0527696000063,None,447.0527696000063,None,447.0527696000063,None,447.0527696000063,None,447.0527696000063,None,447.0527696000063,None,447.0527696000063,None,a,1,0.6251845999940997,447.0527696000063,None,,,,,,,,,,,,,19,001,2022_Oct_20_1208,Flanker,2021.2.0,241.3290472790248,
neutral right,0,k,neutral.png,neutral.png,neutral.png,right_arrow.png,neutral.png,neutral.png,neutral.png,,,,,,,,,,,,,5,2,32,5,,,,,447.6950981000118,None,,,,,,,,,,,,,,,,,,,,,,,,,,,,,,448.7087453999993,None,448.7087453999993,None,448.7087453999993,None,448.7087453999993,None,448.7087453999993,None,448.7087453999993,None,448.7087453999993,None,k,1,0.6972361999942223,448.7087453999993,None,,,,,,,,,,,,,19,001,2022_Oct_20_1208,Flanker,2021.2.0,241.3290472790248,
neutral right,0,k,neutral.png,neutral.png,neutral.png,right_arrow.png,neutral.png,neutral.png,neutral.png,,,,,,,,,,,,,5,3,33,5,,,,,449.41760550001345,None,,,,,,,,,,,,,,,,,,,,,,,,,,,,,,450.4224069000047,None,450.4224069000047,None,450.4224069000047,None,450.4224069000047,None,450.4224069000047,None,450.4224069000047,None,450.4224069000047,None,k,1,0.7197921000042697,450.4224069000047,None,,,,,,,,,,,,,19,001,2022_Oct_20_1208,Flanker,2021.2.0,241.3290472790248,
congruent-right.jpg,1,k,right_arrow.png,right_arrow.png,right_arrow.png,right_arrow.png,right_arrow.png,right_arrow.png,right_arrow.png,,,,,,,,,,,,,5,4,34,2,,,,,451.1571137000137,None,,,,,,,,,,,,,,,,,,,,,,,,,,,,,,452.1748484000127,None,452.1748484000127,None,452.1748484000127,None,452.1748484000127,None,452.1748484000127,None,452.1748484000127,None,452.1748484000127,None,k,1,0.9678236000036122,452.1748484000127,None,,,,,,,,,,,,,19,001,2022_Oct_20_1208,Flanker,2021.2.0,241.3290472790248,
congruent-left.jpg,1,a,left_arrow.png,left_arrow.png,left_arrow.png,left_arrow.png,left_arrow.png,left_arrow.png,left_arrow.png,,,,,,,,,,,,,5,5,35,0,,,,,453.15929640000104,None,,,,,,,,,,,,,,,,,,,,,,,,,,,,,,454.1728237000061,None,454.1728237000061,None,454.1728237000061,None,454.1728237000061,None,454.1728237000061,None,454.1728237000061,None,454.1728237000061,None,a,1,0.9939694000058807,454.1728237000061,None,,,,,,,,,,,,,19,001,2022_Oct_20_1208,Flanker,2021.2.0,241.3290472790248,
incongruent-right.jpg,0,k,left_arrow.png,left_arrow.png,left_arrow.png,right_arrow.png,left_arrow.png,left_arrow.png,left_arrow.png,,,,,,,,,,,,,6,0,36,3,,,,,455.1822901000123,None,,,,,,,,,,,,,,,,,,,,,,,,,,,,,,456.1959392000135,None,456.1959392000135,None,456.1959392000135,None,456.1959392000135,None,456.1959392000135,None,456.1959392000135,None,456.1959392000135,None,k,1,0.8033427000045776,456.1959392000135,None,,,,,,,,,,,,,19,001,2022_Oct_20_1208,Flanker,2021.2.0,241.3290472790248,
congruent-left.jpg,1,a,left_arrow.png,left_arrow.png,left_arrow.png,left_arrow.png,left_arrow.png,left_arrow.png,left_arrow.png,,,,,,,,,,,,,6,1,37,0,,,,,457.01320000000123,None,,,,,,,,,,,,,,,,,,,,,,,,,,,,,,458.0225916000054,None,458.0225916000054,None,458.0225916000054,None,458.0225916000054,None,458.0225916000054,None,458.0225916000054,None,458.0225916000054,None,a,1,0.5208486999908928,458.0225916000054,None,,,,,,,,,,,,,19,001,2022_Oct_20_1208,Flanker,2021.2.0,241.3290472790248,
incongruent-right.jpg,0,k,left_arrow.png,left_arrow.png,left_arrow.png,right_arrow.png,left_arrow.png,left_arrow.png,left_arrow.png,,,,,,,,,,,,,6,2,38,3,,,,,458.5566347000131,None,,,,,,,,,,,,,,,,,,,,,,,,,,,,,,459.5659513999999,None,459.5659513999999,None,459.5659513999999,None,459.5659513999999,None,459.5659513999999,None,459.5659513999999,None,459.5659513999999,None,k,1,1.2656272000022,459.5659513999999,None,,,,,,,,,,,,,19,001,2022_Oct_20_1208,Flanker,2021.2.0,241.3290472790248,
congruent-left.jpg,1,a,left_arrow.png,left_arrow.png,left_arrow.png,left_arrow.png,left_arrow.png,left_arrow.png,left_arrow.png,,,,,,,,,,,,,6,3,39,0,,,,,460.84241190001194,None,,,,,,,,,,,,,,,,,,,,,,,,,,,,,,461.8558178000094,None,461.8558178000094,None,461.8558178000094,None,461.8558178000094,None,461.8558178000094,None,461.8558178000094,None,461.8558178000094,None,a,1,0.9042780000017956,461.8558178000094,None,,,,,,,,,,,,,19,001,2022_Oct_20_1208,Flanker,2021.2.0,241.3290472790248,
neutral left,0,a,neutral.png,neutral.png,neutral.png,left_arrow.png,neutral.png,neutral.png,neutral.png,,,,,,,,,,,,,6,4,40,4,,,,,462.7734810000111,None,,,,,,,,,,,,,,,,,,,,,,,,,,,,,,463.7872239999997,None,463.7872239999997,None,463.7872239999997,None,463.7872239999997,None,463.7872239999997,None,463.7872239999997,None,463.7872239999997,None,a,1,0.716849699994782,463.7872239999997,None,,,,,,,,,,,,,19,001,2022_Oct_20_1208,Flanker,2021.2.0,241.3290472790248,
congruent-right.jpg,1,k,right_arrow.png,right_arrow.png,right_arrow.png,right_arrow.png,right_arrow.png,right_arrow.png,right_arrow.png,,,,,,,,,,,,,6,5,41,2,,,,,464.52116420000675,None,,,,,,,,,,,,,,,,,,,,,,,,,,,,,,465.5348673000117,None,465.5348673000117,None,465.5348673000117,None,465.5348673000117,None,465.5348673000117,None,465.5348673000117,None,465.5348673000117,None,k,1,1.081488600000739,465.5348673000117,None,,,,,,,,,,,,,19,001,2022_Oct_20_1208,Flanker,2021.2.0,241.3290472790248,
incongruent-right.jpg,0,k,left_arrow.png,left_arrow.png,left_arrow.png,right_arrow.png,left_arrow.png,left_arrow.png,left_arrow.png,,,,,,,,,,,,,7,0,42,3,,,,,466.627707800013,None,,,,,,,,,,,,,,,,,,,,,,,,,,,,,,467.64127870000084,None,467.64127870000084,None,467.64127870000084,None,467.64127870000084,None,467.64127870000084,None,467.64127870000084,None,467.64127870000084,None,k,1,0.7193140000017593,467.64127870000084,None,,,,,,,,,,,,,19,001,2022_Oct_20_1208,Flanker,2021.2.0,241.3290472790248,
incongruent-right.jpg,0,k,left_arrow.png,left_arrow.png,left_arrow.png,right_arrow.png,left_arrow.png,left_arrow.png,left_arrow.png,,,,,,,,,,,,,7,1,43,3,,,,,468.375457800008,None,,,,,,,,,,,,,,,,,,,,,,,,,,,,,,469.3889482000086,None,469.3889482000086,None,469.3889482000086,None,469.3889482000086,None,469.3889482000086,None,469.3889482000086,None,469.3889482000086,None,k,1,2.252316299985978,469.3889482000086,None,,,,,,,,,,,,,19,001,2022_Oct_20_1208,Flanker,2021.2.0,241.3290472790248,
congruent-right.jpg,1,k,right_arrow.png,right_arrow.png,right_arrow.png,right_arrow.png,right_arrow.png,right_arrow.png,right_arrow.png,,,,,,,,,,,,,7,2,44,2,,,,,471.6580627000076,None,,,,,,,,,,,,,,,,,,,,,,,,,,,,,,472.6674405000085,None,472.6674405000085,None,472.6674405000085,None,472.6674405000085,None,472.6674405000085,None,472.6674405000085,None,472.6674405000085,None,k,1,0.9818870000017341,472.6674405000085,None,,,,,,,,,,,,,19,001,2022_Oct_20_1208,Flanker,2021.2.0,241.3290472790248,
neutral left,0,a,neutral.png,neutral.png,neutral.png,left_arrow.png,neutral.png,neutral.png,neutral.png,,,,,,,,,,,,,7,3,45,4,,,,,473.6601660000015,None,,,,,,,,,,,,,,,,,,,,,,,,,,,,,,474.6779158999998,None,474.6779158999998,None,474.6779158999998,None,474.6779158999998,None,474.6779158999998,None,474.6779158999998,None,474.6779158999998,None,a,1,0.5239149999979418,474.6779158999998,None,,,,,,,,,,,,,19,001,2022_Oct_20_1208,Flanker,2021.2.0,241.3290472790248,
neutral right,0,k,neutral.png,neutral.png,neutral.png,right_arrow.png,neutral.png,neutral.png,neutral.png,,,,,,,,,,,,,7,4,46,5,,,,,475.2201561000111,None,,,,,,,,,,,,,,,,,,,,,,,,,,,,,,476.23384450000594,None,476.23384450000594,None,476.23384450000594,None,476.23384450000594,None,476.23384450000594,None,476.23384450000594,None,476.23384450000594,None,k,1,0.37588249999680556,476.23384450000594,None,,,,,,,,,,,,,19,001,2022_Oct_20_1208,Flanker,2021.2.0,241.3290472790248,
neutral right,0,k,neutral.png,neutral.png,neutral.png,right_arrow.png,neutral.png,neutral.png,neutral.png,,,,,,,,,,,,,7,5,47,5,,,,,476.6258189000073,None,,,,,,,,,,,,,,,,,,,,,,,,,,,,,,477.6350785000104,None,477.6350785000104,None,477.6350785000104,None,477.6350785000104,None,477.6350785000104,None,477.6350785000104,None,477.6350785000104,None,k,1,0.44685459999891464,477.6350785000104,None,,,,,,,,,,,,,19,001,2022_Oct_20_1208,Flanker,2021.2.0,241.3290472790248,
,,,,,,,,,,,,,,,,,,,,,,,,,,,,,,,,,,,,,,,,,,,,,,,,,,,,,,,,,,,,,,,,,,,,,,,,,,,,,,,,478.1025234000117,None,space,2.899800500003039,478.1025234000117,None,,,,,,,19,001,2022_Oct_20_1208,Flanker,2021.2.0,241.3290472790248,
,,,,,,,,,,,,,,,,,,,,,,,,,,,,,,,,,,,,,,,,,,,,,,,,,,,,,,,,,,,,,,,,,,,,,,,,,,,,,,,,,,,,,,481.0136702000018,None,space,3.8134035000111908,481.0136702000018,None,19,001,2022_Oct_20_1208,Flanker,2021.2.0,241.3290472790248,
