images,congruentcy,corrAns,arrow_1,arrow_2,arrow_3,target,arrow_5,arrow_6,arrow_7,practice.thisRepN,practice.thisTrialN,practice.thisN,practice.thisIndex,trials.thisRepN,trials.thisTrialN,trials.thisN,trials.thisIndex,trials_2.thisRepN,trials_2.thisTrialN,trials_2.thisN,trials_2.thisIndex,trials_3.thisRepN,trials_3.thisTrialN,trials_3.thisN,trials_3.thisIndex,instr_text.started,instr_text.stopped,instr_resp.keys,instr_resp.rt,polygon.started,polygon.stopped,arrow1_.started,arrow1_.stopped,arrow2_.started,arrow2_.stopped,arrow3_.started,arrow3_.stopped,target_p.started,target_p.stopped,arrow5_.started,arrow5_.stopped,arrow6_.started,arrow6_.stopped,arrow7_.started,arrow7_.stopped,key_resp_P.keys,key_resp_P.corr,key_resp_P.rt,key_resp_P.started,key_resp_P.stopped,text_2.started,text_2.stopped,text_3.started,text_3.stopped,text_4.started,text_4.stopped,key_resp_2.keys,key_resp_2.rt,key_resp_2.started,key_resp_2.stopped,arrow1.started,arrow1.stopped,arrow2.started,arrow2.stopped,arrow3.started,arrow3.stopped,target_t.started,target_t.stopped,arrow5.started,arrow5.stopped,arrow6.started,arrow6.stopped,arrow7.started,arrow7.stopped,key_resp.keys,key_resp.corr,key_resp.rt,key_resp.started,key_resp.stopped,text_5.started,text_5.stopped,key_resp_3.keys,key_resp_3.rt,key_resp_3.started,key_resp_3.stopped,participant,session,date,expName,psychopyVersion,frameRate,
,,,,,,,,,,,,,,,,,,,,,,,,,,19.064871300011873,None,space,60.02925580000738,,,,,,,,,,,,,,,,,,,,,,,,,,,,,,,,,,,,,,,,,,,,,,,,,,,,,,,,,1,001,2022_Aug_05_1459,Flanker,2021.2.0,239.73686459995284,
incongruent-right.jpg,0,k,left_arrow.png,left_arrow.png,left_arrow.png,right_arrow.png,left_arrow.png,left_arrow.png,left_arrow.png,0,0,0,3,,,,,,,,,,,,,,,,,79.1163538999972,None,80.12122030003229,None,80.12122030003229,None,80.12122030003229,None,80.12122030003229,None,80.12122030003229,None,80.12122030003229,None,80.12122030003229,None,k,1,14.774639700015541,80.12122030003229,None,94.92030950001208,None,,,,,,,,,,,,,,,,,,,,,,,,,,,,,,,,,,1,001,2022_Aug_05_1459,Flanker,2021.2.0,239.73686459995284,
incongruent-right.jpg,0,k,left_arrow.png,left_arrow.png,left_arrow.png,right_arrow.png,left_arrow.png,left_arrow.png,left_arrow.png,0,1,1,3,,,,,,,,,,,,,,,,,96.41798590001417,None,97.42713460000232,None,97.42713460000232,None,97.42713460000232,None,97.42713460000232,None,97.42713460000232,None,97.42713460000232,None,97.42713460000232,None,k,1,2.0053555999766104,97.42713460000232,None,99.44596520002233,None,,,,,,,,,,,,,,,,,,,,,,,,,,,,,,,,,,1,001,2022_Aug_05_1459,Flanker,2021.2.0,239.73686459995284,
incongruent-left.jpg,0,a,right_arrow.png,right_arrow.png,right_arrow.png,left_arrow.png,right_arrow.png,right_arrow.png,right_arrow.png,0,2,2,1,,,,,,,,,,,,,,,,,100.94758870004443,None,101.961427000002,None,101.961427000002,None,101.961427000002,None,101.961427000002,None,101.961427000002,None,101.961427000002,None,101.961427000002,None,a,1,0.9838288999744691,101.961427000002,None,102.96232440002495,None,,,,,,,,,,,,,,,,,,,,,,,,,,,,,,,,,,1,001,2022_Aug_05_1459,Flanker,2021.2.0,239.73686459995284,
congruent-left.jpg,1,a,left_arrow.png,left_arrow.png,left_arrow.png,left_arrow.png,left_arrow.png,left_arrow.png,left_arrow.png,0,3,3,0,,,,,,,,,,,,,,,,,104.46377440000651,None,105.47345849999692,None,105.47345849999692,None,105.47345849999692,None,105.47345849999692,None,105.47345849999692,None,105.47345849999692,None,105.47345849999692,None,a,1,0.9921871999977157,105.47345849999692,None,106.48258240002906,None,,,,,,,,,,,,,,,,,,,,,,,,,,,,,,,,,,1,001,2022_Aug_05_1459,Flanker,2021.2.0,239.73686459995284,
congruent-left.jpg,1,a,left_arrow.png,left_arrow.png,left_arrow.png,left_arrow.png,left_arrow.png,left_arrow.png,left_arrow.png,0,4,4,0,,,,,,,,,,,,,,,,,107.98417080001673,None,108.99775450001471,None,108.99775450001471,None,108.99775450001471,None,108.99775450001471,None,108.99775450001471,None,108.99775450001471,None,108.99775450001471,None,a,1,0.8121720000053756,108.99775450001471,None,109.82364280003821,None,,,,,,,,,,,,,,,,,,,,,,,,,,,,,,,,,,1,001,2022_Aug_05_1459,Flanker,2021.2.0,239.73686459995284,
congruent-right.jpg,1,k,right_arrow.png,right_arrow.png,right_arrow.png,right_arrow.png,right_arrow.png,right_arrow.png,right_arrow.png,0,5,5,2,,,,,,,,,,,,,,,,,111.32549030001974,None,112.33910310000647,None,112.33910310000647,None,112.33910310000647,None,112.33910310000647,None,112.33910310000647,None,112.33910310000647,None,112.33910310000647,None,k,1,0.7192684999899939,112.33910310000647,None,113.0729083000333,None,,,,,,,,,,,,,,,,,,,,,,,,,,,,,,,,,,1,001,2022_Aug_05_1459,Flanker,2021.2.0,239.73686459995284,
congruent-right.jpg,1,k,right_arrow.png,right_arrow.png,right_arrow.png,right_arrow.png,right_arrow.png,right_arrow.png,right_arrow.png,1,0,6,2,,,,,,,,,,,,,,,,,114.57488379999995,None,115.58818160003284,None,115.58818160003284,None,115.58818160003284,None,115.58818160003284,None,115.58818160003284,None,115.58818160003284,None,115.58818160003284,None,k,1,0.6385742000420578,115.58818160003284,None,116.23877870000433,None,,,,,,,,,,,,,,,,,,,,,,,,,,,,,,,,,,1,001,2022_Aug_05_1459,Flanker,2021.2.0,239.73686459995284,
congruent-left.jpg,1,a,left_arrow.png,left_arrow.png,left_arrow.png,left_arrow.png,left_arrow.png,left_arrow.png,left_arrow.png,1,1,7,0,,,,,,,,,,,,,,,,,117.74453800002811,None,118.75408510002308,None,118.75408510002308,None,118.75408510002308,None,118.75408510002308,None,118.75408510002308,None,118.75408510002308,None,118.75408510002308,None,a,1,0.8891551000415348,118.75408510002308,None,119.65517330000876,None,,,,,,,,,,,,,,,,,,,,,,,,,,,,,,,,,,1,001,2022_Aug_05_1459,Flanker,2021.2.0,239.73686459995284,
neutral right,0,k,neutral.png,neutral.png,neutral.png,right_arrow.png,neutral.png,neutral.png,neutral.png,1,2,8,5,,,,,,,,,,,,,,,,,121.15665200003423,None,122.16589450003812,None,122.16589450003812,None,122.16589450003812,None,122.16589450003812,None,122.16589450003812,None,122.16589450003812,None,122.16589450003812,None,k,1,0.8701187000260688,122.16589450003812,None,123.05031429999508,None,,,,,,,,,,,,,,,,,,,,,,,,,,,,,,,,,,1,001,2022_Aug_05_1459,Flanker,2021.2.0,239.73686459995284,
congruent-left.jpg,1,a,left_arrow.png,left_arrow.png,left_arrow.png,left_arrow.png,left_arrow.png,left_arrow.png,left_arrow.png,1,3,9,0,,,,,,,,,,,,,,,,,124.55202740000095,None,125.56533130002208,None,125.56533130002208,None,125.56533130002208,None,125.56533130002208,None,125.56533130002208,None,125.56533130002208,None,125.56533130002208,None,a,1,0.7589809999917634,125.56533130002208,None,126.3413617000333,None,,,,,,,,,,,,,,,,,,,,,,,,,,,,,,,,,,1,001,2022_Aug_05_1459,Flanker,2021.2.0,239.73686459995284,
neutral right,0,k,neutral.png,neutral.png,neutral.png,right_arrow.png,neutral.png,neutral.png,neutral.png,1,4,10,5,,,,,,,,,,,,,,,,,127.84298120002495,None,128.8566035000258,None,128.8566035000258,None,128.8566035000258,None,128.8566035000258,None,128.8566035000258,None,128.8566035000258,None,128.8566035000258,None,k,1,0.924203300033696,128.8566035000258,None,129.79927620000672,None,,,,,,,,,,,,,,,,,,,,,,,,,,,,,,,,,,1,001,2022_Aug_05_1459,Flanker,2021.2.0,239.73686459995284,
congruent-right.jpg,1,k,right_arrow.png,right_arrow.png,right_arrow.png,right_arrow.png,right_arrow.png,right_arrow.png,right_arrow.png,1,5,11,2,,,,,,,,,,,,,,,,,131.3005637000315,None,132.31414650002262,None,132.31414650002262,None,132.31414650002262,None,132.31414650002262,None,132.31414650002262,None,132.31414650002262,None,132.31414650002262,None,k,1,0.6029186999658123,132.31414650002262,None,132.93146120000165,None,,,,,,,,,,,,,,,,,,,,,,,,,,,,,,,,,,1,001,2022_Aug_05_1459,Flanker,2021.2.0,239.73686459995284,
congruent-right.jpg,1,k,right_arrow.png,right_arrow.png,right_arrow.png,right_arrow.png,right_arrow.png,right_arrow.png,right_arrow.png,2,0,12,2,,,,,,,,,,,,,,,,,134.43343350000214,None,135.44277550000697,None,135.44277550000697,None,135.44277550000697,None,135.44277550000697,None,135.44277550000697,None,135.44277550000697,None,135.44277550000697,None,k,1,0.45094159996369854,135.44277550000697,None,135.90964690002147,None,,,,,,,,,,,,,,,,,,,,,,,,,,,,,,,,,,1,001,2022_Aug_05_1459,Flanker,2021.2.0,239.73686459995284,
neutral left,0,a,neutral.png,neutral.png,neutral.png,left_arrow.png,neutral.png,neutral.png,neutral.png,2,1,13,4,,,,,,,,,,,,,,,,,137.4157256000326,None,138.42064960004063,None,138.42064960004063,None,138.42064960004063,None,138.42064960004063,None,138.42064960004063,None,138.42064960004063,None,138.42064960004063,None,a,1,0.5132909000385553,138.42064960004063,None,138.95036449999316,None,,,,,,,,,,,,,,,,,,,,,,,,,,,,,,,,,,1,001,2022_Aug_05_1459,Flanker,2021.2.0,239.73686459995284,
incongruent-right.jpg,0,k,left_arrow.png,left_arrow.png,left_arrow.png,right_arrow.png,left_arrow.png,left_arrow.png,left_arrow.png,2,2,14,3,,,,,,,,,,,,,,,,,140.45194850000553,None,141.46587730001193,None,141.46587730001193,None,141.46587730001193,None,141.46587730001193,None,141.46587730001193,None,141.46587730001193,None,141.46587730001193,None,k,1,0.524662499956321,141.46587730001193,None,142.00804700003937,None,,,,,,,,,,,,,,,,,,,,,,,,,,,,,,,,,,1,001,2022_Aug_05_1459,Flanker,2021.2.0,239.73686459995284,
neutral right,0,k,neutral.png,neutral.png,neutral.png,right_arrow.png,neutral.png,neutral.png,neutral.png,2,3,15,5,,,,,,,,,,,,,,,,,143.51391360000707,None,144.52321230003145,None,144.52321230003145,None,144.52321230003145,None,144.52321230003145,None,144.52321230003145,None,144.52321230003145,None,144.52321230003145,None,k,1,0.45983510004589334,144.52321230003145,None,144.99878050002735,None,,,,,,,,,,,,,,,,,,,,,,,,,,,,,,,,,,1,001,2022_Aug_05_1459,Flanker,2021.2.0,239.73686459995284,
neutral left,0,a,neutral.png,neutral.png,neutral.png,left_arrow.png,neutral.png,neutral.png,neutral.png,2,4,16,4,,,,,,,,,,,,,,,,,146.50016759999562,None,147.50569990003714,None,147.50569990003714,None,147.50569990003714,None,147.50569990003714,None,147.50569990003714,None,147.50569990003714,None,147.50569990003714,None,a,1,0.43740510003408417,147.50569990003714,None,147.95592070004204,None,,,,,,,,,,,,,,,,,,,,,,,,,,,,,,,,,,1,001,2022_Aug_05_1459,Flanker,2021.2.0,239.73686459995284,
incongruent-left.jpg,0,a,right_arrow.png,right_arrow.png,right_arrow.png,left_arrow.png,right_arrow.png,right_arrow.png,right_arrow.png,2,5,17,1,,,,,,,,,,,,,,,,,149.46153070003493,None,150.467042400036,None,150.467042400036,None,150.467042400036,None,150.467042400036,None,150.467042400036,None,150.467042400036,None,150.467042400036,None,a,1,0.4845035999896936,150.467042400036,None,150.96728839998832,None,,,,,,,,,,,,,,,,,,,,,,,,,,,,,,,,,,1,001,2022_Aug_05_1459,Flanker,2021.2.0,239.73686459995284,
incongruent-left.jpg,0,a,right_arrow.png,right_arrow.png,right_arrow.png,left_arrow.png,right_arrow.png,right_arrow.png,right_arrow.png,3,0,18,1,,,,,,,,,,,,,,,,,152.47305359999882,None,153.4827440000372,None,153.4827440000372,None,153.4827440000372,None,153.4827440000372,None,153.4827440000372,None,153.4827440000372,None,153.4827440000372,None,a,1,0.5172109000268392,153.4827440000372,None,154.01637279998977,None,,,,,,,,,,,,,,,,,,,,,,,,,,,,,,,,,,1,001,2022_Aug_05_1459,Flanker,2021.2.0,239.73686459995284,
incongruent-left.jpg,0,a,right_arrow.png,right_arrow.png,right_arrow.png,left_arrow.png,right_arrow.png,right_arrow.png,right_arrow.png,3,1,19,1,,,,,,,,,,,,,,,,,155.5224373000092,None,156.53177310002502,None,156.53177310002502,None,156.53177310002502,None,156.53177310002502,None,156.53177310002502,None,156.53177310002502,None,156.53177310002502,None,k,0,0.5086020000162534,156.53177310002502,None,157.0612744000391,None,,,,,,,,,,,,,,,,,,,,,,,,,,,,,,,,,,1,001,2022_Aug_05_1459,Flanker,2021.2.0,239.73686459995284,
neutral left,0,a,neutral.png,neutral.png,neutral.png,left_arrow.png,neutral.png,neutral.png,neutral.png,3,2,20,4,,,,,,,,,,,,,,,,,158.56286470004125,None,159.5722764999955,None,159.5722764999955,None,159.5722764999955,None,159.5722764999955,None,159.5722764999955,None,159.5722764999955,None,159.5722764999955,None,a,1,0.4605304999859072,159.5722764999955,None,160.04732020001393,None,,,,,,,,,,,,,,,,,,,,,,,,,,,,,,,,,,1,001,2022_Aug_05_1459,Flanker,2021.2.0,239.73686459995284,
neutral left,0,a,neutral.png,neutral.png,neutral.png,left_arrow.png,neutral.png,neutral.png,neutral.png,3,3,21,4,,,,,,,,,,,,,,,,,161.54943970002932,None,162.56302450003568,None,162.56302450003568,None,162.56302450003568,None,162.56302450003568,None,162.56302450003568,None,162.56302450003568,None,162.56302450003568,None,a,1,0.4781829999992624,162.56302450003568,None,163.05524409998907,None,,,,,,,,,,,,,,,,,,,,,,,,,,,,,,,,,,1,001,2022_Aug_05_1459,Flanker,2021.2.0,239.73686459995284,
incongruent-right.jpg,0,k,left_arrow.png,left_arrow.png,left_arrow.png,right_arrow.png,left_arrow.png,left_arrow.png,left_arrow.png,3,4,22,3,,,,,,,,,,,,,,,,,164.556857699994,None,165.56613480002852,None,165.56613480002852,None,165.56613480002852,None,165.56613480002852,None,165.56613480002852,None,165.56613480002852,None,165.56613480002852,None,k,1,0.41948240000056103,165.56613480002852,None,165.99992999999085,None,,,,,,,,,,,,,,,,,,,,,,,,,,,,,,,,,,1,001,2022_Aug_05_1459,Flanker,2021.2.0,239.73686459995284,
neutral right,0,k,neutral.png,neutral.png,neutral.png,right_arrow.png,neutral.png,neutral.png,neutral.png,3,5,23,5,,,,,,,,,,,,,,,,,167.50570199999493,None,168.51522980001755,None,168.51522980001755,None,168.51522980001755,None,168.51522980001755,None,168.51522980001755,None,168.51522980001755,None,168.51522980001755,None,k,1,0.5188012999715284,168.51522980001755,None,169.04907070001354,None,,,,,,,,,,,,,,,,,,,,,,,,,,,,,,,,,,1,001,2022_Aug_05_1459,Flanker,2021.2.0,239.73686459995284,
,,,,,,,,,,,,,,,,,,,,,,,,,,,,,,,,,,,,,,,,,,,,,,,,,,,,,170.57143479998922,None,172.55703740002355,None,space,2.077740599983372,172.55703740002355,None,,,,,,,,,,,,,,,,,,,,,,,,,,1,001,2022_Aug_05_1459,Flanker,2021.2.0,239.73686459995284,
incongruent-right.jpg,0,k,left_arrow.png,left_arrow.png,left_arrow.png,right_arrow.png,left_arrow.png,left_arrow.png,left_arrow.png,,,,,0,0,0,3,,,,,,,,,,,,,174.659280700027,None,,,,,,,,,,,,,,,,,,,,,,,,,,,,,,175.66869510000106,None,175.66869510000106,None,175.66869510000106,None,175.66869510000106,None,175.66869510000106,None,175.66869510000106,None,175.66869510000106,None,k,1,0.5103077999665402,175.66869510000106,None,,,,,,,1,001,2022_Aug_05_1459,Flanker,2021.2.0,239.73686459995284,
neutral left,0,a,neutral.png,neutral.png,neutral.png,left_arrow.png,neutral.png,neutral.png,neutral.png,,,,,0,1,1,4,,,,,,,,,,,,,176.19408290000865,None,,,,,,,,,,,,,,,,,,,,,,,,,,,,,,177.2076248000376,None,177.2076248000376,None,177.2076248000376,None,177.2076248000376,None,177.2076248000376,None,177.2076248000376,None,177.2076248000376,None,a,1,0.4757155000115745,177.2076248000376,None,,,,,,,1,001,2022_Aug_05_1459,Flanker,2021.2.0,239.73686459995284,
incongruent-left.jpg,0,a,right_arrow.png,right_arrow.png,right_arrow.png,left_arrow.png,right_arrow.png,right_arrow.png,right_arrow.png,,,,,0,2,2,1,,,,,,,,,,,,,177.7002663000021,None,,,,,,,,,,,,,,,,,,,,,,,,,,,,,,178.70957200002158,None,178.70957200002158,None,178.70957200002158,None,178.70957200002158,None,178.70957200002158,None,178.70957200002158,None,178.70957200002158,None,k,0,0.3739489000290632,178.70957200002158,None,,,,,,,1,001,2022_Aug_05_1459,Flanker,2021.2.0,239.73686459995284,
neutral right,0,k,neutral.png,neutral.png,neutral.png,right_arrow.png,neutral.png,neutral.png,neutral.png,,,,,0,3,3,5,,,,,,,,,,,,,179.1016818000353,None,,,,,,,,,,,,,,,,,,,,,,,,,,,,,,180.11518329998944,None,180.11518329998944,None,180.11518329998944,None,180.11518329998944,None,180.11518329998944,None,180.11518329998944,None,180.11518329998944,None,k,1,0.53667449997738,180.11518329998944,None,,,,,,,1,001,2022_Aug_05_1459,Flanker,2021.2.0,239.73686459995284,
neutral right,0,k,neutral.png,neutral.png,neutral.png,right_arrow.png,neutral.png,neutral.png,neutral.png,,,,,0,4,4,5,,,,,,,,,,,,,180.66579480003566,None,,,,,,,,,,,,,,,,,,,,,,,,,,,,,,181.67503390001366,None,181.67503390001366,None,181.67503390001366,None,181.67503390001366,None,181.67503390001366,None,181.67503390001366,None,181.67503390001366,None,k,1,0.43302969995420426,181.67503390001366,None,,,,,,,1,001,2022_Aug_05_1459,Flanker,2021.2.0,239.73686459995284,
congruent-right.jpg,1,k,right_arrow.png,right_arrow.png,right_arrow.png,right_arrow.png,right_arrow.png,right_arrow.png,right_arrow.png,,,,,0,5,5,2,,,,,,,,,,,,,182.12561099999584,None,,,,,,,,,,,,,,,,,,,,,,,,,,,,,,183.1389799999888,None,183.1389799999888,None,183.1389799999888,None,183.1389799999888,None,183.1389799999888,None,183.1389799999888,None,183.1389799999888,None,k,1,0.41715819999808446,183.1389799999888,None,,,,,,,1,001,2022_Aug_05_1459,Flanker,2021.2.0,239.73686459995284,
congruent-left.jpg,1,a,left_arrow.png,left_arrow.png,left_arrow.png,left_arrow.png,left_arrow.png,left_arrow.png,left_arrow.png,,,,,1,0,6,0,,,,,,,,,,,,,183.573093300045,None,,,,,,,,,,,,,,,,,,,,,,,,,,,,,,184.5864847000339,None,184.5864847000339,None,184.5864847000339,None,184.5864847000339,None,184.5864847000339,None,184.5864847000339,None,184.5864847000339,None,a,1,0.4499628000194207,184.5864847000339,None,,,,,,,1,001,2022_Aug_05_1459,Flanker,2021.2.0,239.73686459995284,
neutral right,0,k,neutral.png,neutral.png,neutral.png,right_arrow.png,neutral.png,neutral.png,neutral.png,,,,,1,1,7,5,,,,,,,,,,,,,185.05374220001977,None,,,,,,,,,,,,,,,,,,,,,,,,,,,,,,186.0670545999892,None,186.0670545999892,None,186.0670545999892,None,186.0670545999892,None,186.0670545999892,None,186.0670545999892,None,186.0670545999892,None,k,1,0.5213494999916293,186.0670545999892,None,,,,,,,1,001,2022_Aug_05_1459,Flanker,2021.2.0,239.73686459995284,
incongruent-left.jpg,0,a,right_arrow.png,right_arrow.png,right_arrow.png,left_arrow.png,right_arrow.png,right_arrow.png,right_arrow.png,,,,,1,2,8,1,,,,,,,,,,,,,186.60095719998935,None,,,,,,,,,,,,,,,,,,,,,,,,,,,,,,187.6103473000112,None,187.6103473000112,None,187.6103473000112,None,187.6103473000112,None,187.6103473000112,None,187.6103473000112,None,187.6103473000112,None,a,1,0.5142607999732718,187.6103473000112,None,,,,,,,1,001,2022_Aug_05_1459,Flanker,2021.2.0,239.73686459995284,
congruent-left.jpg,1,a,left_arrow.png,left_arrow.png,left_arrow.png,left_arrow.png,left_arrow.png,left_arrow.png,left_arrow.png,,,,,1,3,9,0,,,,,,,,,,,,,188.1359841999947,None,,,,,,,,,,,,,,,,,,,,,,,,,,,,,,189.14984100003494,None,189.14984100003494,None,189.14984100003494,None,189.14984100003494,None,189.14984100003494,None,189.14984100003494,None,189.14984100003494,None,a,1,0.5432260000379756,189.14984100003494,None,,,,,,,1,001,2022_Aug_05_1459,Flanker,2021.2.0,239.73686459995284,
incongruent-left.jpg,0,a,right_arrow.png,right_arrow.png,right_arrow.png,left_arrow.png,right_arrow.png,right_arrow.png,right_arrow.png,,,,,1,4,10,1,,,,,,,,,,,,,189.70877100003418,None,,,,,,,,,,,,,,,,,,,,,,,,,,,,,,190.7179575000191,None,190.7179575000191,None,190.7179575000191,None,190.7179575000191,None,190.7179575000191,None,190.7179575000191,None,190.7179575000191,None,a,1,0.6070887999958359,190.7179575000191,None,,,,,,,1,001,2022_Aug_05_1459,Flanker,2021.2.0,239.73686459995284,
neutral left,0,a,neutral.png,neutral.png,neutral.png,left_arrow.png,neutral.png,neutral.png,neutral.png,,,,,1,5,11,4,,,,,,,,,,,,,191.34375560004264,None,,,,,,,,,,,,,,,,,,,,,,,,,,,,,,192.35733530001016,None,192.35733530001016,None,192.35733530001016,None,192.35733530001016,None,192.35733530001016,None,192.35733530001016,None,192.35733530001016,None,a,1,0.5043392999796197,192.35733530001016,None,,,,,,,1,001,2022_Aug_05_1459,Flanker,2021.2.0,239.73686459995284,
incongruent-left.jpg,0,a,right_arrow.png,right_arrow.png,right_arrow.png,left_arrow.png,right_arrow.png,right_arrow.png,right_arrow.png,,,,,2,0,12,1,,,,,,,,,,,,,192.87463540001772,None,,,,,,,,,,,,,,,,,,,,,,,,,,,,,,193.88811850000639,None,193.88811850000639,None,193.88811850000639,None,193.88811850000639,None,193.88811850000639,None,193.88811850000639,None,193.88811850000639,None,a,1,0.46964279998792335,193.88811850000639,None,,,,,,,1,001,2022_Aug_05_1459,Flanker,2021.2.0,239.73686459995284,
congruent-right.jpg,1,k,right_arrow.png,right_arrow.png,right_arrow.png,right_arrow.png,right_arrow.png,right_arrow.png,right_arrow.png,,,,,2,1,13,2,,,,,,,,,,,,,194.37198080000235,None,,,,,,,,,,,,,,,,,,,,,,,,,,,,,,195.38132280000718,None,195.38132280000718,None,195.38132280000718,None,195.38132280000718,None,195.38132280000718,None,195.38132280000718,None,195.38132280000718,None,a,0,0.3447497999877669,195.38132280000718,None,,,,,,,1,001,2022_Aug_05_1459,Flanker,2021.2.0,239.73686459995284,
congruent-left.jpg,1,a,left_arrow.png,left_arrow.png,left_arrow.png,left_arrow.png,left_arrow.png,left_arrow.png,left_arrow.png,,,,,2,2,14,0,,,,,,,,,,,,,195.74009610002395,None,,,,,,,,,,,,,,,,,,,,,,,,,,,,,,196.74936940002954,None,196.74936940002954,None,196.74936940002954,None,196.74936940002954,None,196.74936940002954,None,196.74936940002954,None,196.74936940002954,None,a,1,0.6007538000121713,196.74936940002954,None,,,,,,,1,001,2022_Aug_05_1459,Flanker,2021.2.0,239.73686459995284,
congruent-right.jpg,1,k,right_arrow.png,right_arrow.png,right_arrow.png,right_arrow.png,right_arrow.png,right_arrow.png,right_arrow.png,,,,,2,3,15,2,,,,,,,,,,,,,197.36677580000833,None,,,,,,,,,,,,,,,,,,,,,,,,,,,,,,198.37597970000934,None,198.37597970000934,None,198.37597970000934,None,198.37597970000934,None,198.37597970000934,None,198.37597970000934,None,198.37597970000934,None,k,1,0.39007179997861385,198.37597970000934,None,,,,,,,1,001,2022_Aug_05_1459,Flanker,2021.2.0,239.73686459995284,
incongruent-right.jpg,0,k,left_arrow.png,left_arrow.png,left_arrow.png,right_arrow.png,left_arrow.png,left_arrow.png,left_arrow.png,,,,,2,4,16,3,,,,,,,,,,,,,198.78476100001717,None,,,,,,,,,,,,,,,,,,,,,,,,,,,,,,199.79417890001787,None,199.79417890001787,None,199.79417890001787,None,199.79417890001787,None,199.79417890001787,None,199.79417890001787,None,199.79417890001787,None,a,0,0.5800919999601319,199.79417890001787,None,,,,,,,1,001,2022_Aug_05_1459,Flanker,2021.2.0,239.73686459995284,
incongruent-left.jpg,0,a,right_arrow.png,right_arrow.png,right_arrow.png,left_arrow.png,right_arrow.png,right_arrow.png,right_arrow.png,,,,,2,5,17,1,,,,,,,,,,,,,200.38649430003716,None,,,,,,,,,,,,,,,,,,,,,,,,,,,,,,201.40443200001027,None,201.40443200001027,None,201.40443200001027,None,201.40443200001027,None,201.40443200001027,None,201.40443200001027,None,201.40443200001027,None,a,1,0.8584263999946415,201.40443200001027,None,,,,,,,1,001,2022_Aug_05_1459,Flanker,2021.2.0,239.73686459995284,
congruent-right.jpg,1,k,right_arrow.png,right_arrow.png,right_arrow.png,right_arrow.png,right_arrow.png,right_arrow.png,right_arrow.png,,,,,3,0,18,2,,,,,,,,,,,,,202.28007010003785,None,,,,,,,,,,,,,,,,,,,,,,,,,,,,,,203.29394420003518,None,203.29394420003518,None,203.29394420003518,None,203.29394420003518,None,203.29394420003518,None,203.29394420003518,None,203.29394420003518,None,k,1,0.4410836999886669,203.29394420003518,None,,,,,,,1,001,2022_Aug_05_1459,Flanker,2021.2.0,239.73686459995284,
incongruent-right.jpg,0,k,left_arrow.png,left_arrow.png,left_arrow.png,right_arrow.png,left_arrow.png,left_arrow.png,left_arrow.png,,,,,3,1,19,3,,,,,,,,,,,,,203.75248450000072,None,,,,,,,,,,,,,,,,,,,,,,,,,,,,,,204.7702416999964,None,204.7702416999964,None,204.7702416999964,None,204.7702416999964,None,204.7702416999964,None,204.7702416999964,None,204.7702416999964,None,k,1,0.5807116000214592,204.7702416999964,None,,,,,,,1,001,2022_Aug_05_1459,Flanker,2021.2.0,239.73686459995284,
congruent-left.jpg,1,a,left_arrow.png,left_arrow.png,left_arrow.png,left_arrow.png,left_arrow.png,left_arrow.png,left_arrow.png,,,,,3,2,20,0,,,,,,,,,,,,,205.36280320002697,None,,,,,,,,,,,,,,,,,,,,,,,,,,,,,,206.37641130003612,None,206.37641130003612,None,206.37641130003612,None,206.37641130003612,None,206.37641130003612,None,206.37641130003612,None,206.37641130003612,None,a,1,0.6868198000011034,206.37641130003612,None,,,,,,,1,001,2022_Aug_05_1459,Flanker,2021.2.0,239.73686459995284,
congruent-right.jpg,1,k,right_arrow.png,right_arrow.png,right_arrow.png,right_arrow.png,right_arrow.png,right_arrow.png,right_arrow.png,,,,,3,3,21,2,,,,,,,,,,,,,207.07683999999426,None,,,,,,,,,,,,,,,,,,,,,,,,,,,,,,208.08657430001767,None,208.08657430001767,None,208.08657430001767,None,208.08657430001767,None,208.08657430001767,None,208.08657430001767,None,208.08657430001767,None,k,1,0.5208287999848835,208.08657430001767,None,,,,,,,1,001,2022_Aug_05_1459,Flanker,2021.2.0,239.73686459995284,
incongruent-right.jpg,0,k,left_arrow.png,left_arrow.png,left_arrow.png,right_arrow.png,left_arrow.png,left_arrow.png,left_arrow.png,,,,,3,4,22,3,,,,,,,,,,,,,208.62014750001254,None,,,,,,,,,,,,,,,,,,,,,,,,,,,,,,209.63371660001576,None,209.63371660001576,None,209.63371660001576,None,209.63371660001576,None,209.63371660001576,None,209.63371660001576,None,209.63371660001576,None,k,1,0.45389079995220527,209.63371660001576,None,,,,,,,1,001,2022_Aug_05_1459,Flanker,2021.2.0,239.73686459995284,
congruent-right.jpg,1,k,right_arrow.png,right_arrow.png,right_arrow.png,right_arrow.png,right_arrow.png,right_arrow.png,right_arrow.png,,,,,3,5,23,2,,,,,,,,,,,,,210.10087550000753,None,,,,,,,,,,,,,,,,,,,,,,,,,,,,,,211.11469550000038,None,211.11469550000038,None,211.11469550000038,None,211.11469550000038,None,211.11469550000038,None,211.11469550000038,None,211.11469550000038,None,k,1,0.42112640000414103,211.11469550000038,None,,,,,,,1,001,2022_Aug_05_1459,Flanker,2021.2.0,239.73686459995284,
neutral left,0,a,neutral.png,neutral.png,neutral.png,left_arrow.png,neutral.png,neutral.png,neutral.png,,,,,4,0,24,4,,,,,,,,,,,,,211.54825029999483,None,,,,,,,,,,,,,,,,,,,,,,,,,,,,,,212.55773649999173,None,212.55773649999173,None,212.55773649999173,None,212.55773649999173,None,212.55773649999173,None,212.55773649999173,None,212.55773649999173,None,a,1,0.48260709998430684,212.55773649999173,None,,,,,,,1,001,2022_Aug_05_1459,Flanker,2021.2.0,239.73686459995284,
incongruent-left.jpg,0,a,right_arrow.png,right_arrow.png,right_arrow.png,left_arrow.png,right_arrow.png,right_arrow.png,right_arrow.png,,,,,4,1,25,1,,,,,,,,,,,,,213.0584799000062,None,,,,,,,,,,,,,,,,,,,,,,,,,,,,,,214.0717663000105,None,214.0717663000105,None,214.0717663000105,None,214.0717663000105,None,214.0717663000105,None,214.0717663000105,None,214.0717663000105,None,k,0,0.5130323999910615,214.0717663000105,None,,,,,,,1,001,2022_Aug_05_1459,Flanker,2021.2.0,239.73686459995284,
neutral left,0,a,neutral.png,neutral.png,neutral.png,left_arrow.png,neutral.png,neutral.png,neutral.png,,,,,4,2,26,4,,,,,,,,,,,,,214.59731790004298,None,,,,,,,,,,,,,,,,,,,,,,,,,,,,,,215.61090090003563,None,215.61090090003563,None,215.61090090003563,None,215.61090090003563,None,215.61090090003563,None,215.61090090003563,None,215.61090090003563,None,a,1,0.4935224000364542,215.61090090003563,None,,,,,,,1,001,2022_Aug_05_1459,Flanker,2021.2.0,239.73686459995284,
incongruent-right.jpg,0,k,left_arrow.png,left_arrow.png,left_arrow.png,right_arrow.png,left_arrow.png,left_arrow.png,left_arrow.png,,,,,4,3,27,3,,,,,,,,,,,,,216.11976140004117,None,,,,,,,,,,,,,,,,,,,,,,,,,,,,,,217.12917150004068,None,217.12917150004068,None,217.12917150004068,None,217.12917150004068,None,217.12917150004068,None,217.12917150004068,None,217.12917150004068,None,k,1,0.6874849000014365,217.12917150004068,None,,,,,,,1,001,2022_Aug_05_1459,Flanker,2021.2.0,239.73686459995284,
incongruent-right.jpg,0,k,left_arrow.png,left_arrow.png,left_arrow.png,right_arrow.png,left_arrow.png,left_arrow.png,left_arrow.png,,,,,4,4,28,3,,,,,,,,,,,,,217.8299837000086,None,,,,,,,,,,,,,,,,,,,,,,,,,,,,,,218.84377610002412,None,218.84377610002412,None,218.84377610002412,None,218.84377610002412,None,218.84377610002412,None,218.84377610002412,None,218.84377610002412,None,k,1,0.8051113000256009,218.84377610002412,None,,,,,,,1,001,2022_Aug_05_1459,Flanker,2021.2.0,239.73686459995284,
incongruent-left.jpg,0,a,right_arrow.png,right_arrow.png,right_arrow.png,left_arrow.png,right_arrow.png,right_arrow.png,right_arrow.png,,,,,4,5,29,1,,,,,,,,,,,,,219.6610137000098,None,,,,,,,,,,,,,,,,,,,,,,,,,,,,,,220.67459710000549,None,220.67459710000549,None,220.67459710000549,None,220.67459710000549,None,220.67459710000549,None,220.67459710000549,None,220.67459710000549,None,a,1,0.5025756999966688,220.67459710000549,None,,,,,,,1,001,2022_Aug_05_1459,Flanker,2021.2.0,239.73686459995284,
neutral left,0,a,neutral.png,neutral.png,neutral.png,left_arrow.png,neutral.png,neutral.png,neutral.png,,,,,5,0,30,4,,,,,,,,,,,,,221.19184859999223,None,,,,,,,,,,,,,,,,,,,,,,,,,,,,,,222.20131020003464,None,222.20131020003464,None,222.20131020003464,None,222.20131020003464,None,222.20131020003464,None,222.20131020003464,None,222.20131020003464,None,a,1,0.4239987999899313,222.20131020003464,None,,,,,,,1,001,2022_Aug_05_1459,Flanker,2021.2.0,239.73686459995284,
congruent-left.jpg,1,a,left_arrow.png,left_arrow.png,left_arrow.png,left_arrow.png,left_arrow.png,left_arrow.png,left_arrow.png,,,,,5,1,31,0,,,,,,,,,,,,,222.64365169999655,None,,,,,,,,,,,,,,,,,,,,,,,,,,,,,,223.65737660002196,None,223.65737660002196,None,223.65737660002196,None,223.65737660002196,None,223.65737660002196,None,223.65737660002196,None,223.65737660002196,None,a,1,0.4321297000278719,223.65737660002196,None,,,,,,,1,001,2022_Aug_05_1459,Flanker,2021.2.0,239.73686459995284,
neutral right,0,k,neutral.png,neutral.png,neutral.png,right_arrow.png,neutral.png,neutral.png,neutral.png,,,,,5,2,32,5,,,,,,,,,,,,,224.10741860000417,None,,,,,,,,,,,,,,,,,,,,,,,,,,,,,,225.1210024000029,None,225.1210024000029,None,225.1210024000029,None,225.1210024000029,None,225.1210024000029,None,225.1210024000029,None,225.1210024000029,None,k,1,0.41704039997421205,225.1210024000029,None,,,,,,,1,001,2022_Aug_05_1459,Flanker,2021.2.0,239.73686459995284,
congruent-left.jpg,1,a,left_arrow.png,left_arrow.png,left_arrow.png,left_arrow.png,left_arrow.png,left_arrow.png,left_arrow.png,,,,,5,3,33,0,,,,,,,,,,,,,225.55476940004155,None,,,,,,,,,,,,,,,,,,,,,,,,,,,,,,226.56836470001144,None,226.56836470001144,None,226.56836470001144,None,226.56836470001144,None,226.56836470001144,None,226.56836470001144,None,226.56836470001144,None,a,1,0.43361289997119457,226.56836470001144,None,,,,,,,1,001,2022_Aug_05_1459,Flanker,2021.2.0,239.73686459995284,
neutral right,0,k,neutral.png,neutral.png,neutral.png,right_arrow.png,neutral.png,neutral.png,neutral.png,,,,,5,4,34,5,,,,,,,,,,,,,227.0188239000272,None,,,,,,,,,,,,,,,,,,,,,,,,,,,,,,228.02822660002857,None,228.02822660002857,None,228.02822660002857,None,228.02822660002857,None,228.02822660002857,None,228.02822660002857,None,228.02822660002857,None,k,1,0.42990470002405345,228.02822660002857,None,,,,,,,1,001,2022_Aug_05_1459,Flanker,2021.2.0,239.73686459995284,
neutral right,0,k,neutral.png,neutral.png,neutral.png,right_arrow.png,neutral.png,neutral.png,neutral.png,,,,,5,5,35,5,,,,,,,,,,,,,228.47455020004418,None,,,,,,,,,,,,,,,,,,,,,,,,,,,,,,229.48426029999973,None,229.48426029999973,None,229.48426029999973,None,229.48426029999973,None,229.48426029999973,None,229.48426029999973,None,229.48426029999973,None,k,1,0.4060386999626644,229.48426029999973,None,,,,,,,1,001,2022_Aug_05_1459,Flanker,2021.2.0,239.73686459995284,
incongruent-right.jpg,0,k,left_arrow.png,left_arrow.png,left_arrow.png,right_arrow.png,left_arrow.png,left_arrow.png,left_arrow.png,,,,,6,0,36,3,,,,,,,,,,,,,229.90105849999236,None,,,,,,,,,,,,,,,,,,,,,,,,,,,,,,230.91462510003475,None,230.91462510003475,None,230.91462510003475,None,230.91462510003475,None,230.91462510003475,None,230.91462510003475,None,230.91462510003475,None,a,0,0.5118878000066616,230.91462510003475,None,,,,,,,1,001,2022_Aug_05_1459,Flanker,2021.2.0,239.73686459995284,
incongruent-right.jpg,0,k,left_arrow.png,left_arrow.png,left_arrow.png,right_arrow.png,left_arrow.png,left_arrow.png,left_arrow.png,,,,,6,1,37,3,,,,,,,,,,,,,231.44018229999347,None,,,,,,,,,,,,,,,,,,,,,,,,,,,,,,232.45377020002343,None,232.45377020002343,None,232.45377020002343,None,232.45377020002343,None,232.45377020002343,None,232.45377020002343,None,232.45377020002343,None,k,1,0.452932900050655,232.45377020002343,None,,,,,,,1,001,2022_Aug_05_1459,Flanker,2021.2.0,239.73686459995284,
neutral left,0,a,neutral.png,neutral.png,neutral.png,left_arrow.png,neutral.png,neutral.png,neutral.png,,,,,6,2,38,4,,,,,,,,,,,,,232.92092760000378,None,,,,,,,,,,,,,,,,,,,,,,,,,,,,,,233.93477029999485,None,233.93477029999485,None,233.93477029999485,None,233.93477029999485,None,233.93477029999485,None,233.93477029999485,None,233.93477029999485,None,a,1,0.5001910999999382,233.93477029999485,None,,,,,,,1,001,2022_Aug_05_1459,Flanker,2021.2.0,239.73686459995284,
neutral right,0,k,neutral.png,neutral.png,neutral.png,right_arrow.png,neutral.png,neutral.png,neutral.png,,,,,6,3,39,5,,,,,,,,,,,,,234.45203000004403,None,,,,,,,,,,,,,,,,,,,,,,,,,,,,,,235.46559760003584,None,235.46559760003584,None,235.46559760003584,None,235.46559760003584,None,235.46559760003584,None,235.46559760003584,None,235.46559760003584,None,k,1,0.3775197999784723,235.46559760003584,None,,,,,,,1,001,2022_Aug_05_1459,Flanker,2021.2.0,239.73686459995284,
neutral right,0,k,neutral.png,neutral.png,neutral.png,right_arrow.png,neutral.png,neutral.png,neutral.png,,,,,6,4,40,5,,,,,,,,,,,,,235.85737199999858,None,,,,,,,,,,,,,,,,,,,,,,,,,,,,,,236.87127110001165,None,236.87127110001165,None,236.87127110001165,None,236.87127110001165,None,236.87127110001165,None,236.87127110001165,None,236.87127110001165,None,k,1,0.4040351999574341,236.87127110001165,None,,,,,,,1,001,2022_Aug_05_1459,Flanker,2021.2.0,239.73686459995284,
congruent-left.jpg,1,a,left_arrow.png,left_arrow.png,left_arrow.png,left_arrow.png,left_arrow.png,left_arrow.png,left_arrow.png,,,,,6,5,41,0,,,,,,,,,,,,,237.28813010000158,None,,,,,,,,,,,,,,,,,,,,,,,,,,,,,,238.3016542000114,None,238.3016542000114,None,238.3016542000114,None,238.3016542000114,None,238.3016542000114,None,238.3016542000114,None,238.3016542000114,None,a,1,0.509874299983494,238.3016542000114,None,,,,,,,1,001,2022_Aug_05_1459,Flanker,2021.2.0,239.73686459995284,
congruent-left.jpg,1,a,left_arrow.png,left_arrow.png,left_arrow.png,left_arrow.png,left_arrow.png,left_arrow.png,left_arrow.png,,,,,7,0,42,0,,,,,,,,,,,,,238.8272210000432,None,,,,,,,,,,,,,,,,,,,,,,,,,,,,,,239.8369049000321,None,239.8369049000321,None,239.8369049000321,None,239.8369049000321,None,239.8369049000321,None,239.8369049000321,None,239.8369049000321,None,a,1,0.49482910003280267,239.8369049000321,None,,,,,,,1,001,2022_Aug_05_1459,Flanker,2021.2.0,239.73686459995284,
congruent-right.jpg,1,k,right_arrow.png,right_arrow.png,right_arrow.png,right_arrow.png,right_arrow.png,right_arrow.png,right_arrow.png,,,,,7,1,43,2,,,,,,,,,,,,,240.3458330000285,None,,,,,,,,,,,,,,,,,,,,,,,,,,,,,,241.35491100000218,None,241.35491100000218,None,241.35491100000218,None,241.35491100000218,None,241.35491100000218,None,241.35491100000218,None,241.35491100000218,None,k,1,0.41701829998055473,241.35491100000218,None,,,,,,,1,001,2022_Aug_05_1459,Flanker,2021.2.0,239.73686459995284,
congruent-right.jpg,1,k,right_arrow.png,right_arrow.png,right_arrow.png,right_arrow.png,right_arrow.png,right_arrow.png,right_arrow.png,,,,,7,2,44,2,,,,,,,,,,,,,241.78867330000503,None,,,,,,,,,,,,,,,,,,,,,,,,,,,,,,242.80224809999345,None,242.80224809999345,None,242.80224809999345,None,242.80224809999345,None,242.80224809999345,None,242.80224809999345,None,242.80224809999345,None,k,1,0.45822560001397505,242.80224809999345,None,,,,,,,1,001,2022_Aug_05_1459,Flanker,2021.2.0,239.73686459995284,
neutral left,0,a,neutral.png,neutral.png,neutral.png,left_arrow.png,neutral.png,neutral.png,neutral.png,,,,,7,3,45,4,,,,,,,,,,,,,243.2777461000369,None,,,,,,,,,,,,,,,,,,,,,,,,,,,,,,244.29133090004325,None,244.29133090004325,None,244.29133090004325,None,244.29133090004325,None,244.29133090004325,None,244.29133090004325,None,244.29133090004325,None,a,1,0.449230800033547,244.29133090004325,None,,,,,,,1,001,2022_Aug_05_1459,Flanker,2021.2.0,239.73686459995284,
incongruent-left.jpg,0,a,right_arrow.png,right_arrow.png,right_arrow.png,left_arrow.png,right_arrow.png,right_arrow.png,right_arrow.png,,,,,7,4,46,1,,,,,,,,,,,,,244.75849850004306,None,,,,,,,,,,,,,,,,,,,,,,,,,,,,,,245.7678891000105,None,245.7678891000105,None,245.7678891000105,None,245.7678891000105,None,245.7678891000105,None,245.7678891000105,None,245.7678891000105,None,a,1,0.5409660000004806,245.7678891000105,None,,,,,,,1,001,2022_Aug_05_1459,Flanker,2021.2.0,239.73686459995284,
neutral left,0,a,neutral.png,neutral.png,neutral.png,left_arrow.png,neutral.png,neutral.png,neutral.png,,,,,7,5,47,4,,,,,,,,,,,,,246.32715880003525,None,,,,,,,,,,,,,,,,,,,,,,,,,,,,,,247.34040190000087,None,247.34040190000087,None,247.34040190000087,None,247.34040190000087,None,247.34040190000087,None,247.34040190000087,None,247.34040190000087,None,a,1,1.3365244999877177,247.34040190000087,None,,,,,,,1,001,2022_Aug_05_1459,Flanker,2021.2.0,239.73686459995284,
,,,,,,,,,,,,,,,,,,,,,,,,,,,,,,,,,,,,,,,,,,,,,,,,,,,,,,,,,,,,,,,,,,,,,,,,,,,,,,,,248.70438350003678,None,space,5.549279399972875,248.70438350003678,None,1,001,2022_Aug_05_1459,Flanker,2021.2.0,239.73686459995284,
congruent-left.jpg,1,a,left_arrow.png,left_arrow.png,left_arrow.png,left_arrow.png,left_arrow.png,left_arrow.png,left_arrow.png,,,,,,,,,0,0,0,0,,,,,,,,,254.2770188000286,None,,,,,,,,,,,,,,,,,,,,,,,,,,,,,,255.28642720001517,None,255.28642720001517,None,255.28642720001517,None,255.28642720001517,None,255.28642720001517,None,255.28642720001517,None,255.28642720001517,None,a,1,0.4553867999929935,255.28642720001517,None,,,,,,,1,001,2022_Aug_05_1459,Flanker,2021.2.0,239.73686459995284,
neutral left,0,a,neutral.png,neutral.png,neutral.png,left_arrow.png,neutral.png,neutral.png,neutral.png,,,,,,,,,0,1,1,4,,,,,,,,,255.7535918999929,None,,,,,,,,,,,,,,,,,,,,,,,,,,,,,,256.7629229000304,None,256.7629229000304,None,256.7629229000304,None,256.7629229000304,None,256.7629229000304,None,256.7629229000304,None,256.7629229000304,None,a,1,0.45911690004868433,256.7629229000304,None,,,,,,,1,001,2022_Aug_05_1459,Flanker,2021.2.0,239.73686459995284,
neutral right,0,k,neutral.png,neutral.png,neutral.png,right_arrow.png,neutral.png,neutral.png,neutral.png,,,,,,,,,0,2,2,5,,,,,,,,,257.2387198000215,None,,,,,,,,,,,,,,,,,,,,,,,,,,,,,,258.2520022999961,None,258.2520022999961,None,258.2520022999961,None,258.2520022999961,None,258.2520022999961,None,258.2520022999961,None,258.2520022999961,None,k,1,0.44226360000902787,258.2520022999961,None,,,,,,,1,001,2022_Aug_05_1459,Flanker,2021.2.0,239.73686459995284,
congruent-right.jpg,1,k,right_arrow.png,right_arrow.png,right_arrow.png,right_arrow.png,right_arrow.png,right_arrow.png,right_arrow.png,,,,,,,,,0,3,3,2,,,,,,,,,258.7108928000089,None,,,,,,,,,,,,,,,,,,,,,,,,,,,,,,259.7244088000152,None,259.7244088000152,None,259.7244088000152,None,259.7244088000152,None,259.7244088000152,None,259.7244088000152,None,259.7244088000152,None,k,1,0.5220191999687813,259.7244088000152,None,,,,,,,1,001,2022_Aug_05_1459,Flanker,2021.2.0,239.73686459995284,
neutral right,0,k,neutral.png,neutral.png,neutral.png,right_arrow.png,neutral.png,neutral.png,neutral.png,,,,,,,,,0,4,4,5,,,,,,,,,260.25830290000886,None,,,,,,,,,,,,,,,,,,,,,,,,,,,,,,261.26786930003436,None,261.26786930003436,None,261.26786930003436,None,261.26786930003436,None,261.26786930003436,None,261.26786930003436,None,261.26786930003436,None,k,1,0.45082980004372075,261.26786930003436,None,,,,,,,1,001,2022_Aug_05_1459,Flanker,2021.2.0,239.73686459995284,
incongruent-right.jpg,0,k,left_arrow.png,left_arrow.png,left_arrow.png,right_arrow.png,left_arrow.png,left_arrow.png,left_arrow.png,,,,,,,,,0,5,5,3,,,,,,,,,261.73501030000625,None,,,,,,,,,,,,,,,,,,,,,,,,,,,,,,262.74425899999915,None,262.74425899999915,None,262.74425899999915,None,262.74425899999915,None,262.74425899999915,None,262.74425899999915,None,262.74425899999915,None,k,1,0.4466588000068441,262.74425899999915,None,,,,,,,1,001,2022_Aug_05_1459,Flanker,2021.2.0,239.73686459995284,
neutral left,0,a,neutral.png,neutral.png,neutral.png,left_arrow.png,neutral.png,neutral.png,neutral.png,,,,,,,,,1,0,6,4,,,,,,,,,263.20307240000693,None,,,,,,,,,,,,,,,,,,,,,,,,,,,,,,264.21665570000187,None,264.21665570000187,None,264.21665570000187,None,264.21665570000187,None,264.21665570000187,None,264.21665570000187,None,264.21665570000187,None,a,1,0.47843509999802336,264.21665570000187,None,,,,,,,1,001,2022_Aug_05_1459,Flanker,2021.2.0,239.73686459995284,
incongruent-left.jpg,0,a,right_arrow.png,right_arrow.png,right_arrow.png,left_arrow.png,right_arrow.png,right_arrow.png,right_arrow.png,,,,,,,,,1,1,7,1,,,,,,,,,264.70885150000686,None,,,,,,,,,,,,,,,,,,,,,,,,,,,,,,265.7184411000344,None,265.7184411000344,None,265.7184411000344,None,265.7184411000344,None,265.7184411000344,None,265.7184411000344,None,265.7184411000344,None,a,1,0.5291958000161685,265.7184411000344,None,,,,,,,1,001,2022_Aug_05_1459,Flanker,2021.2.0,239.73686459995284,
incongruent-right.jpg,0,k,left_arrow.png,left_arrow.png,left_arrow.png,right_arrow.png,left_arrow.png,left_arrow.png,left_arrow.png,,,,,,,,,1,2,8,3,,,,,,,,,266.260759900033,None,,,,,,,,,,,,,,,,,,,,,,,,,,,,,,267.27009930001805,None,267.27009930001805,None,267.27009930001805,None,267.27009930001805,None,267.27009930001805,None,267.27009930001805,None,267.27009930001805,None,k,1,0.5696315999957733,267.27009930001805,None,,,,,,,1,001,2022_Aug_05_1459,Flanker,2021.2.0,239.73686459995284,
neutral right,0,k,neutral.png,neutral.png,neutral.png,right_arrow.png,neutral.png,neutral.png,neutral.png,,,,,,,,,1,3,9,5,,,,,,,,,267.8541426000302,None,,,,,,,,,,,,,,,,,,,,,,,,,,,,,,268.863263700041,None,268.863263700041,None,268.863263700041,None,268.863263700041,None,268.863263700041,None,268.863263700041,None,268.863263700041,None,k,1,0.44058639998547733,268.863263700041,None,,,,,,,1,001,2022_Aug_05_1459,Flanker,2021.2.0,239.73686459995284,
congruent-left.jpg,1,a,left_arrow.png,left_arrow.png,left_arrow.png,left_arrow.png,left_arrow.png,left_arrow.png,left_arrow.png,,,,,,,,,1,4,10,0,,,,,,,,,269.32222180004464,None,,,,,,,,,,,,,,,,,,,,,,,,,,,,,,270.33567040000344,None,270.33567040000344,None,270.33567040000344,None,270.33567040000344,None,270.33567040000344,None,270.33567040000344,None,270.33567040000344,None,a,1,1.2643116999533959,270.33567040000344,None,,,,,,,1,001,2022_Aug_05_1459,Flanker,2021.2.0,239.73686459995284,
neutral right,0,k,neutral.png,neutral.png,neutral.png,right_arrow.png,neutral.png,neutral.png,neutral.png,,,,,,,,,1,5,11,5,,,,,,,,,271.61201159999473,None,,,,,,,,,,,,,,,,,,,,,,,,,,,,,,272.62155570002506,None,272.62155570002506,None,272.62155570002506,None,272.62155570002506,None,272.62155570002506,None,272.62155570002506,None,272.62155570002506,None,k,1,0.5066424999968149,272.62155570002506,None,,,,,,,1,001,2022_Aug_05_1459,Flanker,2021.2.0,239.73686459995284,
incongruent-right.jpg,0,k,left_arrow.png,left_arrow.png,left_arrow.png,right_arrow.png,left_arrow.png,left_arrow.png,left_arrow.png,,,,,,,,,2,0,12,3,,,,,,,,,273.14695000002393,None,,,,,,,,,,,,,,,,,,,,,,,,,,,,,,274.1605460999999,None,274.1605460999999,None,274.1605460999999,None,274.1605460999999,None,274.1605460999999,None,274.1605460999999,None,274.1605460999999,None,k,1,0.4558710000128485,274.1605460999999,None,,,,,,,1,001,2022_Aug_05_1459,Flanker,2021.2.0,239.73686459995284,
neutral left,0,a,neutral.png,neutral.png,neutral.png,left_arrow.png,neutral.png,neutral.png,neutral.png,,,,,,,,,2,1,13,4,,,,,,,,,274.6276981999981,None,,,,,,,,,,,,,,,,,,,,,,,,,,,,,,275.64560019999044,None,275.64560019999044,None,275.64560019999044,None,275.64560019999044,None,275.64560019999044,None,275.64560019999044,None,275.64560019999044,None,a,1,0.5230281000258401,275.64560019999044,None,,,,,,,1,001,2022_Aug_05_1459,Flanker,2021.2.0,239.73686459995284,
neutral right,0,k,neutral.png,neutral.png,neutral.png,right_arrow.png,neutral.png,neutral.png,neutral.png,,,,,,,,,2,2,14,5,,,,,,,,,276.17935650004074,None,,,,,,,,,,,,,,,,,,,,,,,,,,,,,,277.1930638999911,None,277.1930638999911,None,277.1930638999911,None,277.1930638999911,None,277.1930638999911,None,277.1930638999911,None,277.1930638999911,None,k,1,0.3917653000098653,277.1930638999911,None,,,,,,,1,001,2022_Aug_05_1459,Flanker,2021.2.0,239.73686459995284,
neutral left,0,a,neutral.png,neutral.png,neutral.png,left_arrow.png,neutral.png,neutral.png,neutral.png,,,,,,,,,2,3,15,4,,,,,,,,,277.60169169999426,None,,,,,,,,,,,,,,,,,,,,,,,,,,,,,,278.6155065000057,None,278.6155065000057,None,278.6155065000057,None,278.6155065000057,None,278.6155065000057,None,278.6155065000057,None,278.6155065000057,None,a,1,0.45769409998320043,278.6155065000057,None,,,,,,,1,001,2022_Aug_05_1459,Flanker,2021.2.0,239.73686459995284,
incongruent-right.jpg,0,k,left_arrow.png,left_arrow.png,left_arrow.png,right_arrow.png,left_arrow.png,left_arrow.png,left_arrow.png,,,,,,,,,2,4,16,3,,,,,,,,,279.0907858000137,None,,,,,,,,,,,,,,,,,,,,,,,,,,,,,,280.1001832000329,None,280.1001832000329,None,280.1001832000329,None,280.1001832000329,None,280.1001832000329,None,280.1001832000329,None,280.1001832000329,None,k,1,0.5170942000113428,280.1001832000329,None,,,,,,,1,001,2022_Aug_05_1459,Flanker,2021.2.0,239.73686459995284,
congruent-left.jpg,1,a,left_arrow.png,left_arrow.png,left_arrow.png,left_arrow.png,left_arrow.png,left_arrow.png,left_arrow.png,,,,,,,,,2,5,17,0,,,,,,,,,280.634093700035,None,,,,,,,,,,,,,,,,,,,,,,,,,,,,,,281.64364650001517,None,281.64364650001517,None,281.64364650001517,None,281.64364650001517,None,281.64364650001517,None,281.64364650001517,None,281.64364650001517,None,a,1,0.4217467999551445,281.64364650001517,None,,,,,,,1,001,2022_Aug_05_1459,Flanker,2021.2.0,239.73686459995284,
neutral left,0,a,neutral.png,neutral.png,neutral.png,left_arrow.png,neutral.png,neutral.png,neutral.png,,,,,,,,,3,0,18,4,,,,,,,,,282.077485900023,None,,,,,,,,,,,,,,,,,,,,,,,,,,,,,,283.09085259999847,None,283.09085259999847,None,283.09085259999847,None,283.09085259999847,None,283.09085259999847,None,283.09085259999847,None,283.09085259999847,None,a,1,0.4467529999674298,283.09085259999847,None,,,,,,,1,001,2022_Aug_05_1459,Flanker,2021.2.0,239.73686459995284,
neutral right,0,k,neutral.png,neutral.png,neutral.png,right_arrow.png,neutral.png,neutral.png,neutral.png,,,,,,,,,3,1,19,5,,,,,,,,,283.5496829000185,None,,,,,,,,,,,,,,,,,,,,,,,,,,,,,,284.55924410000443,None,284.55924410000443,None,284.55924410000443,None,284.55924410000443,None,284.55924410000443,None,284.55924410000443,None,284.55924410000443,None,k,1,0.4265954999718815,284.55924410000443,None,,,,,,,1,001,2022_Aug_05_1459,Flanker,2021.2.0,239.73686459995284,
incongruent-left.jpg,0,a,right_arrow.png,right_arrow.png,right_arrow.png,left_arrow.png,right_arrow.png,right_arrow.png,right_arrow.png,,,,,,,,,3,2,20,1,,,,,,,,,285.00121170002967,None,,,,,,,,,,,,,,,,,,,,,,,,,,,,,,286.01479230000405,None,286.01479230000405,None,286.01479230000405,None,286.01479230000405,None,286.01479230000405,None,286.01479230000405,None,286.01479230000405,None,a,1,0.4035069000092335,286.01479230000405,None,,,,,,,1,001,2022_Aug_05_1459,Flanker,2021.2.0,239.73686459995284,
congruent-left.jpg,1,a,left_arrow.png,left_arrow.png,left_arrow.png,left_arrow.png,left_arrow.png,left_arrow.png,left_arrow.png,,,,,,,,,3,3,21,0,,,,,,,,,286.4321467000409,None,,,,,,,,,,,,,,,,,,,,,,,,,,,,,,287.441578500031,None,287.441578500031,None,287.441578500031,None,287.441578500031,None,287.441578500031,None,287.441578500031,None,287.441578500031,None,a,1,0.4726282000192441,287.441578500031,None,,,,,,,1,001,2022_Aug_05_1459,Flanker,2021.2.0,239.73686459995284,
neutral right,0,k,neutral.png,neutral.png,neutral.png,right_arrow.png,neutral.png,neutral.png,neutral.png,,,,,,,,,3,4,22,5,,,,,,,,,287.9334628999932,None,,,,,,,,,,,,,,,,,,,,,,,,,,,,,,288.9431692000362,None,288.9431692000362,None,288.9431692000362,None,288.9431692000362,None,288.9431692000362,None,288.9431692000362,None,288.9431692000362,None,k,1,0.3792523000156507,288.9431692000362,None,,,,,,,1,001,2022_Aug_05_1459,Flanker,2021.2.0,239.73686459995284,
incongruent-right.jpg,0,k,left_arrow.png,left_arrow.png,left_arrow.png,right_arrow.png,left_arrow.png,left_arrow.png,left_arrow.png,,,,,,,,,3,5,23,3,,,,,,,,,289.3350068000145,None,,,,,,,,,,,,,,,,,,,,,,,,,,,,,,290.3488110000035,None,290.3488110000035,None,290.3488110000035,None,290.3488110000035,None,290.3488110000035,None,290.3488110000035,None,290.3488110000035,None,k,1,0.5978176000062376,290.3488110000035,None,,,,,,,1,001,2022_Aug_05_1459,Flanker,2021.2.0,239.73686459995284,
neutral right,0,k,neutral.png,neutral.png,neutral.png,right_arrow.png,neutral.png,neutral.png,neutral.png,,,,,,,,,4,0,24,5,,,,,,,,,290.9577919000294,None,,,,,,,,,,,,,,,,,,,,,,,,,,,,,,291.9714051000192,None,291.9714051000192,None,291.9714051000192,None,291.9714051000192,None,291.9714051000192,None,291.9714051000192,None,291.9714051000192,None,k,1,0.39987649995600805,291.9714051000192,None,,,,,,,1,001,2022_Aug_05_1459,Flanker,2021.2.0,239.73686459995284,
incongruent-left.jpg,0,a,right_arrow.png,right_arrow.png,right_arrow.png,left_arrow.png,right_arrow.png,right_arrow.png,right_arrow.png,,,,,,,,,4,1,25,1,,,,,,,,,292.3884809000301,None,,,,,,,,,,,,,,,,,,,,,,,,,,,,,,293.39762160001555,None,293.39762160001555,None,293.39762160001555,None,293.39762160001555,None,293.39762160001555,None,293.39762160001555,None,293.39762160001555,None,a,1,0.36541279999073595,293.39762160001555,None,,,,,,,1,001,2022_Aug_05_1459,Flanker,2021.2.0,239.73686459995284,
congruent-right.jpg,1,k,right_arrow.png,right_arrow.png,right_arrow.png,right_arrow.png,right_arrow.png,right_arrow.png,right_arrow.png,,,,,,,,,4,2,26,2,,,,,,,,,293.7816878000158,None,,,,,,,,,,,,,,,,,,,,,,,,,,,,,,294.79493060003733,None,294.79493060003733,None,294.79493060003733,None,294.79493060003733,None,294.79493060003733,None,294.79493060003733,None,294.79493060003733,None,k,1,0.38457029999699444,294.79493060003733,None,,,,,,,1,001,2022_Aug_05_1459,Flanker,2021.2.0,239.73686459995284,
congruent-right.jpg,1,k,right_arrow.png,right_arrow.png,right_arrow.png,right_arrow.png,right_arrow.png,right_arrow.png,right_arrow.png,,,,,,,,,4,3,27,2,,,,,,,,,295.19563550001476,None,,,,,,,,,,,,,,,,,,,,,,,,,,,,,,296.20892790000653,None,296.20892790000653,None,296.20892790000653,None,296.20892790000653,None,296.20892790000653,None,296.20892790000653,None,296.20892790000653,None,k,1,0.4507563999504782,296.20892790000653,None,,,,,,,1,001,2022_Aug_05_1459,Flanker,2021.2.0,239.73686459995284,
congruent-left.jpg,1,a,left_arrow.png,left_arrow.png,left_arrow.png,left_arrow.png,left_arrow.png,left_arrow.png,left_arrow.png,,,,,,,,,4,4,28,0,,,,,,,,,296.6763520000386,None,,,,,,,,,,,,,,,,,,,,,,,,,,,,,,297.68969470000593,None,297.68969470000593,None,297.68969470000593,None,297.68969470000593,None,297.68969470000593,None,297.68969470000593,None,297.68969470000593,None,a,1,0.42618169996421784,297.68969470000593,None,,,,,,,1,001,2022_Aug_05_1459,Flanker,2021.2.0,239.73686459995284,
incongruent-left.jpg,0,a,right_arrow.png,right_arrow.png,right_arrow.png,left_arrow.png,right_arrow.png,right_arrow.png,right_arrow.png,,,,,,,,,4,5,29,1,,,,,,,,,298.1320865000016,None,,,,,,,,,,,,,,,,,,,,,,,,,,,,,,299.1371766999946,None,299.1371766999946,None,299.1371766999946,None,299.1371766999946,None,299.1371766999946,None,299.1371766999946,None,299.1371766999946,None,k,0,0.33859990001656115,299.1371766999946,None,,,,,,,1,001,2022_Aug_05_1459,Flanker,2021.2.0,239.73686459995284,
incongruent-right.jpg,0,k,left_arrow.png,left_arrow.png,left_arrow.png,right_arrow.png,left_arrow.png,left_arrow.png,left_arrow.png,,,,,,,,,5,0,30,3,,,,,,,,,299.48767729999963,None,,,,,,,,,,,,,,,,,,,,,,,,,,,,,,300.5012396000093,None,300.5012396000093,None,300.5012396000093,None,300.5012396000093,None,300.5012396000093,None,300.5012396000093,None,300.5012396000093,None,k,1,0.6307810999569483,300.5012396000093,None,,,,,,,1,001,2022_Aug_05_1459,Flanker,2021.2.0,239.73686459995284,
congruent-right.jpg,1,k,right_arrow.png,right_arrow.png,right_arrow.png,right_arrow.png,right_arrow.png,right_arrow.png,right_arrow.png,,,,,,,,,5,1,31,2,,,,,,,,,301.1436972999945,None,,,,,,,,,,,,,,,,,,,,,,,,,,,,,,302.15227020002203,None,302.15227020002203,None,302.15227020002203,None,302.15227020002203,None,302.15227020002203,None,302.15227020002203,None,302.15227020002203,None,k,1,0.492294600000605,302.15227020002203,None,,,,,,,1,001,2022_Aug_05_1459,Flanker,2021.2.0,239.73686459995284,
congruent-right.jpg,1,k,right_arrow.png,right_arrow.png,right_arrow.png,right_arrow.png,right_arrow.png,right_arrow.png,right_arrow.png,,,,,,,,,5,2,32,2,,,,,,,,,302.6619598999969,None,,,,,,,,,,,,,,,,,,,,,,,,,,,,,,303.6712963000173,None,303.6712963000173,None,303.6712963000173,None,303.6712963000173,None,303.6712963000173,None,303.6712963000173,None,303.6712963000173,None,k,1,0.36511900002369657,303.6712963000173,None,,,,,,,1,001,2022_Aug_05_1459,Flanker,2021.2.0,239.73686459995284,
neutral left,0,a,neutral.png,neutral.png,neutral.png,left_arrow.png,neutral.png,neutral.png,neutral.png,,,,,,,,,5,3,33,4,,,,,,,,,304.055077099998,None,,,,,,,,,,,,,,,,,,,,,,,,,,,,,,305.068571300013,None,305.068571300013,None,305.068571300013,None,305.068571300013,None,305.068571300013,None,305.068571300013,None,305.068571300013,None,k,0,0.36040459998184815,305.068571300013,None,,,,,,,1,001,2022_Aug_05_1459,Flanker,2021.2.0,239.73686459995284,
neutral left,0,a,neutral.png,neutral.png,neutral.png,left_arrow.png,neutral.png,neutral.png,neutral.png,,,,,,,,,5,4,34,4,,,,,,,,,305.4440098000341,None,,,,,,,,,,,,,,,,,,,,,,,,,,,,,,306.45326380000915,None,306.45326380000915,None,306.45326380000915,None,306.45326380000915,None,306.45326380000915,None,306.45326380000915,None,306.45326380000915,None,a,1,0.46353219996672124,306.45326380000915,None,,,,,,,1,001,2022_Aug_05_1459,Flanker,2021.2.0,239.73686459995284,
congruent-right.jpg,1,k,right_arrow.png,right_arrow.png,right_arrow.png,right_arrow.png,right_arrow.png,right_arrow.png,right_arrow.png,,,,,,,,,5,5,35,2,,,,,,,,,306.9288996999967,None,,,,,,,,,,,,,,,,,,,,,,,,,,,,,,307.94248920003884,None,307.94248920003884,None,307.94248920003884,None,307.94248920003884,None,307.94248920003884,None,307.94248920003884,None,307.94248920003884,None,k,1,0.6466182000003755,307.94248920003884,None,,,,,,,1,001,2022_Aug_05_1459,Flanker,2021.2.0,239.73686459995284,
congruent-right.jpg,1,k,right_arrow.png,right_arrow.png,right_arrow.png,right_arrow.png,right_arrow.png,right_arrow.png,right_arrow.png,,,,,,,,,6,0,36,2,,,,,,,,,308.6012547000428,None,,,,,,,,,,,,,,,,,,,,,,,,,,,,,,309.6109349000035,None,309.6109349000035,None,309.6109349000035,None,309.6109349000035,None,309.6109349000035,None,309.6109349000035,None,309.6109349000035,None,k,1,0.49027680000290275,309.6109349000035,None,,,,,,,1,001,2022_Aug_05_1459,Flanker,2021.2.0,239.73686459995284,
congruent-left.jpg,1,a,left_arrow.png,left_arrow.png,left_arrow.png,left_arrow.png,left_arrow.png,left_arrow.png,left_arrow.png,,,,,,,,,6,1,37,0,,,,,,,,,310.1197509000194,None,,,,,,,,,,,,,,,,,,,,,,,,,,,,,,311.13344370003324,None,311.13344370003324,None,311.13344370003324,None,311.13344370003324,None,311.13344370003324,None,311.13344370003324,None,311.13344370003324,None,a,1,0.4719813000410795,311.13344370003324,None,,,,,,,1,001,2022_Aug_05_1459,Flanker,2021.2.0,239.73686459995284,
incongruent-left.jpg,0,a,right_arrow.png,right_arrow.png,right_arrow.png,left_arrow.png,right_arrow.png,right_arrow.png,right_arrow.png,,,,,,,,,6,2,38,1,,,,,,,,,311.6173470999929,None,,,,,,,,,,,,,,,,,,,,,,,,,,,,,,312.6224460999947,None,312.6224460999947,None,312.6224460999947,None,312.6224460999947,None,312.6224460999947,None,312.6224460999947,None,312.6224460999947,None,a,1,0.5114828000077978,312.6224460999947,None,,,,,,,1,001,2022_Aug_05_1459,Flanker,2021.2.0,239.73686459995284,
incongruent-left.jpg,0,a,right_arrow.png,right_arrow.png,right_arrow.png,left_arrow.png,right_arrow.png,right_arrow.png,right_arrow.png,,,,,,,,,6,3,39,1,,,,,,,,,313.1479974000249,None,,,,,,,,,,,,,,,,,,,,,,,,,,,,,,314.1615916999872,None,314.1615916999872,None,314.1615916999872,None,314.1615916999872,None,314.1615916999872,None,314.1615916999872,None,314.1615916999872,None,a,1,0.42071460001170635,314.1615916999872,None,,,,,,,1,001,2022_Aug_05_1459,Flanker,2021.2.0,239.73686459995284,
neutral left,0,a,neutral.png,neutral.png,neutral.png,left_arrow.png,neutral.png,neutral.png,neutral.png,,,,,,,,,6,4,40,4,,,,,,,,,314.5954391999985,None,,,,,,,,,,,,,,,,,,,,,,,,,,,,,,315.6086779999896,None,315.6086779999896,None,315.6086779999896,None,315.6086779999896,None,315.6086779999896,None,315.6086779999896,None,315.6086779999896,None,a,1,0.3893538999836892,315.6086779999896,None,,,,,,,1,001,2022_Aug_05_1459,Flanker,2021.2.0,239.73686459995284,
incongruent-right.jpg,0,k,left_arrow.png,left_arrow.png,left_arrow.png,right_arrow.png,left_arrow.png,left_arrow.png,left_arrow.png,,,,,,,,,6,5,41,3,,,,,,,,,316.0094315999886,None,,,,,,,,,,,,,,,,,,,,,,,,,,,,,,317.02294860000256,None,317.02294860000256,None,317.02294860000256,None,317.02294860000256,None,317.02294860000256,None,317.02294860000256,None,317.02294860000256,None,k,1,0.4632915999973193,317.02294860000256,None,,,,,,,1,001,2022_Aug_05_1459,Flanker,2021.2.0,239.73686459995284,
congruent-right.jpg,1,k,right_arrow.png,right_arrow.png,right_arrow.png,right_arrow.png,right_arrow.png,right_arrow.png,right_arrow.png,,,,,,,,,7,0,42,2,,,,,,,,,317.4984792000032,None,,,,,,,,,,,,,,,,,,,,,,,,,,,,,,318.51207200001227,None,318.51207200001227,None,318.51207200001227,None,318.51207200001227,None,318.51207200001227,None,318.51207200001227,None,318.51207200001227,None,k,1,0.3986282999976538,318.51207200001227,None,,,,,,,1,001,2022_Aug_05_1459,Flanker,2021.2.0,239.73686459995284,
congruent-left.jpg,1,a,left_arrow.png,left_arrow.png,left_arrow.png,left_arrow.png,left_arrow.png,left_arrow.png,left_arrow.png,,,,,,,,,7,1,43,0,,,,,,,,,318.92916110000806,None,,,,,,,,,,,,,,,,,,,,,,,,,,,,,,319.938604200026,None,319.938604200026,None,319.938604200026,None,319.938604200026,None,319.938604200026,None,319.938604200026,None,319.938604200026,None,a,1,0.3880203000153415,319.938604200026,None,,,,,,,1,001,2022_Aug_05_1459,Flanker,2021.2.0,239.73686459995284,
incongruent-left.jpg,0,a,right_arrow.png,right_arrow.png,right_arrow.png,left_arrow.png,right_arrow.png,right_arrow.png,right_arrow.png,,,,,,,,,7,2,44,1,,,,,,,,,320.33868350001285,None,,,,,,,,,,,,,,,,,,,,,,,,,,,,,,321.35226770001464,None,321.35226770001464,None,321.35226770001464,None,321.35226770001464,None,321.35226770001464,None,321.35226770001464,None,321.35226770001464,None,a,1,0.5265779999899678,321.35226770001464,None,,,,,,,1,001,2022_Aug_05_1459,Flanker,2021.2.0,239.73686459995284,
incongruent-right.jpg,0,k,left_arrow.png,left_arrow.png,left_arrow.png,right_arrow.png,left_arrow.png,left_arrow.png,left_arrow.png,,,,,,,,,7,3,45,3,,,,,,,,,321.89451559999725,None,,,,,,,,,,,,,,,,,,,,,,,,,,,,,,322.9039080000366,None,322.9039080000366,None,322.9039080000366,None,322.9039080000366,None,322.9039080000366,None,322.9039080000366,None,322.9039080000366,None,k,1,0.5192486000014469,322.9039080000366,None,,,,,,,1,001,2022_Aug_05_1459,Flanker,2021.2.0,239.73686459995284,
congruent-left.jpg,1,a,left_arrow.png,left_arrow.png,left_arrow.png,left_arrow.png,left_arrow.png,left_arrow.png,left_arrow.png,,,,,,,,,7,4,46,0,,,,,,,,,323.4378040000447,None,,,,,,,,,,,,,,,,,,,,,,,,,,,,,,324.4472483000136,None,324.4472483000136,None,324.4472483000136,None,324.4472483000136,None,324.4472483000136,None,324.4472483000136,None,324.4472483000136,None,a,1,1.2641082999762148,324.4472483000136,None,,,,,,,1,001,2022_Aug_05_1459,Flanker,2021.2.0,239.73686459995284,
incongruent-left.jpg,0,a,right_arrow.png,right_arrow.png,right_arrow.png,left_arrow.png,right_arrow.png,right_arrow.png,right_arrow.png,,,,,,,,,7,5,47,1,,,,,,,,,325.723908999993,None,,,,,,,,,,,,,,,,,,,,,,,,,,,,,,326.7332462000195,None,326.7332462000195,None,326.7332462000195,None,326.7332462000195,None,326.7332462000195,None,326.7332462000195,None,326.7332462000195,None,a,1,0.4187498999526724,326.7332462000195,None,,,,,,,1,001,2022_Aug_05_1459,Flanker,2021.2.0,239.73686459995284,
,,,,,,,,,,,,,,,,,,,,,,,,,,,,,,,,,,,,,,,,,,,,,,,,,,,,,,,,,,,,,,,,,,,,,,,,,,,,,,,,327.1793190999888,None,space,3.6449312000186183,327.1793190999888,None,1,001,2022_Aug_05_1459,Flanker,2021.2.0,239.73686459995284,
neutral right,0,k,neutral.png,neutral.png,neutral.png,right_arrow.png,neutral.png,neutral.png,neutral.png,,,,,,,,,,,,,0,0,0,5,,,,,330.84986850002315,None,,,,,,,,,,,,,,,,,,,,,,,,,,,,,,331.8512039000052,None,331.8512039000052,None,331.8512039000052,None,331.8512039000052,None,331.8512039000052,None,331.8512039000052,None,331.8512039000052,None,k,1,0.4210830999654718,331.8512039000052,None,,,,,,,1,001,2022_Aug_05_1459,Flanker,2021.2.0,239.73686459995284,
incongruent-left.jpg,0,a,right_arrow.png,right_arrow.png,right_arrow.png,left_arrow.png,right_arrow.png,right_arrow.png,right_arrow.png,,,,,,,,,,,,,0,1,1,1,,,,,332.2847172000329,None,,,,,,,,,,,,,,,,,,,,,,,,,,,,,,333.29829040000914,None,333.29829040000914,None,333.29829040000914,None,333.29829040000914,None,333.29829040000914,None,333.29829040000914,None,333.29829040000914,None,a,1,0.44617720000678673,333.29829040000914,None,,,,,,,1,001,2022_Aug_05_1459,Flanker,2021.2.0,239.73686459995284,
neutral left,0,a,neutral.png,neutral.png,neutral.png,left_arrow.png,neutral.png,neutral.png,neutral.png,,,,,,,,,,,,,0,2,2,4,,,,,333.75718060001964,None,,,,,,,,,,,,,,,,,,,,,,,,,,,,,,334.76680290000513,None,334.76680290000513,None,334.76680290000513,None,334.76680290000513,None,334.76680290000513,None,334.76680290000513,None,334.76680290000513,None,a,1,0.4338937000138685,334.76680290000513,None,,,,,,,1,001,2022_Aug_05_1459,Flanker,2021.2.0,239.73686459995284,
incongruent-left.jpg,0,a,right_arrow.png,right_arrow.png,right_arrow.png,left_arrow.png,right_arrow.png,right_arrow.png,right_arrow.png,,,,,,,,,,,,,0,3,3,1,,,,,335.2170143999974,None,,,,,,,,,,,,,,,,,,,,,,,,,,,,,,336.23059460002696,None,336.23059460002696,None,336.23059460002696,None,336.23059460002696,None,336.23059460002696,None,336.23059460002696,None,336.23059460002696,None,k,0,0.40229810000164434,336.23059460002696,None,,,,,,,1,001,2022_Aug_05_1459,Flanker,2021.2.0,239.73686459995284,
incongruent-left.jpg,0,a,right_arrow.png,right_arrow.png,right_arrow.png,left_arrow.png,right_arrow.png,right_arrow.png,right_arrow.png,,,,,,,,,,,,,0,4,4,1,,,,,336.64768270001514,None,,,,,,,,,,,,,,,,,,,,,,,,,,,,,,337.66139980003936,None,337.66139980003936,None,337.66139980003936,None,337.66139980003936,None,337.66139980003936,None,337.66139980003936,None,337.66139980003936,None,a,1,0.5316767999902368,337.66139980003936,None,,,,,,,1,001,2022_Aug_05_1459,Flanker,2021.2.0,239.73686459995284,
neutral right,0,k,neutral.png,neutral.png,neutral.png,right_arrow.png,neutral.png,neutral.png,neutral.png,,,,,,,,,,,,,0,5,5,5,,,,,338.21190920000663,None,,,,,,,,,,,,,,,,,,,,,,,,,,,,,,339.22124450001866,None,339.22124450001866,None,339.22124450001866,None,339.22124450001866,None,339.22124450001866,None,339.22124450001866,None,339.22124450001866,None,k,1,0.4520737999700941,339.22124450001866,None,,,,,,,1,001,2022_Aug_05_1459,Flanker,2021.2.0,239.73686459995284,
incongruent-left.jpg,0,a,right_arrow.png,right_arrow.png,right_arrow.png,left_arrow.png,right_arrow.png,right_arrow.png,right_arrow.png,,,,,,,,,,,,,1,0,6,1,,,,,339.6884126000223,None,,,,,,,,,,,,,,,,,,,,,,,,,,,,,,340.6978182999883,None,340.6978182999883,None,340.6978182999883,None,340.6978182999883,None,340.6978182999883,None,340.6978182999883,None,340.6978182999883,None,a,1,0.44765950000146404,340.6978182999883,None,,,,,,,1,001,2022_Aug_05_1459,Flanker,2021.2.0,239.73686459995284,
incongruent-left.jpg,0,a,right_arrow.png,right_arrow.png,right_arrow.png,left_arrow.png,right_arrow.png,right_arrow.png,right_arrow.png,,,,,,,,,,,,,1,1,7,1,,,,,341.1566642000107,None,,,,,,,,,,,,,,,,,,,,,,,,,,,,,,342.17042680003215,None,342.17042680003215,None,342.17042680003215,None,342.17042680003215,None,342.17042680003215,None,342.17042680003215,None,342.17042680003215,None,a,1,0.44724370003677905,342.17042680003215,None,,,,,,,1,001,2022_Aug_05_1459,Flanker,2021.2.0,239.73686459995284,
congruent-right.jpg,1,k,right_arrow.png,right_arrow.png,right_arrow.png,right_arrow.png,right_arrow.png,right_arrow.png,right_arrow.png,,,,,,,,,,,,,1,2,8,2,,,,,342.6290352999931,None,,,,,,,,,,,,,,,,,,,,,,,,,,,,,,343.63853590004146,None,343.63853590004146,None,343.63853590004146,None,343.63853590004146,None,343.63853590004146,None,343.63853590004146,None,343.63853590004146,None,k,1,0.44336129998555407,343.63853590004146,None,,,,,,,1,001,2022_Aug_05_1459,Flanker,2021.2.0,239.73686459995284,
incongruent-right.jpg,0,k,left_arrow.png,left_arrow.png,left_arrow.png,right_arrow.png,left_arrow.png,left_arrow.png,left_arrow.png,,,,,,,,,,,,,1,3,9,3,,,,,344.097313700011,None,,,,,,,,,,,,,,,,,,,,,,,,,,,,,,345.1109887000057,None,345.1109887000057,None,345.1109887000057,None,345.1109887000057,None,345.1109887000057,None,345.1109887000057,None,345.1109887000057,None,a,0,0.40311029995791614,345.1109887000057,None,,,,,,,1,001,2022_Aug_05_1459,Flanker,2021.2.0,239.73686459995284,
congruent-right.jpg,1,k,right_arrow.png,right_arrow.png,right_arrow.png,right_arrow.png,right_arrow.png,right_arrow.png,right_arrow.png,,,,,,,,,,,,,1,4,10,2,,,,,345.5281786000123,None,,,,,,,,,,,,,,,,,,,,,,,,,,,,,,346.5415145000443,None,346.5415145000443,None,346.5415145000443,None,346.5415145000443,None,346.5415145000443,None,346.5415145000443,None,346.5415145000443,None,k,1,0.4607918999972753,346.5415145000443,None,,,,,,,1,001,2022_Aug_05_1459,Flanker,2021.2.0,239.73686459995284,
congruent-right.jpg,1,k,right_arrow.png,right_arrow.png,right_arrow.png,right_arrow.png,right_arrow.png,right_arrow.png,right_arrow.png,,,,,,,,,,,,,1,5,11,2,,,,,347.01703180000186,None,,,,,,,,,,,,,,,,,,,,,,,,,,,,,,348.03060880000703,None,348.03060880000703,None,348.03060880000703,None,348.03060880000703,None,348.03060880000703,None,348.03060880000703,None,348.03060880000703,None,k,1,0.3798444999847561,348.03060880000703,None,,,,,,,1,001,2022_Aug_05_1459,Flanker,2021.2.0,239.73686459995284,
congruent-right.jpg,1,k,right_arrow.png,right_arrow.png,right_arrow.png,right_arrow.png,right_arrow.png,right_arrow.png,right_arrow.png,,,,,,,,,,,,,2,0,12,2,,,,,348.42274650000036,None,,,,,,,,,,,,,,,,,,,,,,,,,,,,,,349.43231350003043,None,349.43231350003043,None,349.43231350003043,None,349.43231350003043,None,349.43231350003043,None,349.43231350003043,None,349.43231350003043,None,a,0,0.5063673999975435,349.43231350003043,None,,,,,,,1,001,2022_Aug_05_1459,Flanker,2021.2.0,239.73686459995284,
congruent-left.jpg,1,a,left_arrow.png,left_arrow.png,left_arrow.png,left_arrow.png,left_arrow.png,left_arrow.png,left_arrow.png,,,,,,,,,,,,,2,1,13,0,,,,,349.9576256000437,None,,,,,,,,,,,,,,,,,,,,,,,,,,,,,,350.97136299998965,None,350.97136299998965,None,350.97136299998965,None,350.97136299998965,None,350.97136299998965,None,350.97136299998965,None,350.97136299998965,None,a,1,0.5918347000260837,350.97136299998965,None,,,,,,,1,001,2022_Aug_05_1459,Flanker,2021.2.0,239.73686459995284,
neutral left,0,a,neutral.png,neutral.png,neutral.png,left_arrow.png,neutral.png,neutral.png,neutral.png,,,,,,,,,,,,,2,2,14,4,,,,,351.58042290003505,None,,,,,,,,,,,,,,,,,,,,,,,,,,,,,,352.5895974999876,None,352.5895974999876,None,352.5895974999876,None,352.5895974999876,None,352.5895974999876,None,352.5895974999876,None,352.5895974999876,None,a,1,0.5336269999970682,352.5895974999876,None,,,,,,,1,001,2022_Aug_05_1459,Flanker,2021.2.0,239.73686459995284,
congruent-left.jpg,1,a,left_arrow.png,left_arrow.png,left_arrow.png,left_arrow.png,left_arrow.png,left_arrow.png,left_arrow.png,,,,,,,,,,,,,2,3,15,0,,,,,353.14045260002604,None,,,,,,,,,,,,,,,,,,,,,,,,,,,,,,354.15789949998725,None,354.15789949998725,None,354.15789949998725,None,354.15789949998725,None,354.15789949998725,None,354.15789949998725,None,354.15789949998725,None,a,1,0.5577009000116959,354.15789949998725,None,,,,,,,1,001,2022_Aug_05_1459,Flanker,2021.2.0,239.73686459995284,
neutral right,0,k,neutral.png,neutral.png,neutral.png,right_arrow.png,neutral.png,neutral.png,neutral.png,,,,,,,,,,,,,2,4,16,5,,,,,354.73377880000044,None,,,,,,,,,,,,,,,,,,,,,,,,,,,,,,355.7431185999885,None,355.7431185999885,None,355.7431185999885,None,355.7431185999885,None,355.7431185999885,None,355.7431185999885,None,355.7431185999885,None,k,1,0.364392300019972,355.7431185999885,None,,,,,,,1,001,2022_Aug_05_1459,Flanker,2021.2.0,239.73686459995284,
incongruent-right.jpg,0,k,left_arrow.png,left_arrow.png,left_arrow.png,right_arrow.png,left_arrow.png,left_arrow.png,left_arrow.png,,,,,,,,,,,,,2,5,17,3,,,,,356.126832900045,None,,,,,,,,,,,,,,,,,,,,,,,,,,,,,,357.14033150003524,None,357.14033150003524,None,357.14033150003524,None,357.14033150003524,None,357.14033150003524,None,357.14033150003524,None,357.14033150003524,None,k,1,0.4713933999883011,357.14033150003524,None,,,,,,,1,001,2022_Aug_05_1459,Flanker,2021.2.0,239.73686459995284,
congruent-left.jpg,1,a,left_arrow.png,left_arrow.png,left_arrow.png,left_arrow.png,left_arrow.png,left_arrow.png,left_arrow.png,,,,,,,,,,,,,3,0,18,0,,,,,357.62411239999346,None,,,,,,,,,,,,,,,,,,,,,,,,,,,,,,358.6338094000239,None,358.6338094000239,None,358.6338094000239,None,358.6338094000239,None,358.6338094000239,None,358.6338094000239,None,358.6338094000239,None,a,1,0.4181259999750182,358.6338094000239,None,,,,,,,1,001,2022_Aug_05_1459,Flanker,2021.2.0,239.73686459995284,
congruent-left.jpg,1,a,left_arrow.png,left_arrow.png,left_arrow.png,left_arrow.png,left_arrow.png,left_arrow.png,left_arrow.png,,,,,,,,,,,,,3,1,19,0,,,,,359.0676119000418,None,,,,,,,,,,,,,,,,,,,,,,,,,,,,,,360.08518890000414,None,360.08518890000414,None,360.08518890000414,None,360.08518890000414,None,360.08518890000414,None,360.08518890000414,None,360.08518890000414,None,a,1,0.42294069996569306,360.08518890000414,None,,,,,,,1,001,2022_Aug_05_1459,Flanker,2021.2.0,239.73686459995284,
neutral right,0,k,neutral.png,neutral.png,neutral.png,right_arrow.png,neutral.png,neutral.png,neutral.png,,,,,,,,,,,,,3,2,20,5,,,,,360.52719689998776,None,,,,,,,,,,,,,,,,,,,,,,,,,,,,,,361.53660650004167,None,361.53660650004167,None,361.53660650004167,None,361.53660650004167,None,361.53660650004167,None,361.53660650004167,None,361.53660650004167,None,k,1,0.4437344999751076,361.53660650004167,None,,,,,,,1,001,2022_Aug_05_1459,Flanker,2021.2.0,239.73686459995284,
incongruent-left.jpg,0,a,right_arrow.png,right_arrow.png,right_arrow.png,left_arrow.png,right_arrow.png,right_arrow.png,right_arrow.png,,,,,,,,,,,,,3,3,21,1,,,,,361.99540340004023,None,,,,,,,,,,,,,,,,,,,,,,,,,,,,,,363.0089880999876,None,363.0089880999876,None,363.0089880999876,None,363.0089880999876,None,363.0089880999876,None,363.0089880999876,None,363.0089880999876,None,a,1,0.43554720003157854,363.0089880999876,None,,,,,,,1,001,2022_Aug_05_1459,Flanker,2021.2.0,239.73686459995284,
incongruent-right.jpg,0,k,left_arrow.png,left_arrow.png,left_arrow.png,right_arrow.png,left_arrow.png,left_arrow.png,left_arrow.png,,,,,,,,,,,,,3,4,22,3,,,,,363.45953709998867,None,,,,,,,,,,,,,,,,,,,,,,,,,,,,,,364.46901639999123,None,364.46901639999123,None,364.46901639999123,None,364.46901639999123,None,364.46901639999123,None,364.46901639999123,None,364.46901639999123,None,k,1,0.47969750000629574,364.46901639999123,None,,,,,,,1,001,2022_Aug_05_1459,Flanker,2021.2.0,239.73686459995284,
incongruent-right.jpg,0,k,left_arrow.png,left_arrow.png,left_arrow.png,right_arrow.png,left_arrow.png,left_arrow.png,left_arrow.png,,,,,,,,,,,,,3,5,23,3,,,,,364.9611326000304,None,,,,,,,,,,,,,,,,,,,,,,,,,,,,,,365.97477279999293,None,365.97477279999293,None,365.97477279999293,None,365.97477279999293,None,365.97477279999293,None,365.97477279999293,None,365.97477279999293,None,k,1,0.53423190000467,365.97477279999293,None,,,,,,,1,001,2022_Aug_05_1459,Flanker,2021.2.0,239.73686459995284,
neutral left,0,a,neutral.png,neutral.png,neutral.png,left_arrow.png,neutral.png,neutral.png,neutral.png,,,,,,,,,,,,,4,0,24,4,,,,,366.52522569999564,None,,,,,,,,,,,,,,,,,,,,,,,,,,,,,,367.534627999994,None,367.534627999994,None,367.534627999994,None,367.534627999994,None,367.534627999994,None,367.534627999994,None,367.534627999994,None,a,1,0.4224879000103101,367.534627999994,None,,,,,,,1,001,2022_Aug_05_1459,Flanker,2021.2.0,239.73686459995284,
incongruent-right.jpg,0,k,left_arrow.png,left_arrow.png,left_arrow.png,right_arrow.png,left_arrow.png,left_arrow.png,left_arrow.png,,,,,,,,,,,,,4,1,25,3,,,,,367.96864219999406,None,,,,,,,,,,,,,,,,,,,,,,,,,,,,,,368.98200030002045,None,368.98200030002045,None,368.98200030002045,None,368.98200030002045,None,368.98200030002045,None,368.98200030002045,None,368.98200030002045,None,k,1,0.4473176999599673,368.98200030002045,None,,,,,,,1,001,2022_Aug_05_1459,Flanker,2021.2.0,239.73686459995284,
neutral left,0,a,neutral.png,neutral.png,neutral.png,left_arrow.png,neutral.png,neutral.png,neutral.png,,,,,,,,,,,,,4,2,26,4,,,,,369.4408836000366,None,,,,,,,,,,,,,,,,,,,,,,,,,,,,,,370.45034820004366,None,370.45034820004366,None,370.45034820004366,None,370.45034820004366,None,370.45034820004366,None,370.45034820004366,None,370.45034820004366,None,a,1,0.39521280000917614,370.45034820004366,None,,,,,,,1,001,2022_Aug_05_1459,Flanker,2021.2.0,239.73686459995284,
congruent-right.jpg,1,k,right_arrow.png,right_arrow.png,right_arrow.png,right_arrow.png,right_arrow.png,right_arrow.png,right_arrow.png,,,,,,,,,,,,,4,3,27,2,,,,,370.85898290004116,None,,,,,,,,,,,,,,,,,,,,,,,,,,,,,,371.8767416999908,None,371.8767416999908,None,371.8767416999908,None,371.8767416999908,None,371.8767416999908,None,371.8767416999908,None,371.8767416999908,None,k,1,0.4010534000117332,371.8767416999908,None,,,,,,,1,001,2022_Aug_05_1459,Flanker,2021.2.0,239.73686459995284,
neutral left,0,a,neutral.png,neutral.png,neutral.png,left_arrow.png,neutral.png,neutral.png,neutral.png,,,,,,,,,,,,,4,4,28,4,,,,,372.29385610000463,None,,,,,,,,,,,,,,,,,,,,,,,,,,,,,,373.30326439999044,None,373.30326439999044,None,373.30326439999044,None,373.30326439999044,None,373.30326439999044,None,373.30326439999044,None,373.30326439999044,None,a,1,0.3986334999790415,373.30326439999044,None,,,,,,,1,001,2022_Aug_05_1459,Flanker,2021.2.0,239.73686459995284,
neutral right,0,k,neutral.png,neutral.png,neutral.png,right_arrow.png,neutral.png,neutral.png,neutral.png,,,,,,,,,,,,,4,5,29,5,,,,,373.72040130000096,None,,,,,,,,,,,,,,,,,,,,,,,,,,,,,,374.7340583000332,None,374.7340583000332,None,374.7340583000332,None,374.7340583000332,None,374.7340583000332,None,374.7340583000332,None,374.7340583000332,None,k,1,0.34405810001771897,374.7340583000332,None,,,,,,,1,001,2022_Aug_05_1459,Flanker,2021.2.0,239.73686459995284,
congruent-right.jpg,1,k,right_arrow.png,right_arrow.png,right_arrow.png,right_arrow.png,right_arrow.png,right_arrow.png,right_arrow.png,,,,,,,,,,,,,5,0,30,2,,,,,375.09272950002924,None,,,,,,,,,,,,,,,,,,,,,,,,,,,,,,376.10203690000344,None,376.10203690000344,None,376.10203690000344,None,376.10203690000344,None,376.10203690000344,None,376.10203690000344,None,376.10203690000344,None,k,1,0.5123067999957129,376.10203690000344,None,,,,,,,1,001,2022_Aug_05_1459,Flanker,2021.2.0,239.73686459995284,
neutral right,0,k,neutral.png,neutral.png,neutral.png,right_arrow.png,neutral.png,neutral.png,neutral.png,,,,,,,,,,,,,5,1,31,5,,,,,376.6275942000211,None,,,,,,,,,,,,,,,,,,,,,,,,,,,,,,377.64126440003747,None,377.64126440003747,None,377.64126440003747,None,377.64126440003747,None,377.64126440003747,None,377.64126440003747,None,377.64126440003747,None,k,1,0.3892314999829978,377.64126440003747,None,,,,,,,1,001,2022_Aug_05_1459,Flanker,2021.2.0,239.73686459995284,
neutral left,0,a,neutral.png,neutral.png,neutral.png,left_arrow.png,neutral.png,neutral.png,neutral.png,,,,,,,,,,,,,5,2,32,4,,,,,378.0415936000063,None,,,,,,,,,,,,,,,,,,,,,,,,,,,,,,379.0553278000443,None,379.0553278000443,None,379.0553278000443,None,379.0553278000443,None,379.0553278000443,None,379.0553278000443,None,379.0553278000443,None,a,1,0.39165479998337105,379.0553278000443,None,,,,,,,1,001,2022_Aug_05_1459,Flanker,2021.2.0,239.73686459995284,
incongruent-right.jpg,0,k,left_arrow.png,left_arrow.png,left_arrow.png,right_arrow.png,left_arrow.png,left_arrow.png,left_arrow.png,,,,,,,,,,,,,5,3,33,3,,,,,379.4642282000277,None,,,,,,,,,,,,,,,,,,,,,,,,,,,,,,380.47751890000654,None,380.47751890000654,None,380.47751890000654,None,380.47751890000654,None,380.47751890000654,None,380.47751890000654,None,380.47751890000654,None,k,1,0.44141049997415394,380.47751890000654,None,,,,,,,1,001,2022_Aug_05_1459,Flanker,2021.2.0,239.73686459995284,
congruent-right.jpg,1,k,right_arrow.png,right_arrow.png,right_arrow.png,right_arrow.png,right_arrow.png,right_arrow.png,right_arrow.png,,,,,,,,,,,,,5,4,34,2,,,,,380.93633300001966,None,,,,,,,,,,,,,,,,,,,,,,,,,,,,,,381.9500536000123,None,381.9500536000123,None,381.9500536000123,None,381.9500536000123,None,381.9500536000123,None,381.9500536000123,None,381.9500536000123,None,k,1,0.40108399995369837,381.9500536000123,None,,,,,,,1,001,2022_Aug_05_1459,Flanker,2021.2.0,239.73686459995284,
congruent-left.jpg,1,a,left_arrow.png,left_arrow.png,left_arrow.png,left_arrow.png,left_arrow.png,left_arrow.png,left_arrow.png,,,,,,,,,,,,,5,5,35,0,,,,,382.36714390001725,None,,,,,,,,,,,,,,,,,,,,,,,,,,,,,,383.3765686000115,None,383.3765686000115,None,383.3765686000115,None,383.3765686000115,None,383.3765686000115,None,383.3765686000115,None,383.3765686000115,None,a,1,0.43872499995632097,383.3765686000115,None,,,,,,,1,001,2022_Aug_05_1459,Flanker,2021.2.0,239.73686459995284,
incongruent-left.jpg,0,a,right_arrow.png,right_arrow.png,right_arrow.png,left_arrow.png,right_arrow.png,right_arrow.png,right_arrow.png,,,,,,,,,,,,,6,0,36,1,,,,,383.82691609999165,None,,,,,,,,,,,,,,,,,,,,,,,,,,,,,,384.8366800000076,None,384.8366800000076,None,384.8366800000076,None,384.8366800000076,None,384.8366800000076,None,384.8366800000076,None,384.8366800000076,None,a,1,1.178937999997288,384.8366800000076,None,,,,,,,1,001,2022_Aug_05_1459,Flanker,2021.2.0,239.73686459995284,
neutral right,0,k,neutral.png,neutral.png,neutral.png,right_arrow.png,neutral.png,neutral.png,neutral.png,,,,,,,,,,,,,6,1,37,5,,,,,386.02945020003244,None,,,,,,,,,,,,,,,,,,,,,,,,,,,,,,387.04284050001297,None,387.04284050001297,None,387.04284050001297,None,387.04284050001297,None,387.04284050001297,None,387.04284050001297,None,387.04284050001297,None,k,1,0.4209428000031039,387.04284050001297,None,,,,,,,1,001,2022_Aug_05_1459,Flanker,2021.2.0,239.73686459995284,
congruent-right.jpg,1,k,right_arrow.png,right_arrow.png,right_arrow.png,right_arrow.png,right_arrow.png,right_arrow.png,right_arrow.png,,,,,,,,,,,,,6,2,38,2,,,,,387.4766870000167,None,,,,,,,,,,,,,,,,,,,,,,,,,,,,,,388.49050200002966,None,388.49050200002966,None,388.49050200002966,None,388.49050200002966,None,388.49050200002966,None,388.49050200002966,None,388.49050200002966,None,k,1,0.44557560002431273,388.49050200002966,None,,,,,,,1,001,2022_Aug_05_1459,Flanker,2021.2.0,239.73686459995284,
incongruent-right.jpg,0,k,left_arrow.png,left_arrow.png,left_arrow.png,right_arrow.png,left_arrow.png,left_arrow.png,left_arrow.png,,,,,,,,,,,,,6,3,39,3,,,,,388.9490747000091,None,,,,,,,,,,,,,,,,,,,,,,,,,,,,,,389.96688990003895,None,389.96688990003895,None,389.96688990003895,None,389.96688990003895,None,389.96688990003895,None,389.96688990003895,None,389.96688990003895,None,k,1,0.5533455000258982,389.96688990003895,None,,,,,,,1,001,2022_Aug_05_1459,Flanker,2021.2.0,239.73686459995284,
congruent-left.jpg,1,a,left_arrow.png,left_arrow.png,left_arrow.png,left_arrow.png,left_arrow.png,left_arrow.png,left_arrow.png,,,,,,,,,,,,,6,4,40,0,,,,,390.5340306000435,None,,,,,,,,,,,,,,,,,,,,,,,,,,,,,,391.54371430003084,None,391.54371430003084,None,391.54371430003084,None,391.54371430003084,None,391.54371430003084,None,391.54371430003084,None,391.54371430003084,None,a,1,0.5047190000186674,391.54371430003084,None,,,,,,,1,001,2022_Aug_05_1459,Flanker,2021.2.0,239.73686459995284,
congruent-left.jpg,1,a,left_arrow.png,left_arrow.png,left_arrow.png,left_arrow.png,left_arrow.png,left_arrow.png,left_arrow.png,,,,,,,,,,,,,6,5,41,0,,,,,392.06100310001057,None,,,,,,,,,,,,,,,,,,,,,,,,,,,,,,393.07855800003745,None,393.07855800003745,None,393.07855800003745,None,393.07855800003745,None,393.07855800003745,None,393.07855800003745,None,393.07855800003745,None,a,1,0.3940815000096336,393.07855800003745,None,,,,,,,1,001,2022_Aug_05_1459,Flanker,2021.2.0,239.73686459995284,
neutral left,0,a,neutral.png,neutral.png,neutral.png,left_arrow.png,neutral.png,neutral.png,neutral.png,,,,,,,,,,,,,7,0,42,4,,,,,393.48721520003164,None,,,,,,,,,,,,,,,,,,,,,,,,,,,,,,394.50074400001904,None,394.50074400001904,None,394.50074400001904,None,394.50074400001904,None,394.50074400001904,None,394.50074400001904,None,394.50074400001904,None,a,1,0.44408559997100383,394.50074400001904,None,,,,,,,1,001,2022_Aug_05_1459,Flanker,2021.2.0,239.73686459995284,
incongruent-left.jpg,0,a,right_arrow.png,right_arrow.png,right_arrow.png,left_arrow.png,right_arrow.png,right_arrow.png,right_arrow.png,,,,,,,,,,,,,7,1,43,1,,,,,394.95955030003097,None,,,,,,,,,,,,,,,,,,,,,,,,,,,,,,395.9730891000363,None,395.9730891000363,None,395.9730891000363,None,395.9730891000363,None,395.9730891000363,None,395.9730891000363,None,395.9730891000363,None,a,1,0.42792889999691397,395.9730891000363,None,,,,,,,1,001,2022_Aug_05_1459,Flanker,2021.2.0,239.73686459995284,
congruent-left.jpg,1,a,left_arrow.png,left_arrow.png,left_arrow.png,left_arrow.png,left_arrow.png,left_arrow.png,left_arrow.png,,,,,,,,,,,,,7,2,44,0,,,,,396.4152531000436,None,,,,,,,,,,,,,,,,,,,,,,,,,,,,,,397.4289739000378,None,397.4289739000378,None,397.4289739000378,None,397.4289739000378,None,397.4289739000378,None,397.4289739000378,None,397.4289739000378,None,a,1,0.42025239998474717,397.4289739000378,None,,,,,,,1,001,2022_Aug_05_1459,Flanker,2021.2.0,239.73686459995284,
incongruent-right.jpg,0,k,left_arrow.png,left_arrow.png,left_arrow.png,right_arrow.png,left_arrow.png,left_arrow.png,left_arrow.png,,,,,,,,,,,,,7,3,45,3,,,,,397.8628546000109,None,,,,,,,,,,,,,,,,,,,,,,,,,,,,,,398.8720936999889,None,398.8720936999889,None,398.8720936999889,None,398.8720936999889,None,398.8720936999889,None,398.8720936999889,None,398.8720936999889,None,k,1,0.5373455000226386,398.8720936999889,None,,,,,,,1,001,2022_Aug_05_1459,Flanker,2021.2.0,239.73686459995284,
neutral right,0,k,neutral.png,neutral.png,neutral.png,right_arrow.png,neutral.png,neutral.png,neutral.png,,,,,,,,,,,,,7,4,46,5,,,,,399.42292240000097,None,,,,,,,,,,,,,,,,,,,,,,,,,,,,,,400.43622179998783,None,400.43622179998783,None,400.43622179998783,None,400.43622179998783,None,400.43622179998783,None,400.43622179998783,None,400.43622179998783,None,k,1,0.38137150002876297,400.43622179998783,None,,,,,,,1,001,2022_Aug_05_1459,Flanker,2021.2.0,239.73686459995284,
neutral left,0,a,neutral.png,neutral.png,neutral.png,left_arrow.png,neutral.png,neutral.png,neutral.png,,,,,,,,,,,,,7,5,47,4,,,,,400.83661729999585,None,,,,,,,,,,,,,,,,,,,,,,,,,,,,,,401.8460850000265,None,401.8460850000265,None,401.8460850000265,None,401.8460850000265,None,401.8460850000265,None,401.8460850000265,None,401.8460850000265,None,a,1,0.4757221000036225,401.8460850000265,None,,,,,,,1,001,2022_Aug_05_1459,Flanker,2021.2.0,239.73686459995284,
,,,,,,,,,,,,,,,,,,,,,,,,,,,,,,,,,,,,,,,,,,,,,,,,,,,,,,,,,,,,,,,,,,,,,,,,,,,,,,,,402.3507428999874,None,space,2.8436232000240125,402.3507428999874,None,1,001,2022_Aug_05_1459,Flanker,2021.2.0,239.73686459995284,
