images,congruentcy,corrAns,arrow_1,arrow_2,arrow_3,target,arrow_5,arrow_6,arrow_7,practice.thisRepN,practice.thisTrialN,practice.thisN,practice.thisIndex,trials.thisRepN,trials.thisTrialN,trials.thisN,trials.thisIndex,trials_2.thisRepN,trials_2.thisTrialN,trials_2.thisN,trials_2.thisIndex,trials_3.thisRepN,trials_3.thisTrialN,trials_3.thisN,trials_3.thisIndex,instr_text.started,instr_text.stopped,instr_resp.keys,instr_resp.rt,polygon.started,polygon.stopped,arrow1_.started,arrow1_.stopped,arrow2_.started,arrow2_.stopped,arrow3_.started,arrow3_.stopped,target_p.started,target_p.stopped,arrow5_.started,arrow5_.stopped,arrow6_.started,arrow6_.stopped,arrow7_.started,arrow7_.stopped,key_resp_P.keys,key_resp_P.corr,key_resp_P.rt,key_resp_P.started,key_resp_P.stopped,text_2.started,text_2.stopped,text_3.started,text_3.stopped,text_4.started,text_4.stopped,key_resp_2.keys,key_resp_2.rt,key_resp_2.started,key_resp_2.stopped,arrow1.started,arrow1.stopped,arrow2.started,arrow2.stopped,arrow3.started,arrow3.stopped,target_t.started,target_t.stopped,arrow5.started,arrow5.stopped,arrow6.started,arrow6.stopped,arrow7.started,arrow7.stopped,key_resp.keys,key_resp.corr,key_resp.rt,key_resp.started,key_resp.stopped,text_5.started,text_5.stopped,key_resp_3.keys,key_resp_3.rt,key_resp_3.started,key_resp_3.stopped,text_6.started,text_6.stopped,key_resp_4.keys,key_resp_4.rt,key_resp_4.started,key_resp_4.stopped,participant,session,date,expName,psychopyVersion,frameRate,
,,,,,,,,,,,,,,,,,,,,,,,,,,10.935881100000188,None,space,12.118432000000212,,,,,,,,,,,,,,,,,,,,,,,,,,,,,,,,,,,,,,,,,,,,,,,,,,,,,,,,,,,,,,,20,001,2022_Oct_20_1920,Flanker,2021.2.0,239.9606464546264,
incongruent-right.jpg,0,k,left_arrow.png,left_arrow.png,left_arrow.png,right_arrow.png,left_arrow.png,left_arrow.png,left_arrow.png,0,0,0,3,,,,,,,,,,,,,,,,,23.077724199999466,None,24.08285849999993,None,24.08285849999993,None,24.08285849999993,None,24.08285849999993,None,24.08285849999993,None,24.08285849999993,None,24.08285849999993,None,k,1,7.9726426999995965,24.08285849999993,None,32.08301219999976,None,,,,,,,,,,,,,,,,,,,,,,,,,,,,,,,,,,,,,,,,20,001,2022_Oct_20_1920,Flanker,2021.2.0,239.9606464546264,
congruent-left.jpg,1,a,left_arrow.png,left_arrow.png,left_arrow.png,left_arrow.png,left_arrow.png,left_arrow.png,left_arrow.png,0,1,1,0,,,,,,,,,,,,,,,,,33.58043100000032,None,34.58566789999986,None,34.58566789999986,None,34.58566789999986,None,34.58566789999986,None,34.58566789999986,None,34.58566789999986,None,34.58566789999986,None,a,1,0.6542968000003384,34.58566789999986,None,35.25329629999942,None,,,,,,,,,,,,,,,,,,,,,,,,,,,,,,,,,,,,,,,,20,001,2022_Oct_20_1920,Flanker,2021.2.0,239.9606464546264,
incongruent-left.jpg,0,a,right_arrow.png,right_arrow.png,right_arrow.png,left_arrow.png,right_arrow.png,right_arrow.png,right_arrow.png,0,2,2,1,,,,,,,,,,,,,,,,,36.75905629999943,None,37.768209599999864,None,37.768209599999864,None,37.768209599999864,None,37.768209599999864,None,37.768209599999864,None,37.768209599999864,None,37.768209599999864,None,a,1,0.7923104000001331,37.768209599999864,None,38.577672899999925,None,,,,,,,,,,,,,,,,,,,,,,,,,,,,,,,,,,,,,,,,20,001,2022_Oct_20_1920,Flanker,2021.2.0,239.9606464546264,
congruent-left.jpg,1,a,left_arrow.png,left_arrow.png,left_arrow.png,left_arrow.png,left_arrow.png,left_arrow.png,left_arrow.png,0,3,3,0,,,,,,,,,,,,,,,,,40.08347159999994,None,41.088510900000074,None,41.088510900000074,None,41.088510900000074,None,41.088510900000074,None,41.088510900000074,None,41.088510900000074,None,41.088510900000074,None,a,1,0.5446157999995194,41.088510900000074,None,41.64772730000004,None,,,,,,,,,,,,,,,,,,,,,,,,,,,,,,,,,,,,,,,,20,001,2022_Oct_20_1920,Flanker,2021.2.0,239.9606464546264,
incongruent-right.jpg,0,k,left_arrow.png,left_arrow.png,left_arrow.png,right_arrow.png,left_arrow.png,left_arrow.png,left_arrow.png,0,4,4,3,,,,,,,,,,,,,,,,,43.148878299999524,None,44.16246309999951,None,44.16246309999951,None,44.16246309999951,None,44.16246309999951,None,44.16246309999951,None,44.16246309999951,None,44.16246309999951,None,k,1,0.6627975999999762,44.16246309999951,None,44.8381717000002,None,,,,,,,,,,,,,,,,,,,,,,,,,,,,,,,,,,,,,,,,20,001,2022_Oct_20_1920,Flanker,2021.2.0,239.9606464546264,
incongruent-left.jpg,0,a,right_arrow.png,right_arrow.png,right_arrow.png,left_arrow.png,right_arrow.png,right_arrow.png,right_arrow.png,0,5,5,1,,,,,,,,,,,,,,,,,46.34001100000023,None,47.35370039999998,None,47.35370039999998,None,47.35370039999998,None,47.35370039999998,None,47.35370039999998,None,47.35370039999998,None,47.35370039999998,None,a,1,0.6479554999996253,47.35370039999998,None,48.02106139999978,None,,,,,,,,,,,,,,,,,,,,,,,,,,,,,,,,,,,,,,,,20,001,2022_Oct_20_1920,Flanker,2021.2.0,239.9606464546264,
congruent-right.jpg,1,k,right_arrow.png,right_arrow.png,right_arrow.png,right_arrow.png,right_arrow.png,right_arrow.png,right_arrow.png,1,0,6,2,,,,,,,,,,,,,,,,,49.522293799999716,None,50.53170219999993,None,50.53170219999993,None,50.53170219999993,None,50.53170219999993,None,50.53170219999993,None,50.53170219999993,None,50.53170219999993,None,k,1,0.47034679999978835,50.53170219999993,None,51.01568950000001,None,,,,,,,,,,,,,,,,,,,,,,,,,,,,,,,,,,,,,,,,20,001,2022_Oct_20_1920,Flanker,2021.2.0,239.9606464546264,
neutral right,0,k,neutral.png,neutral.png,neutral.png,right_arrow.png,neutral.png,neutral.png,neutral.png,1,1,7,5,,,,,,,,,,,,,,,,,52.517272399999456,None,53.52664499999992,None,53.52664499999992,None,53.52664499999992,None,53.52664499999992,None,53.52664499999992,None,53.52664499999992,None,53.52664499999992,None,k,1,0.7001043000000209,53.52664499999992,None,54.24424009999984,None,,,,,,,,,,,,,,,,,,,,,,,,,,,,,,,,,,,,,,,,20,001,2022_Oct_20_1920,Flanker,2021.2.0,239.9606464546264,
neutral left,0,a,neutral.png,neutral.png,neutral.png,left_arrow.png,neutral.png,neutral.png,neutral.png,1,2,8,4,,,,,,,,,,,,,,,,,55.74581369999942,None,56.755234299999756,None,56.755234299999756,None,56.755234299999756,None,56.755234299999756,None,56.755234299999756,None,56.755234299999756,None,56.755234299999756,None,a,1,0.4959080999997241,56.755234299999756,None,57.26410140000007,None,,,,,,,,,,,,,,,,,,,,,,,,,,,,,,,,,,,,,,,,20,001,2022_Oct_20_1920,Flanker,2021.2.0,239.9606464546264,
incongruent-right.jpg,0,k,left_arrow.png,left_arrow.png,left_arrow.png,right_arrow.png,left_arrow.png,left_arrow.png,left_arrow.png,1,3,9,3,,,,,,,,,,,,,,,,,58.76542840000002,None,59.77495259999978,None,59.77495259999978,None,59.77495259999978,None,59.77495259999978,None,59.77495259999978,None,59.77495259999978,None,59.77495259999978,None,k,1,0.7167724999999336,59.77495259999978,None,60.50929309999992,None,,,,,,,,,,,,,,,,,,,,,,,,,,,,,,,,,,,,,,,,20,001,2022_Oct_20_1920,Flanker,2021.2.0,239.9606464546264,
neutral right,0,k,neutral.png,neutral.png,neutral.png,right_arrow.png,neutral.png,neutral.png,neutral.png,1,4,10,5,,,,,,,,,,,,,,,,,62.01500829999986,None,63.019925200000216,None,63.019925200000216,None,63.019925200000216,None,63.019925200000216,None,63.019925200000216,None,63.019925200000216,None,63.019925200000216,None,k,1,0.6000919999996768,63.019925200000216,None,63.63334709999981,None,,,,,,,,,,,,,,,,,,,,,,,,,,,,,,,,,,,,,,,,20,001,2022_Oct_20_1920,Flanker,2021.2.0,239.9606464546264,
congruent-right.jpg,1,k,right_arrow.png,right_arrow.png,right_arrow.png,right_arrow.png,right_arrow.png,right_arrow.png,right_arrow.png,1,5,11,2,,,,,,,,,,,,,,,,,65.13910029999988,None,66.14433999999983,None,66.14433999999983,None,66.14433999999983,None,66.14433999999983,None,66.14433999999983,None,66.14433999999983,None,66.14433999999983,None,k,1,0.6201871000002939,66.14433999999983,None,66.77810919999956,None,,,,,,,,,,,,,,,,,,,,,,,,,,,,,,,,,,,,,,,,20,001,2022_Oct_20_1920,Flanker,2021.2.0,239.9606464546264,
neutral right,0,k,neutral.png,neutral.png,neutral.png,right_arrow.png,neutral.png,neutral.png,neutral.png,2,0,12,5,,,,,,,,,,,,,,,,,68.27994479999961,None,69.2890897999996,None,69.2890897999996,None,69.2890897999996,None,69.2890897999996,None,69.2890897999996,None,69.2890897999996,None,69.2890897999996,None,k,1,0.8839591000005385,69.2890897999996,None,70.19005889999971,None,,,,,,,,,,,,,,,,,,,,,,,,,,,,,,,,,,,,,,,,20,001,2022_Oct_20_1920,Flanker,2021.2.0,239.9606464546264,
neutral right,0,k,neutral.png,neutral.png,neutral.png,right_arrow.png,neutral.png,neutral.png,neutral.png,2,1,13,5,,,,,,,,,,,,,,,,,71.69195179999952,None,72.70105599999988,None,72.70105599999988,None,72.70105599999988,None,72.70105599999988,None,72.70105599999988,None,72.70105599999988,None,72.70105599999988,None,k,1,0.38396730000022217,72.70105599999988,None,73.1014697999999,None,,,,,,,,,,,,,,,,,,,,,,,,,,,,,,,,,,,,,,,,20,001,2022_Oct_20_1920,Flanker,2021.2.0,239.9606464546264,
incongruent-left.jpg,0,a,right_arrow.png,right_arrow.png,right_arrow.png,left_arrow.png,right_arrow.png,right_arrow.png,right_arrow.png,2,2,14,1,,,,,,,,,,,,,,,,,74.60330640000029,None,75.61664440000004,None,75.61664440000004,None,75.61664440000004,None,75.61664440000004,None,75.61664440000004,None,75.61664440000004,None,75.61664440000004,None,a,1,0.6127825000003213,75.61664440000004,None,76.24228779999976,None,,,,,,,,,,,,,,,,,,,,,,,,,,,,,,,,,,,,,,,,20,001,2022_Oct_20_1920,Flanker,2021.2.0,239.9606464546264,
incongruent-right.jpg,0,k,left_arrow.png,left_arrow.png,left_arrow.png,right_arrow.png,left_arrow.png,left_arrow.png,left_arrow.png,2,3,15,3,,,,,,,,,,,,,,,,,77.74805389999983,None,78.75330359999953,None,78.75330359999953,None,78.75330359999953,None,78.75330359999953,None,78.75330359999953,None,78.75330359999953,None,78.75330359999953,None,k,1,0.6845892999999705,78.75330359999953,None,79.45409829999971,None,,,,,,,,,,,,,,,,,,,,,,,,,,,,,,,,,,,,,,,,20,001,2022_Oct_20_1920,Flanker,2021.2.0,239.9606464546264,
neutral left,0,a,neutral.png,neutral.png,neutral.png,left_arrow.png,neutral.png,neutral.png,neutral.png,2,4,16,4,,,,,,,,,,,,,,,,,80.95564229999945,None,81.96503119999943,None,81.96503119999943,None,81.96503119999943,None,81.96503119999943,None,81.96503119999943,None,81.96503119999943,None,81.96503119999943,None,a,1,0.44947359999969194,81.96503119999943,None,82.43255950000002,None,,,,,,,,,,,,,,,,,,,,,,,,,,,,,,,,,,,,,,,,20,001,2022_Oct_20_1920,Flanker,2021.2.0,239.9606464546264,
neutral left,0,a,neutral.png,neutral.png,neutral.png,left_arrow.png,neutral.png,neutral.png,neutral.png,2,5,17,4,,,,,,,,,,,,,,,,,83.93794109999999,None,84.9434210999998,None,84.9434210999998,None,84.9434210999998,None,84.9434210999998,None,84.9434210999998,None,84.9434210999998,None,84.9434210999998,None,a,1,0.3994720000000598,84.9434210999998,None,85.3602890000002,None,,,,,,,,,,,,,,,,,,,,,,,,,,,,,,,,,,,,,,,,20,001,2022_Oct_20_1920,Flanker,2021.2.0,239.9606464546264,
congruent-left.jpg,1,a,left_arrow.png,left_arrow.png,left_arrow.png,left_arrow.png,left_arrow.png,left_arrow.png,left_arrow.png,3,0,18,0,,,,,,,,,,,,,,,,,86.86628930000006,None,87.8712802,None,87.8712802,None,87.8712802,None,87.8712802,None,87.8712802,None,87.8712802,None,87.8712802,None,a,1,2.4800695000003543,87.8712802,None,90.36559990000023,None,,,,,,,,,,,,,,,,,,,,,,,,,,,,,,,,,,,,,,,,20,001,2022_Oct_20_1920,Flanker,2021.2.0,239.9606464546264,
congruent-right.jpg,1,k,right_arrow.png,right_arrow.png,right_arrow.png,right_arrow.png,right_arrow.png,right_arrow.png,right_arrow.png,3,1,19,2,,,,,,,,,,,,,,,,,91.86740379999992,None,92.88072480000028,None,92.88072480000028,None,92.88072480000028,None,92.88072480000028,None,92.88072480000028,None,92.88072480000028,None,92.88072480000028,None,k,1,0.6310444000000643,92.88072480000028,None,93.52312089999941,None,,,,,,,,,,,,,,,,,,,,,,,,,,,,,,,,,,,,,,,,20,001,2022_Oct_20_1920,Flanker,2021.2.0,239.9606464546264,
incongruent-left.jpg,0,a,right_arrow.png,right_arrow.png,right_arrow.png,left_arrow.png,right_arrow.png,right_arrow.png,right_arrow.png,3,2,20,1,,,,,,,,,,,,,,,,,95.02493570000024,None,96.03432100000009,None,96.03432100000009,None,96.03432100000009,None,96.03432100000009,None,96.03432100000009,None,96.03432100000009,None,96.03432100000009,None,a,1,0.46186239999951795,96.03432100000009,None,96.50961329999973,None,,,,,,,,,,,,,,,,,,,,,,,,,,,,,,,,,,,,,,,,20,001,2022_Oct_20_1920,Flanker,2021.2.0,239.9606464546264,
congruent-right.jpg,1,k,right_arrow.png,right_arrow.png,right_arrow.png,right_arrow.png,right_arrow.png,right_arrow.png,right_arrow.png,3,3,21,2,,,,,,,,,,,,,,,,,98.01535960000001,None,99.0248875999996,None,99.0248875999996,None,99.0248875999996,None,99.0248875999996,None,99.0248875999996,None,99.0248875999996,None,99.0248875999996,None,k,1,0.45569500000055996,99.0248875999996,None,99.50025920000007,None,,,,,,,,,,,,,,,,,,,,,,,,,,,,,,,,,,,,,,,,20,001,2022_Oct_20_1920,Flanker,2021.2.0,239.9606464546264,
congruent-left.jpg,1,a,left_arrow.png,left_arrow.png,left_arrow.png,left_arrow.png,left_arrow.png,left_arrow.png,left_arrow.png,3,4,22,0,,,,,,,,,,,,,,,,,101.00185899999997,None,102.01566269999967,None,102.01566269999967,None,102.01566269999967,None,102.01566269999967,None,102.01566269999967,None,102.01566269999967,None,102.01566269999967,None,a,1,0.9933897000000798,102.01566269999967,None,103.02483060000031,None,,,,,,,,,,,,,,,,,,,,,,,,,,,,,,,,,,,,,,,,20,001,2022_Oct_20_1920,Flanker,2021.2.0,239.9606464546264,
neutral left,0,a,neutral.png,neutral.png,neutral.png,left_arrow.png,neutral.png,neutral.png,neutral.png,3,5,23,4,,,,,,,,,,,,,,,,,104.52642409999953,None,105.5400069999996,None,105.5400069999996,None,105.5400069999996,None,105.5400069999996,None,105.5400069999996,None,105.5400069999996,None,105.5400069999996,None,a,1,0.437491300000147,105.5400069999996,None,105.99048479999965,None,,,,,,,,,,,,,,,,,,,,,,,,,,,,,,,,,,,,,,,,20,001,2022_Oct_20_1920,Flanker,2021.2.0,239.9606464546264,
,,,,,,,,,,,,,,,,,,,,,,,,,,,,,,,,,,,,,,,,,,,,,,,,,,,,,107.50875290000022,None,109.49440950000007,None,space,1.6440075999998953,109.49440950000007,None,,,,,,,,,,,,,,,,,,,,,,,,,,,,,,,,20,001,2022_Oct_20_1920,Flanker,2021.2.0,239.9606464546264,
incongruent-left.jpg,0,a,right_arrow.png,right_arrow.png,right_arrow.png,left_arrow.png,right_arrow.png,right_arrow.png,right_arrow.png,,,,,0,0,0,1,,,,,,,,,,,,,111.1628396999995,None,,,,,,,,,,,,,,,,,,,,,,,,,,,,,,112.1679578000003,None,112.1679578000003,None,112.1679578000003,None,112.1679578000003,None,112.1679578000003,None,112.1679578000003,None,112.1679578000003,None,a,1,0.5544396000004781,112.1679578000003,None,,,,,,,,,,,,,20,001,2022_Oct_20_1920,Flanker,2021.2.0,239.9606464546264,
congruent-left.jpg,1,a,left_arrow.png,left_arrow.png,left_arrow.png,left_arrow.png,left_arrow.png,left_arrow.png,left_arrow.png,,,,,0,1,1,0,,,,,,,,,,,,,112.73536049999984,None,,,,,,,,,,,,,,,,,,,,,,,,,,,,,,113.74867679999988,None,113.74867679999988,None,113.74867679999988,None,113.74867679999988,None,113.74867679999988,None,113.74867679999988,None,113.74867679999988,None,a,1,0.4218731000000844,113.74867679999988,None,,,,,,,,,,,,,20,001,2022_Oct_20_1920,Flanker,2021.2.0,239.9606464546264,
congruent-left.jpg,1,a,left_arrow.png,left_arrow.png,left_arrow.png,left_arrow.png,left_arrow.png,left_arrow.png,left_arrow.png,,,,,0,2,2,0,,,,,,,,,,,,,114.18272669999988,None,,,,,,,,,,,,,,,,,,,,,,,,,,,,,,115.19214899999952,None,115.19214899999952,None,115.19214899999952,None,115.19214899999952,None,115.19214899999952,None,115.19214899999952,None,115.19214899999952,None,a,1,0.3625844000007419,115.19214899999952,None,,,,,,,,,,,,,20,001,2022_Oct_20_1920,Flanker,2021.2.0,239.9606464546264,
neutral right,0,k,neutral.png,neutral.png,neutral.png,right_arrow.png,neutral.png,neutral.png,neutral.png,,,,,0,3,3,5,,,,,,,,,,,,,115.56752679999954,None,,,,,,,,,,,,,,,,,,,,,,,,,,,,,,116.58108769999944,None,116.58108769999944,None,116.58108769999944,None,116.58108769999944,None,116.58108769999944,None,116.58108769999944,None,116.58108769999944,None,k,1,0.4218267999995078,116.58108769999944,None,,,,,,,,,,,,,20,001,2022_Oct_20_1920,Flanker,2021.2.0,239.9606464546264,
incongruent-right.jpg,0,k,left_arrow.png,left_arrow.png,left_arrow.png,right_arrow.png,left_arrow.png,left_arrow.png,left_arrow.png,,,,,0,4,4,3,,,,,,,,,,,,,117.01499249999961,None,,,,,,,,,,,,,,,,,,,,,,,,,,,,,,118.02856830000019,None,118.02856830000019,None,118.02856830000019,None,118.02856830000019,None,118.02856830000019,None,118.02856830000019,None,118.02856830000019,None,k,1,0.6945709000001443,118.02856830000019,None,,,,,,,,,,,,,20,001,2022_Oct_20_1920,Flanker,2021.2.0,239.9606464546264,
neutral left,0,a,neutral.png,neutral.png,neutral.png,left_arrow.png,neutral.png,neutral.png,neutral.png,,,,,0,5,5,4,,,,,,,,,,,,,118.73736480000025,None,,,,,,,,,,,,,,,,,,,,,,,,,,,,,,119.75095659999988,None,119.75095659999988,None,119.75095659999988,None,119.75095659999988,None,119.75095659999988,None,119.75095659999988,None,119.75095659999988,None,a,1,0.46866250000039145,119.75095659999988,None,,,,,,,,,,,,,20,001,2022_Oct_20_1920,Flanker,2021.2.0,239.9606464546264,
neutral left,0,a,neutral.png,neutral.png,neutral.png,left_arrow.png,neutral.png,neutral.png,neutral.png,,,,,1,0,6,4,,,,,,,,,,,,,120.23496019999948,None,,,,,,,,,,,,,,,,,,,,,,,,,,,,,,121.24831399999948,None,121.24831399999948,None,121.24831399999948,None,121.24831399999948,None,121.24831399999948,None,121.24831399999948,None,121.24831399999948,None,a,1,0.4595064999994065,121.24831399999948,None,,,,,,,,,,,,,20,001,2022_Oct_20_1920,Flanker,2021.2.0,239.9606464546264,
neutral right,0,k,neutral.png,neutral.png,neutral.png,right_arrow.png,neutral.png,neutral.png,neutral.png,,,,,1,1,7,5,,,,,,,,,,,,,121.7237884999995,None,,,,,,,,,,,,,,,,,,,,,,,,,,,,,,122.73734160000004,None,122.73734160000004,None,122.73734160000004,None,122.73734160000004,None,122.73734160000004,None,122.73734160000004,None,122.73734160000004,None,k,1,0.37866269999994984,122.73734160000004,None,,,,,,,,,,,,,20,001,2022_Oct_20_1920,Flanker,2021.2.0,239.9606464546264,
congruent-right.jpg,1,k,right_arrow.png,right_arrow.png,right_arrow.png,right_arrow.png,right_arrow.png,right_arrow.png,right_arrow.png,,,,,1,2,8,2,,,,,,,,,,,,,123.12968300000011,None,,,,,,,,,,,,,,,,,,,,,,,,,,,,,,124.1431720999999,None,124.1431720999999,None,124.1431720999999,None,124.1431720999999,None,124.1431720999999,None,124.1431720999999,None,124.1431720999999,None,k,1,0.6450484999995751,124.1431720999999,None,,,,,,,,,,,,,20,001,2022_Oct_20_1920,Flanker,2021.2.0,239.9606464546264,
incongruent-left.jpg,0,a,right_arrow.png,right_arrow.png,right_arrow.png,left_arrow.png,right_arrow.png,right_arrow.png,right_arrow.png,,,,,1,3,9,1,,,,,,,,,,,,,124.80205120000028,None,,,,,,,,,,,,,,,,,,,,,,,,,,,,,,125.81588999999985,None,125.81588999999985,None,125.81588999999985,None,125.81588999999985,None,125.81588999999985,None,125.81588999999985,None,125.81588999999985,None,a,1,0.5086521000002904,125.81588999999985,None,,,,,,,,,,,,,20,001,2022_Oct_20_1920,Flanker,2021.2.0,239.9606464546264,
neutral left,0,a,neutral.png,neutral.png,neutral.png,left_arrow.png,neutral.png,neutral.png,neutral.png,,,,,1,4,10,4,,,,,,,,,,,,,126.34120129999974,None,,,,,,,,,,,,,,,,,,,,,,,,,,,,,,127.3509138999998,None,127.3509138999998,None,127.3509138999998,None,127.3509138999998,None,127.3509138999998,None,127.3509138999998,None,127.3509138999998,None,a,1,0.42146300000058545,127.3509138999998,None,,,,,,,,,,,,,20,001,2022_Oct_20_1920,Flanker,2021.2.0,239.9606464546264,
congruent-right.jpg,1,k,right_arrow.png,right_arrow.png,right_arrow.png,right_arrow.png,right_arrow.png,right_arrow.png,right_arrow.png,,,,,1,5,11,2,,,,,,,,,,,,,127.78463999999985,None,,,,,,,,,,,,,,,,,,,,,,,,,,,,,,128.7940220999999,None,128.7940220999999,None,128.7940220999999,None,128.7940220999999,None,128.7940220999999,None,128.7940220999999,None,128.7940220999999,None,k,1,0.5465248999998948,128.7940220999999,None,,,,,,,,,,,,,20,001,2022_Oct_20_1920,Flanker,2021.2.0,239.9606464546264,
congruent-left.jpg,1,a,left_arrow.png,left_arrow.png,left_arrow.png,left_arrow.png,left_arrow.png,left_arrow.png,left_arrow.png,,,,,2,0,12,0,,,,,,,,,,,,,129.35299320000013,None,,,,,,,,,,,,,,,,,,,,,,,,,,,,,,130.36234729999978,None,130.36234729999978,None,130.36234729999978,None,130.36234729999978,None,130.36234729999978,None,130.36234729999978,None,130.36234729999978,None,a,1,0.4267537000005177,130.36234729999978,None,,,,,,,,,,,,,20,001,2022_Oct_20_1920,Flanker,2021.2.0,239.9606464546264,
neutral left,0,a,neutral.png,neutral.png,neutral.png,left_arrow.png,neutral.png,neutral.png,neutral.png,,,,,2,1,13,4,,,,,,,,,,,,,130.80429170000025,None,,,,,,,,,,,,,,,,,,,,,,,,,,,,,,131.81807879999997,None,131.81807879999997,None,131.81807879999997,None,131.81807879999997,None,131.81807879999997,None,131.81807879999997,None,131.81807879999997,None,a,1,0.3791126999994958,131.81807879999997,None,,,,,,,,,,,,,20,001,2022_Oct_20_1920,Flanker,2021.2.0,239.9606464546264,
incongruent-right.jpg,0,k,left_arrow.png,left_arrow.png,left_arrow.png,right_arrow.png,left_arrow.png,left_arrow.png,left_arrow.png,,,,,2,2,14,3,,,,,,,,,,,,,132.20989809999992,None,,,,,,,,,,,,,,,,,,,,,,,,,,,,,,133.22370880000017,None,133.22370880000017,None,133.22370880000017,None,133.22370880000017,None,133.22370880000017,None,133.22370880000017,None,133.22370880000017,None,k,1,0.47786079999968933,133.22370880000017,None,,,,,,,,,,,,,20,001,2022_Oct_20_1920,Flanker,2021.2.0,239.9606464546264,
neutral left,0,a,neutral.png,neutral.png,neutral.png,left_arrow.png,neutral.png,neutral.png,neutral.png,,,,,2,3,15,4,,,,,,,,,,,,,133.71567159999995,None,,,,,,,,,,,,,,,,,,,,,,,,,,,,,,134.72506239999984,None,134.72506239999984,None,134.72506239999984,None,134.72506239999984,None,134.72506239999984,None,134.72506239999984,None,134.72506239999984,None,a,1,0.3842902000005779,134.72506239999984,None,,,,,,,,,,,,,20,001,2022_Oct_20_1920,Flanker,2021.2.0,239.9606464546264,
incongruent-left.jpg,0,a,right_arrow.png,right_arrow.png,right_arrow.png,left_arrow.png,right_arrow.png,right_arrow.png,right_arrow.png,,,,,2,4,16,1,,,,,,,,,,,,,135.12549930000023,None,,,,,,,,,,,,,,,,,,,,,,,,,,,,,,136.1393049999997,None,136.1393049999997,None,136.1393049999997,None,136.1393049999997,None,136.1393049999997,None,136.1393049999997,None,136.1393049999997,None,a,1,0.40249279999989085,136.1393049999997,None,,,,,,,,,,,,,20,001,2022_Oct_20_1920,Flanker,2021.2.0,239.9606464546264,
neutral left,0,a,neutral.png,neutral.png,neutral.png,left_arrow.png,neutral.png,neutral.png,neutral.png,,,,,2,5,17,4,,,,,,,,,,,,,136.5565571999996,None,,,,,,,,,,,,,,,,,,,,,,,,,,,,,,137.56588039999951,None,137.56588039999951,None,137.56588039999951,None,137.56588039999951,None,137.56588039999951,None,137.56588039999951,None,137.56588039999951,None,a,1,0.4638912000000346,137.56588039999951,None,,,,,,,,,,,,,20,001,2022_Oct_20_1920,Flanker,2021.2.0,239.9606464546264,
congruent-left.jpg,1,a,left_arrow.png,left_arrow.png,left_arrow.png,left_arrow.png,left_arrow.png,left_arrow.png,left_arrow.png,,,,,3,0,18,0,,,,,,,,,,,,,138.04139419999956,None,,,,,,,,,,,,,,,,,,,,,,,,,,,,,,139.05490649999956,None,139.05490649999956,None,139.05490649999956,None,139.05490649999956,None,139.05490649999956,None,139.05490649999956,None,139.05490649999956,None,a,1,0.35930740000003425,139.05490649999956,None,,,,,,,,,,,,,20,001,2022_Oct_20_1920,Flanker,2021.2.0,239.9606464546264,
incongruent-left.jpg,0,a,right_arrow.png,right_arrow.png,right_arrow.png,left_arrow.png,right_arrow.png,right_arrow.png,right_arrow.png,,,,,3,1,19,1,,,,,,,,,,,,,139.43030559999988,None,,,,,,,,,,,,,,,,,,,,,,,,,,,,,,140.4436568000001,None,140.4436568000001,None,140.4436568000001,None,140.4436568000001,None,140.4436568000001,None,140.4436568000001,None,140.4436568000001,None,a,1,0.5707898000000569,140.4436568000001,None,,,,,,,,,,,,,20,001,2022_Oct_20_1920,Flanker,2021.2.0,239.9606464546264,
incongruent-left.jpg,0,a,right_arrow.png,right_arrow.png,right_arrow.png,left_arrow.png,right_arrow.png,right_arrow.png,right_arrow.png,,,,,3,2,20,1,,,,,,,,,,,,,141.02757670000028,None,,,,,,,,,,,,,,,,,,,,,,,,,,,,,,142.03711740000017,None,142.03711740000017,None,142.03711740000017,None,142.03711740000017,None,142.03711740000017,None,142.03711740000017,None,142.03711740000017,None,a,1,0.44148089999998774,142.03711740000017,None,,,,,,,,,,,,,20,001,2022_Oct_20_1920,Flanker,2021.2.0,239.9606464546264,
neutral right,0,k,neutral.png,neutral.png,neutral.png,right_arrow.png,neutral.png,neutral.png,neutral.png,,,,,3,3,21,5,,,,,,,,,,,,,142.49620830000003,None,,,,,,,,,,,,,,,,,,,,,,,,,,,,,,143.50561240000025,None,143.50561240000025,None,143.50561240000025,None,143.50561240000025,None,143.50561240000025,None,143.50561240000025,None,143.50561240000025,None,k,1,0.4049205000001166,143.50561240000025,None,,,,,,,,,,,,,20,001,2022_Oct_20_1920,Flanker,2021.2.0,239.9606464546264,
incongruent-right.jpg,0,k,left_arrow.png,left_arrow.png,left_arrow.png,right_arrow.png,left_arrow.png,left_arrow.png,left_arrow.png,,,,,3,4,22,3,,,,,,,,,,,,,143.9225661999999,None,,,,,,,,,,,,,,,,,,,,,,,,,,,,,,144.93623279999974,None,144.93623279999974,None,144.93623279999974,None,144.93623279999974,None,144.93623279999974,None,144.93623279999974,None,144.93623279999974,None,k,1,0.5107688999996753,144.93623279999974,None,,,,,,,,,,,,,20,001,2022_Oct_20_1920,Flanker,2021.2.0,239.9606464546264,
incongruent-left.jpg,0,a,right_arrow.png,right_arrow.png,right_arrow.png,left_arrow.png,right_arrow.png,right_arrow.png,right_arrow.png,,,,,3,5,23,1,,,,,,,,,,,,,145.46169389999977,None,,,,,,,,,,,,,,,,,,,,,,,,,,,,,,146.47517939999943,None,146.47517939999943,None,146.47517939999943,None,146.47517939999943,None,146.47517939999943,None,146.47517939999943,None,146.47517939999943,None,a,1,0.45990189999974973,146.47517939999943,None,,,,,,,,,,,,,20,001,2022_Oct_20_1920,Flanker,2021.2.0,239.9606464546264,
congruent-right.jpg,1,k,right_arrow.png,right_arrow.png,right_arrow.png,right_arrow.png,right_arrow.png,right_arrow.png,right_arrow.png,,,,,4,0,24,2,,,,,,,,,,,,,146.9507961999998,None,,,,,,,,,,,,,,,,,,,,,,,,,,,,,,147.96006969999962,None,147.96006969999962,None,147.96006969999962,None,147.96006969999962,None,147.96006969999962,None,147.96006969999962,None,147.96006969999962,None,k,1,1.0794624000000113,147.96006969999962,None,,,,,,,,,,,,,20,001,2022_Oct_20_1920,Flanker,2021.2.0,239.9606464546264,
neutral right,0,k,neutral.png,neutral.png,neutral.png,right_arrow.png,neutral.png,neutral.png,neutral.png,,,,,4,1,25,5,,,,,,,,,,,,,149.05301379999946,None,,,,,,,,,,,,,,,,,,,,,,,,,,,,,,150.07051880000017,None,150.07051880000017,None,150.07051880000017,None,150.07051880000017,None,150.07051880000017,None,150.07051880000017,None,150.07051880000017,None,k,1,0.38516490000074555,150.07051880000017,None,,,,,,,,,,,,,20,001,2022_Oct_20_1920,Flanker,2021.2.0,239.9606464546264,
congruent-right.jpg,1,k,right_arrow.png,right_arrow.png,right_arrow.png,right_arrow.png,right_arrow.png,right_arrow.png,right_arrow.png,,,,,4,2,26,2,,,,,,,,,,,,,150.47118320000027,None,,,,,,,,,,,,,,,,,,,,,,,,,,,,,,151.48470519999955,None,151.48470519999955,None,151.48470519999955,None,151.48470519999955,None,151.48470519999955,None,151.48470519999955,None,151.48470519999955,None,k,1,0.7549224999993385,151.48470519999955,None,,,,,,,,,,,,,20,001,2022_Oct_20_1920,Flanker,2021.2.0,239.9606464546264,
incongruent-right.jpg,0,k,left_arrow.png,left_arrow.png,left_arrow.png,right_arrow.png,left_arrow.png,left_arrow.png,left_arrow.png,,,,,4,3,27,3,,,,,,,,,,,,,152.25211930000023,None,,,,,,,,,,,,,,,,,,,,,,,,,,,,,,153.2656920999998,None,153.2656920999998,None,153.2656920999998,None,153.2656920999998,None,153.2656920999998,None,153.2656920999998,None,153.2656920999998,None,k,1,0.9982440000003407,153.2656920999998,None,,,,,,,,,,,,,20,001,2022_Oct_20_1920,Flanker,2021.2.0,239.9606464546264,
neutral right,0,k,neutral.png,neutral.png,neutral.png,right_arrow.png,neutral.png,neutral.png,neutral.png,,,,,4,4,28,5,,,,,,,,,,,,,154.27494789999946,None,,,,,,,,,,,,,,,,,,,,,,,,,,,,,,155.2887737000001,None,155.2887737000001,None,155.2887737000001,None,155.2887737000001,None,155.2887737000001,None,155.2887737000001,None,155.2887737000001,None,k,1,0.3915824000005159,155.2887737000001,None,,,,,,,,,,,,,20,001,2022_Oct_20_1920,Flanker,2021.2.0,239.9606464546264,
congruent-left.jpg,1,a,left_arrow.png,left_arrow.png,left_arrow.png,left_arrow.png,left_arrow.png,left_arrow.png,left_arrow.png,,,,,4,5,29,0,,,,,,,,,,,,,155.6975499,None,,,,,,,,,,,,,,,,,,,,,,,,,,,,,,156.70682959999976,None,156.70682959999976,None,156.70682959999976,None,156.70682959999976,None,156.70682959999976,None,156.70682959999976,None,156.70682959999976,None,a,1,0.5096333999999842,156.70682959999976,None,,,,,,,,,,,,,20,001,2022_Oct_20_1920,Flanker,2021.2.0,239.9606464546264,
congruent-right.jpg,1,k,right_arrow.png,right_arrow.png,right_arrow.png,right_arrow.png,right_arrow.png,right_arrow.png,right_arrow.png,,,,,5,0,30,2,,,,,,,,,,,,,157.23252030000003,None,,,,,,,,,,,,,,,,,,,,,,,,,,,,,,158.24180609999985,None,158.24180609999985,None,158.24180609999985,None,158.24180609999985,None,158.24180609999985,None,158.24180609999985,None,158.24180609999985,None,k,1,0.519032000000152,158.24180609999985,None,,,,,,,,,,,,,20,001,2022_Oct_20_1920,Flanker,2021.2.0,239.9606464546264,
incongruent-left.jpg,0,a,right_arrow.png,right_arrow.png,right_arrow.png,left_arrow.png,right_arrow.png,right_arrow.png,right_arrow.png,,,,,5,1,31,1,,,,,,,,,,,,,158.77579969999988,None,,,,,,,,,,,,,,,,,,,,,,,,,,,,,,159.78517620000002,None,159.78517620000002,None,159.78517620000002,None,159.78517620000002,None,159.78517620000002,None,159.78517620000002,None,159.78517620000002,None,a,1,0.45554810000066936,159.78517620000002,None,,,,,,,,,,,,,20,001,2022_Oct_20_1920,Flanker,2021.2.0,239.9606464546264,
neutral left,0,a,neutral.png,neutral.png,neutral.png,left_arrow.png,neutral.png,neutral.png,neutral.png,,,,,5,2,32,4,,,,,,,,,,,,,160.25243919999957,None,,,,,,,,,,,,,,,,,,,,,,,,,,,,,,161.26602720000028,None,161.26602720000028,None,161.26602720000028,None,161.26602720000028,None,161.26602720000028,None,161.26602720000028,None,161.26602720000028,None,a,1,0.343211300000803,161.26602720000028,None,,,,,,,,,,,,,20,001,2022_Oct_20_1920,Flanker,2021.2.0,239.9606464546264,
incongruent-right.jpg,0,k,left_arrow.png,left_arrow.png,left_arrow.png,right_arrow.png,left_arrow.png,left_arrow.png,left_arrow.png,,,,,5,3,33,3,,,,,,,,,,,,,161.62478219999957,None,,,,,,,,,,,,,,,,,,,,,,,,,,,,,,162.63823129999946,None,162.63823129999946,None,162.63823129999946,None,162.63823129999946,None,162.63823129999946,None,162.63823129999946,None,162.63823129999946,None,k,1,0.8111982000000353,162.63823129999946,None,,,,,,,,,,,,,20,001,2022_Oct_20_1920,Flanker,2021.2.0,239.9606464546264,
incongruent-right.jpg,0,k,left_arrow.png,left_arrow.png,left_arrow.png,right_arrow.png,left_arrow.png,left_arrow.png,left_arrow.png,,,,,5,4,34,3,,,,,,,,,,,,,163.46417419999943,None,,,,,,,,,,,,,,,,,,,,,,,,,,,,,,164.4775694,None,164.4775694,None,164.4775694,None,164.4775694,None,164.4775694,None,164.4775694,None,164.4775694,None,k,1,0.5397867000001497,164.4775694,None,,,,,,,,,,,,,20,001,2022_Oct_20_1920,Flanker,2021.2.0,239.9606464546264,
congruent-right.jpg,1,k,right_arrow.png,right_arrow.png,right_arrow.png,right_arrow.png,right_arrow.png,right_arrow.png,right_arrow.png,,,,,5,5,35,2,,,,,,,,,,,,,165.03661620000003,None,,,,,,,,,,,,,,,,,,,,,,,,,,,,,,166.05007620000015,None,166.05007620000015,None,166.05007620000015,None,166.05007620000015,None,166.05007620000015,None,166.05007620000015,None,166.05007620000015,None,k,1,0.3358218000003035,166.05007620000015,None,,,,,,,,,,,,,20,001,2022_Oct_20_1920,Flanker,2021.2.0,239.9606464546264,
congruent-left.jpg,1,a,left_arrow.png,left_arrow.png,left_arrow.png,left_arrow.png,left_arrow.png,left_arrow.png,left_arrow.png,,,,,6,0,36,0,,,,,,,,,,,,,166.4005545,None,,,,,,,,,,,,,,,,,,,,,,,,,,,,,,167.40983799999958,None,167.40983799999958,None,167.40983799999958,None,167.40983799999958,None,167.40983799999958,None,167.40983799999958,None,167.40983799999958,None,a,1,0.40000619999955234,167.40983799999958,None,,,,,,,,,,,,,20,001,2022_Oct_20_1920,Flanker,2021.2.0,239.9606464546264,
neutral right,0,k,neutral.png,neutral.png,neutral.png,right_arrow.png,neutral.png,neutral.png,neutral.png,,,,,6,1,37,5,,,,,,,,,,,,,167.82688229999985,None,,,,,,,,,,,,,,,,,,,,,,,,,,,,,,168.84060200000022,None,168.84060200000022,None,168.84060200000022,None,168.84060200000022,None,168.84060200000022,None,168.84060200000022,None,168.84060200000022,None,k,1,0.5853747999999541,168.84060200000022,None,,,,,,,,,,,,,20,001,2022_Oct_20_1920,Flanker,2021.2.0,239.9606464546264,
incongruent-right.jpg,0,k,left_arrow.png,left_arrow.png,left_arrow.png,right_arrow.png,left_arrow.png,left_arrow.png,left_arrow.png,,,,,6,2,38,3,,,,,,,,,,,,,169.44126529999994,None,,,,,,,,,,,,,,,,,,,,,,,,,,,,,,170.45042850000027,None,170.45042850000027,None,170.45042850000027,None,170.45042850000027,None,170.45042850000027,None,170.45042850000027,None,170.45042850000027,None,k,1,0.5520217000002958,170.45042850000027,None,,,,,,,,,,,,,20,001,2022_Oct_20_1920,Flanker,2021.2.0,239.9606464546264,
congruent-right.jpg,1,k,right_arrow.png,right_arrow.png,right_arrow.png,right_arrow.png,right_arrow.png,right_arrow.png,right_arrow.png,,,,,6,3,39,2,,,,,,,,,,,,,171.01777289999973,None,,,,,,,,,,,,,,,,,,,,,,,,,,,,,,172.03140970000004,None,172.03140970000004,None,172.03140970000004,None,172.03140970000004,None,172.03140970000004,None,172.03140970000004,None,172.03140970000004,None,k,1,0.4272817999999461,172.03140970000004,None,,,,,,,,,,,,,20,001,2022_Oct_20_1920,Flanker,2021.2.0,239.9606464546264,
congruent-left.jpg,1,a,left_arrow.png,left_arrow.png,left_arrow.png,left_arrow.png,left_arrow.png,left_arrow.png,left_arrow.png,,,,,6,4,40,0,,,,,,,,,,,,,172.47370609999962,None,,,,,,,,,,,,,,,,,,,,,,,,,,,,,,173.47875659999954,None,173.47875659999954,None,173.47875659999954,None,173.47875659999954,None,173.47875659999954,None,173.47875659999954,None,173.47875659999954,None,a,1,1.4520032999998875,173.47875659999954,None,,,,,,,,,,,,,20,001,2022_Oct_20_1920,Flanker,2021.2.0,239.9606464546264,
congruent-left.jpg,1,a,left_arrow.png,left_arrow.png,left_arrow.png,left_arrow.png,left_arrow.png,left_arrow.png,left_arrow.png,,,,,6,5,41,0,,,,,,,,,,,,,174.94711449999977,None,,,,,,,,,,,,,,,,,,,,,,,,,,,,,,175.95627390000027,None,175.95627390000027,None,175.95627390000027,None,175.95627390000027,None,175.95627390000027,None,175.95627390000027,None,175.95627390000027,None,a,1,0.4229646000003413,175.95627390000027,None,,,,,,,,,,,,,20,001,2022_Oct_20_1920,Flanker,2021.2.0,239.9606464546264,
incongruent-left.jpg,0,a,right_arrow.png,right_arrow.png,right_arrow.png,left_arrow.png,right_arrow.png,right_arrow.png,right_arrow.png,,,,,7,0,42,1,,,,,,,,,,,,,176.39455739999994,None,,,,,,,,,,,,,,,,,,,,,,,,,,,,,,177.40376199999992,None,177.40376199999992,None,177.40376199999992,None,177.40376199999992,None,177.40376199999992,None,177.40376199999992,None,177.40376199999992,None,a,1,0.7675763999995979,177.40376199999992,None,,,,,,,,,,,,,20,001,2022_Oct_20_1920,Flanker,2021.2.0,239.9606464546264,
neutral right,0,k,neutral.png,neutral.png,neutral.png,right_arrow.png,neutral.png,neutral.png,neutral.png,,,,,7,1,43,5,,,,,,,,,,,,,178.18811660000028,None,,,,,,,,,,,,,,,,,,,,,,,,,,,,,,179.2016295000003,None,179.2016295000003,None,179.2016295000003,None,179.2016295000003,None,179.2016295000003,None,179.2016295000003,None,179.2016295000003,None,k,1,0.5137181000000055,179.2016295000003,None,,,,,,,,,,,,,20,001,2022_Oct_20_1920,Flanker,2021.2.0,239.9606464546264,
neutral right,0,k,neutral.png,neutral.png,neutral.png,right_arrow.png,neutral.png,neutral.png,neutral.png,,,,,7,2,44,5,,,,,,,,,,,,,179.72694179999962,None,,,,,,,,,,,,,,,,,,,,,,,,,,,,,,180.73654739999984,None,180.73654739999984,None,180.73654739999984,None,180.73654739999984,None,180.73654739999984,None,180.73654739999984,None,180.73654739999984,None,k,1,0.459163599999556,180.73654739999984,None,,,,,,,,,,,,,20,001,2022_Oct_20_1920,Flanker,2021.2.0,239.9606464546264,
congruent-right.jpg,1,k,right_arrow.png,right_arrow.png,right_arrow.png,right_arrow.png,right_arrow.png,right_arrow.png,right_arrow.png,,,,,7,3,45,2,,,,,,,,,,,,,181.2121473999996,None,,,,,,,,,,,,,,,,,,,,,,,,,,,,,,182.22565059999943,None,182.22565059999943,None,182.22565059999943,None,182.22565059999943,None,182.22565059999943,None,182.22565059999943,None,182.22565059999943,None,k,1,0.482111199999963,182.22565059999943,None,,,,,,,,,,,,,20,001,2022_Oct_20_1920,Flanker,2021.2.0,239.9606464546264,
neutral left,0,a,neutral.png,neutral.png,neutral.png,left_arrow.png,neutral.png,neutral.png,neutral.png,,,,,7,4,46,4,,,,,,,,,,,,,182.72600619999957,None,,,,,,,,,,,,,,,,,,,,,,,,,,,,,,183.73976089999996,None,183.73976089999996,None,183.73976089999996,None,183.73976089999996,None,183.73976089999996,None,183.73976089999996,None,183.73976089999996,None,a,1,1.3125542000007044,183.73976089999996,None,,,,,,,,,,,,,20,001,2022_Oct_20_1920,Flanker,2021.2.0,239.9606464546264,
incongruent-right.jpg,0,k,left_arrow.png,left_arrow.png,left_arrow.png,right_arrow.png,left_arrow.png,left_arrow.png,left_arrow.png,,,,,7,5,47,3,,,,,,,,,,,,,185.06602909999947,None,,,,,,,,,,,,,,,,,,,,,,,,,,,,,,186.07971519999955,None,186.07971519999955,None,186.07971519999955,None,186.07971519999955,None,186.07971519999955,None,186.07971519999955,None,186.07971519999955,None,k,1,0.5649190000003728,186.07971519999955,None,,,,,,,,,,,,,20,001,2022_Oct_20_1920,Flanker,2021.2.0,239.9606464546264,
,,,,,,,,,,,,,,,,,,,,,,,,,,,,,,,,,,,,,,,,,,,,,,,,,,,,,,,,,,,,,,,,,,,,,,,,,,,,,,,,186.67601819999982,None,space,27.26794819999941,186.67601819999982,None,,,,,,,20,001,2022_Oct_20_1920,Flanker,2021.2.0,239.9606464546264,
incongruent-right.jpg,0,k,left_arrow.png,left_arrow.png,left_arrow.png,right_arrow.png,left_arrow.png,left_arrow.png,left_arrow.png,,,,,,,,,0,0,0,3,,,,,,,,,213.9716059000002,None,,,,,,,,,,,,,,,,,,,,,,,,,,,,,,214.98108609999963,None,214.98108609999963,None,214.98108609999963,None,214.98108609999963,None,214.98108609999963,None,214.98108609999963,None,214.98108609999963,None,k,1,0.6193374999993466,214.98108609999963,None,,,,,,,,,,,,,20,001,2022_Oct_20_1920,Flanker,2021.2.0,239.9606464546264,
incongruent-right.jpg,0,k,left_arrow.png,left_arrow.png,left_arrow.png,right_arrow.png,left_arrow.png,left_arrow.png,left_arrow.png,,,,,,,,,0,1,1,3,,,,,,,,,215.6151964999999,None,,,,,,,,,,,,,,,,,,,,,,,,,,,,,,216.62864780000018,None,216.62864780000018,None,216.62864780000018,None,216.62864780000018,None,216.62864780000018,None,216.62864780000018,None,216.62864780000018,None,k,1,0.5557176000002073,216.62864780000018,None,,,,,,,,,,,,,20,001,2022_Oct_20_1920,Flanker,2021.2.0,239.9606464546264,
incongruent-left.jpg,0,a,right_arrow.png,right_arrow.png,right_arrow.png,left_arrow.png,right_arrow.png,right_arrow.png,right_arrow.png,,,,,,,,,0,2,2,1,,,,,,,,,217.19602190000023,None,,,,,,,,,,,,,,,,,,,,,,,,,,,,,,218.2054135999997,None,218.2054135999997,None,218.2054135999997,None,218.2054135999997,None,218.2054135999997,None,218.2054135999997,None,218.2054135999997,None,a,1,0.5232014000002891,218.2054135999997,None,,,,,,,,,,,,,20,001,2022_Oct_20_1920,Flanker,2021.2.0,239.9606464546264,
neutral right,0,k,neutral.png,neutral.png,neutral.png,right_arrow.png,neutral.png,neutral.png,neutral.png,,,,,,,,,0,3,3,5,,,,,,,,,218.74756739999975,None,,,,,,,,,,,,,,,,,,,,,,,,,,,,,,219.76135270000032,None,219.76135270000032,None,219.76135270000032,None,219.76135270000032,None,219.76135270000032,None,219.76135270000032,None,219.76135270000032,None,k,1,0.639439499999753,219.76135270000032,None,,,,,,,,,,,,,20,001,2022_Oct_20_1920,Flanker,2021.2.0,239.9606464546264,
neutral right,0,k,neutral.png,neutral.png,neutral.png,right_arrow.png,neutral.png,neutral.png,neutral.png,,,,,,,,,0,4,4,5,,,,,,,,,220.41191749999962,None,,,,,,,,,,,,,,,,,,,,,,,,,,,,,,221.42549809999946,None,221.42549809999946,None,221.42549809999946,None,221.42549809999946,None,221.42549809999946,None,221.42549809999946,None,221.42549809999946,None,k,1,1.063581399999748,221.42549809999946,None,,,,,,,,,,,,,20,001,2022_Oct_20_1920,Flanker,2021.2.0,239.9606464546264,
incongruent-right.jpg,0,k,left_arrow.png,left_arrow.png,left_arrow.png,right_arrow.png,left_arrow.png,left_arrow.png,left_arrow.png,,,,,,,,,0,5,5,3,,,,,,,,,222.50160330000017,None,,,,,,,,,,,,,,,,,,,,,,,,,,,,,,223.5152320999996,None,223.5152320999996,None,223.5152320999996,None,223.5152320999996,None,223.5152320999996,None,223.5152320999996,None,223.5152320999996,None,k,1,0.9342162000002645,223.5152320999996,None,,,,,,,,,,,,,20,001,2022_Oct_20_1920,Flanker,2021.2.0,239.9606464546264,
neutral left,0,a,neutral.png,neutral.png,neutral.png,left_arrow.png,neutral.png,neutral.png,neutral.png,,,,,,,,,1,0,6,4,,,,,,,,,224.46625669999958,None,,,,,,,,,,,,,,,,,,,,,,,,,,,,,,225.47980579999967,None,225.47980579999967,None,225.47980579999967,None,225.47980579999967,None,225.47980579999967,None,225.47980579999967,None,225.47980579999967,None,a,1,0.8500242999998591,225.47980579999967,None,,,,,,,,,,,,,20,001,2022_Oct_20_1920,Flanker,2021.2.0,239.9606464546264,
neutral right,0,k,neutral.png,neutral.png,neutral.png,right_arrow.png,neutral.png,neutral.png,neutral.png,,,,,,,,,1,1,7,5,,,,,,,,,226.34744989999945,None,,,,,,,,,,,,,,,,,,,,,,,,,,,,,,227.3607721999997,None,227.3607721999997,None,227.3607721999997,None,227.3607721999997,None,227.3607721999997,None,227.3607721999997,None,227.3607721999997,None,k,1,1.5531932000003508,227.3607721999997,None,,,,,,,,,,,,,20,001,2022_Oct_20_1920,Flanker,2021.2.0,239.9606464546264,
incongruent-right.jpg,0,k,left_arrow.png,left_arrow.png,left_arrow.png,right_arrow.png,left_arrow.png,left_arrow.png,left_arrow.png,,,,,,,,,1,2,8,3,,,,,,,,,228.9292760999997,None,,,,,,,,,,,,,,,,,,,,,,,,,,,,,,229.9427329,None,229.9427329,None,229.9427329,None,229.9427329,None,229.9427329,None,229.9427329,None,229.9427329,None,k,1,0.7954646999996839,229.9427329,None,,,,,,,,,,,,,20,001,2022_Oct_20_1920,Flanker,2021.2.0,239.9606464546264,
incongruent-left.jpg,0,a,right_arrow.png,right_arrow.png,right_arrow.png,left_arrow.png,right_arrow.png,right_arrow.png,right_arrow.png,,,,,,,,,1,3,9,1,,,,,,,,,230.75207760000012,None,,,,,,,,,,,,,,,,,,,,,,,,,,,,,,231.7654266999998,None,231.7654266999998,None,231.7654266999998,None,231.7654266999998,None,231.7654266999998,None,231.7654266999998,None,231.7654266999998,None,a,1,0.8532863999998881,231.7654266999998,None,,,,,,,,,,,,,20,001,2022_Oct_20_1920,Flanker,2021.2.0,239.9606464546264,
congruent-left.jpg,1,a,left_arrow.png,left_arrow.png,left_arrow.png,left_arrow.png,left_arrow.png,left_arrow.png,left_arrow.png,,,,,,,,,1,4,10,0,,,,,,,,,232.63323260000016,None,,,,,,,,,,,,,,,,,,,,,,,,,,,,,,233.6466892999997,None,233.6466892999997,None,233.6466892999997,None,233.6466892999997,None,233.6466892999997,None,233.6466892999997,None,233.6466892999997,None,a,1,0.8040383000006841,233.6466892999997,None,,,,,,,,,,,,,20,001,2022_Oct_20_1920,Flanker,2021.2.0,239.9606464546264,
neutral right,0,k,neutral.png,neutral.png,neutral.png,right_arrow.png,neutral.png,neutral.png,neutral.png,,,,,,,,,1,5,11,5,,,,,,,,,234.46421310000005,None,,,,,,,,,,,,,,,,,,,,,,,,,,,,,,235.4736694000003,None,235.4736694000003,None,235.4736694000003,None,235.4736694000003,None,235.4736694000003,None,235.4736694000003,None,235.4736694000003,None,k,1,0.5772493000004033,235.4736694000003,None,,,,,,,,,,,,,20,001,2022_Oct_20_1920,Flanker,2021.2.0,239.9606464546264,
neutral left,0,a,neutral.png,neutral.png,neutral.png,left_arrow.png,neutral.png,neutral.png,neutral.png,,,,,,,,,2,0,12,4,,,,,,,,,236.06589179999992,None,,,,,,,,,,,,,,,,,,,,,,,,,,,,,,237.07112400000005,None,237.07112400000005,None,237.07112400000005,None,237.07112400000005,None,237.07112400000005,None,237.07112400000005,None,237.07112400000005,None,a,1,0.7161854000005405,237.07112400000005,None,,,,,,,,,,,,,20,001,2022_Oct_20_1920,Flanker,2021.2.0,239.9606464546264,
neutral left,0,a,neutral.png,neutral.png,neutral.png,left_arrow.png,neutral.png,neutral.png,neutral.png,,,,,,,,,2,1,13,4,,,,,,,,,237.80538909999996,None,,,,,,,,,,,,,,,,,,,,,,,,,,,,,,238.81502420000015,None,238.81502420000015,None,238.81502420000015,None,238.81502420000015,None,238.81502420000015,None,238.81502420000015,None,238.81502420000015,None,a,1,0.4363021999997727,238.81502420000015,None,,,,,,,,,,,,,20,001,2022_Oct_20_1920,Flanker,2021.2.0,239.9606464546264,
incongruent-left.jpg,0,a,right_arrow.png,right_arrow.png,right_arrow.png,left_arrow.png,right_arrow.png,right_arrow.png,right_arrow.png,,,,,,,,,2,2,14,1,,,,,,,,,239.26522260000002,None,,,,,,,,,,,,,,,,,,,,,,,,,,,,,,240.278816,None,240.278816,None,240.278816,None,240.278816,None,240.278816,None,240.278816,None,240.278816,None,a,1,0.5009925000003932,240.278816,None,,,,,,,,,,,,,20,001,2022_Oct_20_1920,Flanker,2021.2.0,239.9606464546264,
neutral left,0,a,neutral.png,neutral.png,neutral.png,left_arrow.png,neutral.png,neutral.png,neutral.png,,,,,,,,,2,3,15,4,,,,,,,,,240.79603849999967,None,,,,,,,,,,,,,,,,,,,,,,,,,,,,,,241.80542119999973,None,241.80542119999973,None,241.80542119999973,None,241.80542119999973,None,241.80542119999973,None,241.80542119999973,None,241.80542119999973,None,a,1,0.4703356999998505,241.80542119999973,None,,,,,,,,,,,,,20,001,2022_Oct_20_1920,Flanker,2021.2.0,239.9606464546264,
congruent-left.jpg,1,a,left_arrow.png,left_arrow.png,left_arrow.png,left_arrow.png,left_arrow.png,left_arrow.png,left_arrow.png,,,,,,,,,2,4,16,0,,,,,,,,,242.28928019999967,None,,,,,,,,,,,,,,,,,,,,,,,,,,,,,,243.30281370000012,None,243.30281370000012,None,243.30281370000012,None,243.30281370000012,None,243.30281370000012,None,243.30281370000012,None,243.30281370000012,None,a,1,0.5651365999992777,243.30281370000012,None,,,,,,,,,,,,,20,001,2022_Oct_20_1920,Flanker,2021.2.0,239.9606464546264,
neutral right,0,k,neutral.png,neutral.png,neutral.png,right_arrow.png,neutral.png,neutral.png,neutral.png,,,,,,,,,2,5,17,5,,,,,,,,,243.88685170000008,None,,,,,,,,,,,,,,,,,,,,,,,,,,,,,,244.8962179,None,244.8962179,None,244.8962179,None,244.8962179,None,244.8962179,None,244.8962179,None,244.8962179,None,k,1,0.7321927000002688,244.8962179,None,,,,,,,,,,,,,20,001,2022_Oct_20_1920,Flanker,2021.2.0,239.9606464546264,
congruent-left.jpg,1,a,left_arrow.png,left_arrow.png,left_arrow.png,left_arrow.png,left_arrow.png,left_arrow.png,left_arrow.png,,,,,,,,,3,0,18,0,,,,,,,,,245.6470250000002,None,,,,,,,,,,,,,,,,,,,,,,,,,,,,,,246.66059339999993,None,246.66059339999993,None,246.66059339999993,None,246.66059339999993,None,246.66059339999993,None,246.66059339999993,None,246.66059339999993,None,a,1,1.0638741000002483,246.66059339999993,None,,,,,,,,,,,,,20,001,2022_Oct_20_1920,Flanker,2021.2.0,239.9606464546264,
congruent-right.jpg,1,k,right_arrow.png,right_arrow.png,right_arrow.png,right_arrow.png,right_arrow.png,right_arrow.png,right_arrow.png,,,,,,,,,3,1,19,2,,,,,,,,,247.73672689999967,None,,,,,,,,,,,,,,,,,,,,,,,,,,,,,,248.7463614999997,None,248.7463614999997,None,248.7463614999997,None,248.7463614999997,None,248.7463614999997,None,248.7463614999997,None,248.7463614999997,None,k,1,0.9303509999999733,248.7463614999997,None,,,,,,,,,,,,,20,001,2022_Oct_20_1920,Flanker,2021.2.0,239.9606464546264,
congruent-left.jpg,1,a,left_arrow.png,left_arrow.png,left_arrow.png,left_arrow.png,left_arrow.png,left_arrow.png,left_arrow.png,,,,,,,,,3,2,20,0,,,,,,,,,249.68878760000007,None,,,,,,,,,,,,,,,,,,,,,,,,,,,,,,250.7022436999996,None,250.7022436999996,None,250.7022436999996,None,250.7022436999996,None,250.7022436999996,None,250.7022436999996,None,250.7022436999996,None,a,1,0.9430202999992616,250.7022436999996,None,,,,,,,,,,,,,20,001,2022_Oct_20_1920,Flanker,2021.2.0,239.9606464546264,
incongruent-left.jpg,0,a,right_arrow.png,right_arrow.png,right_arrow.png,left_arrow.png,right_arrow.png,right_arrow.png,right_arrow.png,,,,,,,,,3,3,21,1,,,,,,,,,251.66160870000022,None,,,,,,,,,,,,,,,,,,,,,,,,,,,,,,252.6750449000001,None,252.6750449000001,None,252.6750449000001,None,252.6750449000001,None,252.6750449000001,None,252.6750449000001,None,252.6750449000001,None,a,1,1.754594900000484,252.6750449000001,None,,,,,,,,,,,,,20,001,2022_Oct_20_1920,Flanker,2021.2.0,239.9606464546264,
neutral left,0,a,neutral.png,neutral.png,neutral.png,left_arrow.png,neutral.png,neutral.png,neutral.png,,,,,,,,,3,4,22,4,,,,,,,,,254.4438584999998,None,,,,,,,,,,,,,,,,,,,,,,,,,,,,,,255.45322839999972,None,255.45322839999972,None,255.45322839999972,None,255.45322839999972,None,255.45322839999972,None,255.45322839999972,None,255.45322839999972,None,a,1,1.0165927000007287,255.45322839999972,None,,,,,,,,,,,,,20,001,2022_Oct_20_1920,Flanker,2021.2.0,239.9606464546264,
neutral left,0,a,neutral.png,neutral.png,neutral.png,left_arrow.png,neutral.png,neutral.png,neutral.png,,,,,,,,,3,5,23,4,,,,,,,,,256.4876900999998,None,,,,,,,,,,,,,,,,,,,,,,,,,,,,,,257.49693990000014,None,257.49693990000014,None,257.49693990000014,None,257.49693990000014,None,257.49693990000014,None,257.49693990000014,None,257.49693990000014,None,a,1,0.5969308000003366,257.49693990000014,None,,,,,,,,,,,,,20,001,2022_Oct_20_1920,Flanker,2021.2.0,239.9606464546264,
incongruent-left.jpg,0,a,right_arrow.png,right_arrow.png,right_arrow.png,left_arrow.png,right_arrow.png,right_arrow.png,right_arrow.png,,,,,,,,,4,0,24,1,,,,,,,,,258.1060386999998,None,,,,,,,,,,,,,,,,,,,,,,,,,,,,,,259.11532569999963,None,259.11532569999963,None,259.11532569999963,None,259.11532569999963,None,259.11532569999963,None,259.11532569999963,None,259.11532569999963,None,a,1,0.8190526999997019,259.11532569999963,None,,,,,,,,,,,,,20,001,2022_Oct_20_1920,Flanker,2021.2.0,239.9606464546264,
congruent-left.jpg,1,a,left_arrow.png,left_arrow.png,left_arrow.png,left_arrow.png,left_arrow.png,left_arrow.png,left_arrow.png,,,,,,,,,4,1,25,0,,,,,,,,,259.9496416000002,None,,,,,,,,,,,,,,,,,,,,,,,,,,,,,,260.96735290000015,None,260.96735290000015,None,260.96735290000015,None,260.96735290000015,None,260.96735290000015,None,260.96735290000015,None,260.96735290000015,None,a,1,0.7272745999998733,260.96735290000015,None,,,,,,,,,,,,,20,001,2022_Oct_20_1920,Flanker,2021.2.0,239.9606464546264,
congruent-left.jpg,1,a,left_arrow.png,left_arrow.png,left_arrow.png,left_arrow.png,left_arrow.png,left_arrow.png,left_arrow.png,,,,,,,,,4,2,26,0,,,,,,,,,261.7098423999996,None,,,,,,,,,,,,,,,,,,,,,,,,,,,,,,262.7192425000003,None,262.7192425000003,None,262.7192425000003,None,262.7192425000003,None,262.7192425000003,None,262.7192425000003,None,262.7192425000003,None,a,1,0.6633295999999973,262.7192425000003,None,,,,,,,,,,,,,20,001,2022_Oct_20_1920,Flanker,2021.2.0,239.9606464546264,
incongruent-right.jpg,0,k,left_arrow.png,left_arrow.png,left_arrow.png,right_arrow.png,left_arrow.png,left_arrow.png,left_arrow.png,,,,,,,,,4,3,27,3,,,,,,,,,263.39465389999987,None,,,,,,,,,,,,,,,,,,,,,,,,,,,,,,264.4044557999996,None,264.4044557999996,None,264.4044557999996,None,264.4044557999996,None,264.4044557999996,None,264.4044557999996,None,264.4044557999996,None,k,1,1.6187785000001895,264.4044557999996,None,,,,,,,,,,,,,20,001,2022_Oct_20_1920,Flanker,2021.2.0,239.9606464546264,
neutral left,0,a,neutral.png,neutral.png,neutral.png,left_arrow.png,neutral.png,neutral.png,neutral.png,,,,,,,,,4,4,28,4,,,,,,,,,266.0392505,None,,,,,,,,,,,,,,,,,,,,,,,,,,,,,,267.04885339999964,None,267.04885339999964,None,267.04885339999964,None,267.04885339999964,None,267.04885339999964,None,267.04885339999964,None,267.04885339999964,None,a,1,0.6383712000006199,267.04885339999964,None,,,,,,,,,,,,,20,001,2022_Oct_20_1920,Flanker,2021.2.0,239.9606464546264,
congruent-left.jpg,1,a,left_arrow.png,left_arrow.png,left_arrow.png,left_arrow.png,left_arrow.png,left_arrow.png,left_arrow.png,,,,,,,,,4,5,29,0,,,,,,,,,267.6992914000002,None,,,,,,,,,,,,,,,,,,,,,,,,,,,,,,268.7088359999998,None,268.7088359999998,None,268.7088359999998,None,268.7088359999998,None,268.7088359999998,None,268.7088359999998,None,268.7088359999998,None,a,1,0.6028192000003401,268.7088359999998,None,,,,,,,,,,,,,20,001,2022_Oct_20_1920,Flanker,2021.2.0,239.9606464546264,
neutral right,0,k,neutral.png,neutral.png,neutral.png,right_arrow.png,neutral.png,neutral.png,neutral.png,,,,,,,,,5,0,30,5,,,,,,,,,269.32626619999974,None,,,,,,,,,,,,,,,,,,,,,,,,,,,,,,270.33957999999984,None,270.33957999999984,None,270.33957999999984,None,270.33957999999984,None,270.33957999999984,None,270.33957999999984,None,270.33957999999984,None,k,1,1.0043406000004325,270.33957999999984,None,,,,,,,,,,,,,20,001,2022_Oct_20_1920,Flanker,2021.2.0,239.9606464546264,
neutral left,0,a,neutral.png,neutral.png,neutral.png,left_arrow.png,neutral.png,neutral.png,neutral.png,,,,,,,,,5,1,31,4,,,,,,,,,271.3576465999995,None,,,,,,,,,,,,,,,,,,,,,,,,,,,,,,272.37104089999957,None,272.37104089999957,None,272.37104089999957,None,272.37104089999957,None,272.37104089999957,None,272.37104089999957,None,272.37104089999957,None,a,1,0.6848171000001457,272.37104089999957,None,,,,,,,,,,,,,20,001,2022_Oct_20_1920,Flanker,2021.2.0,239.9606464546264,
incongruent-left.jpg,0,a,right_arrow.png,right_arrow.png,right_arrow.png,left_arrow.png,right_arrow.png,right_arrow.png,right_arrow.png,,,,,,,,,5,2,32,1,,,,,,,,,273.07167690000006,None,,,,,,,,,,,,,,,,,,,,,,,,,,,,,,274.0851987999995,None,274.0851987999995,None,274.0851987999995,None,274.0851987999995,None,274.0851987999995,None,274.0851987999995,None,274.0851987999995,None,a,1,0.6269001000000571,274.0851987999995,None,,,,,,,,,,,,,20,001,2022_Oct_20_1920,Flanker,2021.2.0,239.9606464546264,
congruent-left.jpg,1,a,left_arrow.png,left_arrow.png,left_arrow.png,left_arrow.png,left_arrow.png,left_arrow.png,left_arrow.png,,,,,,,,,5,3,33,0,,,,,,,,,274.72757619999993,None,,,,,,,,,,,,,,,,,,,,,,,,,,,,,,275.73716160000004,None,275.73716160000004,None,275.73716160000004,None,275.73716160000004,None,275.73716160000004,None,275.73716160000004,None,275.73716160000004,None,a,1,0.6551587000003565,275.73716160000004,None,,,,,,,,,,,,,20,001,2022_Oct_20_1920,Flanker,2021.2.0,239.9606464546264,
congruent-right.jpg,1,k,right_arrow.png,right_arrow.png,right_arrow.png,right_arrow.png,right_arrow.png,right_arrow.png,right_arrow.png,,,,,,,,,5,4,34,2,,,,,,,,,276.40431999999964,None,,,,,,,,,,,,,,,,,,,,,,,,,,,,,,277.41797059999953,None,277.41797059999953,None,277.41797059999953,None,277.41797059999953,None,277.41797059999953,None,277.41797059999953,None,277.41797059999953,None,k,1,1.5508577999999034,277.41797059999953,None,,,,,,,,,,,,,20,001,2022_Oct_20_1920,Flanker,2021.2.0,239.9606464546264,
neutral right,0,k,neutral.png,neutral.png,neutral.png,right_arrow.png,neutral.png,neutral.png,neutral.png,,,,,,,,,5,5,35,5,,,,,,,,,278.9862511000001,None,,,,,,,,,,,,,,,,,,,,,,,,,,,,,,279.99563409999973,None,279.99563409999973,None,279.99563409999973,None,279.99563409999973,None,279.99563409999973,None,279.99563409999973,None,279.99563409999973,None,k,1,0.6932561000003261,279.99563409999973,None,,,,,,,,,,,,,20,001,2022_Oct_20_1920,Flanker,2021.2.0,239.9606464546264,
congruent-right.jpg,1,k,right_arrow.png,right_arrow.png,right_arrow.png,right_arrow.png,right_arrow.png,right_arrow.png,right_arrow.png,,,,,,,,,6,0,36,2,,,,,,,,,280.70472830000017,None,,,,,,,,,,,,,,,,,,,,,,,,,,,,,,281.71442639999987,None,281.71442639999987,None,281.71442639999987,None,281.71442639999987,None,281.71442639999987,None,281.71442639999987,None,281.71442639999987,None,k,1,0.47066129999984696,281.71442639999987,None,,,,,,,,,,,,,20,001,2022_Oct_20_1920,Flanker,2021.2.0,239.9606464546264,
incongruent-right.jpg,0,k,left_arrow.png,left_arrow.png,left_arrow.png,right_arrow.png,left_arrow.png,left_arrow.png,left_arrow.png,,,,,,,,,6,1,37,3,,,,,,,,,282.19821239999965,None,,,,,,,,,,,,,,,,,,,,,,,,,,,,,,283.2115308000002,None,283.2115308000002,None,283.2115308000002,None,283.2115308000002,None,283.2115308000002,None,283.2115308000002,None,283.2115308000002,None,k,1,0.7977897999999186,283.2115308000002,None,,,,,,,,,,,,,20,001,2022_Oct_20_1920,Flanker,2021.2.0,239.9606464546264,
incongruent-right.jpg,0,k,left_arrow.png,left_arrow.png,left_arrow.png,right_arrow.png,left_arrow.png,left_arrow.png,left_arrow.png,,,,,,,,,6,2,38,3,,,,,,,,,284.0207264999999,None,,,,,,,,,,,,,,,,,,,,,,,,,,,,,,285.0386282999998,None,285.0386282999998,None,285.0386282999998,None,285.0386282999998,None,285.0386282999998,None,285.0386282999998,None,285.0386282999998,None,k,1,0.5949427999994441,285.0386282999998,None,,,,,,,,,,,,,20,001,2022_Oct_20_1920,Flanker,2021.2.0,239.9606464546264,
congruent-right.jpg,1,k,right_arrow.png,right_arrow.png,right_arrow.png,right_arrow.png,right_arrow.png,right_arrow.png,right_arrow.png,,,,,,,,,6,3,39,2,,,,,,,,,285.64785479999955,None,,,,,,,,,,,,,,,,,,,,,,,,,,,,,,286.66118579999966,None,286.66118579999966,None,286.66118579999966,None,286.66118579999966,None,286.66118579999966,None,286.66118579999966,None,286.66118579999966,None,k,1,0.38857069999994565,286.66118579999966,None,,,,,,,,,,,,,20,001,2022_Oct_20_1920,Flanker,2021.2.0,239.9606464546264,
neutral right,0,k,neutral.png,neutral.png,neutral.png,right_arrow.png,neutral.png,neutral.png,neutral.png,,,,,,,,,6,4,40,5,,,,,,,,,287.0614207999997,None,,,,,,,,,,,,,,,,,,,,,,,,,,,,,,288.07083760000023,None,288.07083760000023,None,288.07083760000023,None,288.07083760000023,None,288.07083760000023,None,288.07083760000023,None,288.07083760000023,None,k,1,0.7311491999998907,288.07083760000023,None,,,,,,,,,,,,,20,001,2022_Oct_20_1920,Flanker,2021.2.0,239.9606464546264,
congruent-right.jpg,1,k,right_arrow.png,right_arrow.png,right_arrow.png,right_arrow.png,right_arrow.png,right_arrow.png,right_arrow.png,,,,,,,,,6,5,41,2,,,,,,,,,288.81330660000003,None,,,,,,,,,,,,,,,,,,,,,,,,,,,,,,289.8227071000001,None,289.8227071000001,None,289.8227071000001,None,289.8227071000001,None,289.8227071000001,None,289.8227071000001,None,289.8227071000001,None,k,1,0.6595254999992903,289.8227071000001,None,,,,,,,,,,,,,20,001,2022_Oct_20_1920,Flanker,2021.2.0,239.9606464546264,
congruent-right.jpg,1,k,right_arrow.png,right_arrow.png,right_arrow.png,right_arrow.png,right_arrow.png,right_arrow.png,right_arrow.png,,,,,,,,,7,0,42,2,,,,,,,,,290.4984936999999,None,,,,,,,,,,,,,,,,,,,,,,,,,,,,,,291.5121561999995,None,291.5121561999995,None,291.5121561999995,None,291.5121561999995,None,291.5121561999995,None,291.5121561999995,None,291.5121561999995,None,k,1,0.9943649999995614,291.5121561999995,None,,,,,,,,,,,,,20,001,2022_Oct_20_1920,Flanker,2021.2.0,239.9606464546264,
incongruent-right.jpg,0,k,left_arrow.png,left_arrow.png,left_arrow.png,right_arrow.png,left_arrow.png,left_arrow.png,left_arrow.png,,,,,,,,,7,1,43,3,,,,,,,,,292.52166579999994,None,,,,,,,,,,,,,,,,,,,,,,,,,,,,,,293.5303619999995,None,293.5303619999995,None,293.5303619999995,None,293.5303619999995,None,293.5303619999995,None,293.5303619999995,None,293.5303619999995,None,k,1,0.7123631000004025,293.5303619999995,None,,,,,,,,,,,,,20,001,2022_Oct_20_1920,Flanker,2021.2.0,239.9606464546264,
congruent-right.jpg,1,k,right_arrow.png,right_arrow.png,right_arrow.png,right_arrow.png,right_arrow.png,right_arrow.png,right_arrow.png,,,,,,,,,7,2,44,2,,,,,,,,,294.25670100000025,None,,,,,,,,,,,,,,,,,,,,,,,,,,,,,,295.26606360000005,None,295.26606360000005,None,295.26606360000005,None,295.26606360000005,None,295.26606360000005,None,295.26606360000005,None,295.26606360000005,None,k,1,0.7689055000000735,295.26606360000005,None,,,,,,,,,,,,,20,001,2022_Oct_20_1920,Flanker,2021.2.0,239.9606464546264,
congruent-right.jpg,1,k,right_arrow.png,right_arrow.png,right_arrow.png,right_arrow.png,right_arrow.png,right_arrow.png,right_arrow.png,,,,,,,,,7,3,45,2,,,,,,,,,296.0503241999995,None,,,,,,,,,,,,,,,,,,,,,,,,,,,,,,297.05963989999964,None,297.05963989999964,None,297.05963989999964,None,297.05963989999964,None,297.05963989999964,None,297.05963989999964,None,297.05963989999964,None,k,1,1.0076132000003781,297.05963989999964,None,,,,,,,,,,,,,20,001,2022_Oct_20_1920,Flanker,2021.2.0,239.9606464546264,
incongruent-left.jpg,0,a,right_arrow.png,right_arrow.png,right_arrow.png,left_arrow.png,right_arrow.png,right_arrow.png,right_arrow.png,,,,,,,,,7,4,46,1,,,,,,,,,298.0856299999996,None,,,,,,,,,,,,,,,,,,,,,,,,,,,,,,299.0951603000003,None,299.0951603000003,None,299.0951603000003,None,299.0951603000003,None,299.0951603000003,None,299.0951603000003,None,299.0951603000003,None,a,1,1.036358499999551,299.0951603000003,None,,,,,,,,,,,,,20,001,2022_Oct_20_1920,Flanker,2021.2.0,239.9606464546264,
incongruent-left.jpg,0,a,right_arrow.png,right_arrow.png,right_arrow.png,left_arrow.png,right_arrow.png,right_arrow.png,right_arrow.png,,,,,,,,,7,5,47,1,,,,,,,,,300.14615239999966,None,,,,,,,,,,,,,,,,,,,,,,,,,,,,,,301.1600518999994,None,301.1600518999994,None,301.1600518999994,None,301.1600518999994,None,301.1600518999994,None,301.1600518999994,None,301.1600518999994,None,a,1,0.643713100000241,301.1600518999994,None,,,,,,,,,,,,,20,001,2022_Oct_20_1920,Flanker,2021.2.0,239.9606464546264,
,,,,,,,,,,,,,,,,,,,,,,,,,,,,,,,,,,,,,,,,,,,,,,,,,,,,,,,,,,,,,,,,,,,,,,,,,,,,,,,,301.8314204999997,None,space,2.6446748999997,301.8314204999997,None,,,,,,,20,001,2022_Oct_20_1920,Flanker,2021.2.0,239.9606464546264,
neutral left,0,a,neutral.png,neutral.png,neutral.png,left_arrow.png,neutral.png,neutral.png,neutral.png,,,,,,,,,,,,,0,0,0,4,,,,,304.5008891999996,None,,,,,,,,,,,,,,,,,,,,,,,,,,,,,,305.5059951000003,None,305.5059951000003,None,305.5059951000003,None,305.5059951000003,None,305.5059951000003,None,305.5059951000003,None,305.5059951000003,None,a,1,0.42631249999976717,305.5059951000003,None,,,,,,,,,,,,,20,001,2022_Oct_20_1920,Flanker,2021.2.0,239.9606464546264,
congruent-left.jpg,1,a,left_arrow.png,left_arrow.png,left_arrow.png,left_arrow.png,left_arrow.png,left_arrow.png,left_arrow.png,,,,,,,,,,,,,0,1,1,0,,,,,305.94819949999965,None,,,,,,,,,,,,,,,,,,,,,,,,,,,,,,306.96623269999964,None,306.96623269999964,None,306.96623269999964,None,306.96623269999964,None,306.96623269999964,None,306.96623269999964,None,306.96623269999964,None,a,1,0.5503173999995852,306.96623269999964,None,,,,,,,,,,,,,20,001,2022_Oct_20_1920,Flanker,2021.2.0,239.9606464546264,
incongruent-right.jpg,0,k,left_arrow.png,left_arrow.png,left_arrow.png,right_arrow.png,left_arrow.png,left_arrow.png,left_arrow.png,,,,,,,,,,,,,0,2,2,3,,,,,307.5331963999997,None,,,,,,,,,,,,,,,,,,,,,,,,,,,,,,308.54669289999947,None,308.54669289999947,None,308.54669289999947,None,308.54669289999947,None,308.54669289999947,None,308.54669289999947,None,308.54669289999947,None,k,1,0.6020490000000791,308.54669289999947,None,,,,,,,,,,,,,20,001,2022_Oct_20_1920,Flanker,2021.2.0,239.9606464546264,
congruent-right.jpg,1,k,right_arrow.png,right_arrow.png,right_arrow.png,right_arrow.png,right_arrow.png,right_arrow.png,right_arrow.png,,,,,,,,,,,,,0,3,3,2,,,,,309.16401719999976,None,,,,,,,,,,,,,,,,,,,,,,,,,,,,,,310.1736814999995,None,310.1736814999995,None,310.1736814999995,None,310.1736814999995,None,310.1736814999995,None,310.1736814999995,None,310.1736814999995,None,k,1,0.5596355999996376,310.1736814999995,None,,,,,,,,,,,,,20,001,2022_Oct_20_1920,Flanker,2021.2.0,239.9606464546264,
congruent-left.jpg,1,a,left_arrow.png,left_arrow.png,left_arrow.png,left_arrow.png,left_arrow.png,left_arrow.png,left_arrow.png,,,,,,,,,,,,,0,4,4,0,,,,,310.7493165999995,None,,,,,,,,,,,,,,,,,,,,,,,,,,,,,,311.76263579999977,None,311.76263579999977,None,311.76263579999977,None,311.76263579999977,None,311.76263579999977,None,311.76263579999977,None,311.76263579999977,None,a,1,0.4747418999995716,311.76263579999977,None,,,,,,,,,,,,,20,001,2022_Oct_20_1920,Flanker,2021.2.0,239.9606464546264,
neutral right,0,k,neutral.png,neutral.png,neutral.png,right_arrow.png,neutral.png,neutral.png,neutral.png,,,,,,,,,,,,,0,5,5,5,,,,,312.2549669,None,,,,,,,,,,,,,,,,,,,,,,,,,,,,,,313.2685561999997,None,313.2685561999997,None,313.2685561999997,None,313.2685561999997,None,313.2685561999997,None,313.2685561999997,None,313.2685561999997,None,k,1,0.6571352000000843,313.2685561999997,None,,,,,,,,,,,,,20,001,2022_Oct_20_1920,Flanker,2021.2.0,239.9606464546264,
congruent-right.jpg,1,k,right_arrow.png,right_arrow.png,right_arrow.png,right_arrow.png,right_arrow.png,right_arrow.png,right_arrow.png,,,,,,,,,,,,,1,0,6,2,,,,,313.9443504000001,None,,,,,,,,,,,,,,,,,,,,,,,,,,,,,,314.96183759999985,None,314.96183759999985,None,314.96183759999985,None,314.96183759999985,None,314.96183759999985,None,314.96183759999985,None,314.96183759999985,None,k,1,0.39596029999938764,314.96183759999985,None,,,,,,,,,,,,,20,001,2022_Oct_20_1920,Flanker,2021.2.0,239.9606464546264,
incongruent-right.jpg,0,k,left_arrow.png,left_arrow.png,left_arrow.png,right_arrow.png,left_arrow.png,left_arrow.png,left_arrow.png,,,,,,,,,,,,,1,1,7,3,,,,,315.3750339999997,None,,,,,,,,,,,,,,,,,,,,,,,,,,,,,,316.38449630000014,None,316.38449630000014,None,316.38449630000014,None,316.38449630000014,None,316.38449630000014,None,316.38449630000014,None,316.38449630000014,None,k,1,0.3815772999996625,316.38449630000014,None,,,,,,,,,,,,,20,001,2022_Oct_20_1920,Flanker,2021.2.0,239.9606464546264,
incongruent-left.jpg,0,a,right_arrow.png,right_arrow.png,right_arrow.png,left_arrow.png,right_arrow.png,right_arrow.png,right_arrow.png,,,,,,,,,,,,,1,2,8,1,,,,,316.78484389999994,None,,,,,,,,,,,,,,,,,,,,,,,,,,,,,,317.8025908999998,None,317.8025908999998,None,317.8025908999998,None,317.8025908999998,None,317.8025908999998,None,317.8025908999998,None,317.8025908999998,None,a,1,0.4834811999999147,317.8025908999998,None,,,,,,,,,,,,,20,001,2022_Oct_20_1920,Flanker,2021.2.0,239.9606464546264,
congruent-right.jpg,1,k,right_arrow.png,right_arrow.png,right_arrow.png,right_arrow.png,right_arrow.png,right_arrow.png,right_arrow.png,,,,,,,,,,,,,1,3,9,2,,,,,318.30315809999956,None,,,,,,,,,,,,,,,,,,,,,,,,,,,,,,319.3124179999995,None,319.3124179999995,None,319.3124179999995,None,319.3124179999995,None,319.3124179999995,None,319.3124179999995,None,319.3124179999995,None,k,1,0.42175940000015544,319.3124179999995,None,,,,,,,,,,,,,20,001,2022_Oct_20_1920,Flanker,2021.2.0,239.9606464546264,
neutral right,0,k,neutral.png,neutral.png,neutral.png,right_arrow.png,neutral.png,neutral.png,neutral.png,,,,,,,,,,,,,1,4,10,5,,,,,319.7461592999998,None,,,,,,,,,,,,,,,,,,,,,,,,,,,,,,320.7557992000002,None,320.7557992000002,None,320.7557992000002,None,320.7557992000002,None,320.7557992000002,None,320.7557992000002,None,320.7557992000002,None,k,1,0.4027869000001374,320.7557992000002,None,,,,,,,,,,,,,20,001,2022_Oct_20_1920,Flanker,2021.2.0,239.9606464546264,
congruent-left.jpg,1,a,left_arrow.png,left_arrow.png,left_arrow.png,left_arrow.png,left_arrow.png,left_arrow.png,left_arrow.png,,,,,,,,,,,,,1,5,11,0,,,,,321.17275299999983,None,,,,,,,,,,,,,,,,,,,,,,,,,,,,,,322.1861845000003,None,322.1861845000003,None,322.1861845000003,None,322.1861845000003,None,322.1861845000003,None,322.1861845000003,None,322.1861845000003,None,k,0,0.26839860000018234,322.1861845000003,None,,,,,,,,,,,,,20,001,2022_Oct_20_1920,Flanker,2021.2.0,239.9606464546264,
neutral left,0,a,neutral.png,neutral.png,neutral.png,left_arrow.png,neutral.png,neutral.png,neutral.png,,,,,,,,,,,,,2,0,12,4,,,,,322.4698085,None,,,,,,,,,,,,,,,,,,,,,,,,,,,,,,323.4833980000003,None,323.4833980000003,None,323.4833980000003,None,323.4833980000003,None,323.4833980000003,None,323.4833980000003,None,323.4833980000003,None,a,1,0.44359029999941413,323.4833980000003,None,,,,,,,,,,,,,20,001,2022_Oct_20_1920,Flanker,2021.2.0,239.9606464546264,
incongruent-left.jpg,0,a,right_arrow.png,right_arrow.png,right_arrow.png,left_arrow.png,right_arrow.png,right_arrow.png,right_arrow.png,,,,,,,,,,,,,2,1,13,1,,,,,323.94251840000015,None,,,,,,,,,,,,,,,,,,,,,,,,,,,,,,324.9559284999996,None,324.9559284999996,None,324.9559284999996,None,324.9559284999996,None,324.9559284999996,None,324.9559284999996,None,324.9559284999996,None,a,1,0.5469997999998668,324.9559284999996,None,,,,,,,,,,,,,20,001,2022_Oct_20_1920,Flanker,2021.2.0,239.9606464546264,
incongruent-right.jpg,0,k,left_arrow.png,left_arrow.png,left_arrow.png,right_arrow.png,left_arrow.png,left_arrow.png,left_arrow.png,,,,,,,,,,,,,2,2,14,3,,,,,325.5148409000003,None,,,,,,,,,,,,,,,,,,,,,,,,,,,,,,326.5243338999999,None,326.5243338999999,None,326.5243338999999,None,326.5243338999999,None,326.5243338999999,None,326.5243338999999,None,326.5243338999999,None,k,1,0.5387964999999895,326.5243338999999,None,,,,,,,,,,,,,20,001,2022_Oct_20_1920,Flanker,2021.2.0,239.9606464546264,
neutral right,0,k,neutral.png,neutral.png,neutral.png,right_arrow.png,neutral.png,neutral.png,neutral.png,,,,,,,,,,,,,2,3,15,5,,,,,327.0746615999997,None,,,,,,,,,,,,,,,,,,,,,,,,,,,,,,328.0884970999996,None,328.0884970999996,None,328.0884970999996,None,328.0884970999996,None,328.0884970999996,None,328.0884970999996,None,328.0884970999996,None,k,1,0.42285200000060286,328.0884970999996,None,,,,,,,,,,,,,20,001,2022_Oct_20_1920,Flanker,2021.2.0,239.9606464546264,
neutral left,0,a,neutral.png,neutral.png,neutral.png,left_arrow.png,neutral.png,neutral.png,neutral.png,,,,,,,,,,,,,2,4,16,4,,,,,328.5305314999996,None,,,,,,,,,,,,,,,,,,,,,,,,,,,,,,329.53585310000017,None,329.53585310000017,None,329.53585310000017,None,329.53585310000017,None,329.53585310000017,None,329.53585310000017,None,329.53585310000017,None,a,1,0.35192450000067765,329.53585310000017,None,,,,,,,,,,,,,20,001,2022_Oct_20_1920,Flanker,2021.2.0,239.9606464546264,
congruent-left.jpg,1,a,left_arrow.png,left_arrow.png,left_arrow.png,left_arrow.png,left_arrow.png,left_arrow.png,left_arrow.png,,,,,,,,,,,,,2,5,17,0,,,,,329.9030567,None,,,,,,,,,,,,,,,,,,,,,,,,,,,,,,330.91231009999956,None,330.91231009999956,None,330.91231009999956,None,330.91231009999956,None,330.91231009999956,None,330.91231009999956,None,330.91231009999956,None,a,1,0.41567510000004404,330.91231009999956,None,,,,,,,,,,,,,20,001,2022_Oct_20_1920,Flanker,2021.2.0,239.9606464546264,
incongruent-right.jpg,0,k,left_arrow.png,left_arrow.png,left_arrow.png,right_arrow.png,left_arrow.png,left_arrow.png,left_arrow.png,,,,,,,,,,,,,3,0,18,3,,,,,331.3461244,None,,,,,,,,,,,,,,,,,,,,,,,,,,,,,,332.35961339999994,None,332.35961339999994,None,332.35961339999994,None,332.35961339999994,None,332.35961339999994,None,332.35961339999994,None,332.35961339999994,None,k,1,0.440531799999917,332.35961339999994,None,,,,,,,,,,,,,20,001,2022_Oct_20_1920,Flanker,2021.2.0,239.9606464546264,
incongruent-left.jpg,0,a,right_arrow.png,right_arrow.png,right_arrow.png,left_arrow.png,right_arrow.png,right_arrow.png,right_arrow.png,,,,,,,,,,,,,3,1,19,1,,,,,332.8186426000002,None,,,,,,,,,,,,,,,,,,,,,,,,,,,,,,333.8319898,None,333.8319898,None,333.8319898,None,333.8319898,None,333.8319898,None,333.8319898,None,333.8319898,None,a,1,0.7444319999995059,333.8319898,None,,,,,,,,,,,,,20,001,2022_Oct_20_1920,Flanker,2021.2.0,239.9606464546264,
neutral right,0,k,neutral.png,neutral.png,neutral.png,right_arrow.png,neutral.png,neutral.png,neutral.png,,,,,,,,,,,,,3,2,20,5,,,,,334.59123120000004,None,,,,,,,,,,,,,,,,,,,,,,,,,,,,,,335.6045416999996,None,335.6045416999996,None,335.6045416999996,None,335.6045416999996,None,335.6045416999996,None,335.6045416999996,None,335.6045416999996,None,k,1,0.5640800000001036,335.6045416999996,None,,,,,,,,,,,,,20,001,2022_Oct_20_1920,Flanker,2021.2.0,239.9606464546264,
incongruent-left.jpg,0,a,right_arrow.png,right_arrow.png,right_arrow.png,left_arrow.png,right_arrow.png,right_arrow.png,right_arrow.png,,,,,,,,,,,,,3,3,21,1,,,,,336.18459239999993,None,,,,,,,,,,,,,,,,,,,,,,,,,,,,,,337.19817199999943,None,337.19817199999943,None,337.19817199999943,None,337.19817199999943,None,337.19817199999943,None,337.19817199999943,None,337.19817199999943,None,a,1,0.8267352000002575,337.19817199999943,None,,,,,,,,,,,,,20,001,2022_Oct_20_1920,Flanker,2021.2.0,239.9606464546264,
incongruent-left.jpg,0,a,right_arrow.png,right_arrow.png,right_arrow.png,left_arrow.png,right_arrow.png,right_arrow.png,right_arrow.png,,,,,,,,,,,,,3,4,22,1,,,,,338.0405602999999,None,,,,,,,,,,,,,,,,,,,,,,,,,,,,,,339.05010349999975,None,339.05010349999975,None,339.05010349999975,None,339.05010349999975,None,339.05010349999975,None,339.05010349999975,None,339.05010349999975,None,a,1,0.43869979999999487,339.05010349999975,None,,,,,,,,,,,,,20,001,2022_Oct_20_1920,Flanker,2021.2.0,239.9606464546264,
congruent-right.jpg,1,k,right_arrow.png,right_arrow.png,right_arrow.png,right_arrow.png,right_arrow.png,right_arrow.png,right_arrow.png,,,,,,,,,,,,,3,5,23,2,,,,,339.50059039999996,None,,,,,,,,,,,,,,,,,,,,,,,,,,,,,,340.51406099999986,None,340.51406099999986,None,340.51406099999986,None,340.51406099999986,None,340.51406099999986,None,340.51406099999986,None,340.51406099999986,None,k,1,0.638958300000013,340.51406099999986,None,,,,,,,,,,,,,20,001,2022_Oct_20_1920,Flanker,2021.2.0,239.9606464546264,
neutral left,0,a,neutral.png,neutral.png,neutral.png,left_arrow.png,neutral.png,neutral.png,neutral.png,,,,,,,,,,,,,4,0,24,4,,,,,341.1648739000002,None,,,,,,,,,,,,,,,,,,,,,,,,,,,,,,342.17426799999976,None,342.17426799999976,None,342.17426799999976,None,342.17426799999976,None,342.17426799999976,None,342.17426799999976,None,342.17426799999976,None,a,1,0.45909500000016124,342.17426799999976,None,,,,,,,,,,,,,20,001,2022_Oct_20_1920,Flanker,2021.2.0,239.9606464546264,
neutral left,0,a,neutral.png,neutral.png,neutral.png,left_arrow.png,neutral.png,neutral.png,neutral.png,,,,,,,,,,,,,4,1,25,4,,,,,342.6498660999996,None,,,,,,,,,,,,,,,,,,,,,,,,,,,,,,343.6593101999997,None,343.6593101999997,None,343.6593101999997,None,343.6593101999997,None,343.6593101999997,None,343.6593101999997,None,343.6593101999997,None,a,1,0.42211260000021866,343.6593101999997,None,,,,,,,,,,,,,20,001,2022_Oct_20_1920,Flanker,2021.2.0,239.9606464546264,
congruent-left.jpg,1,a,left_arrow.png,left_arrow.png,left_arrow.png,left_arrow.png,left_arrow.png,left_arrow.png,left_arrow.png,,,,,,,,,,,,,4,2,26,0,,,,,344.09297030000016,None,,,,,,,,,,,,,,,,,,,,,,,,,,,,,,345.1065914999999,None,345.1065914999999,None,345.1065914999999,None,345.1065914999999,None,345.1065914999999,None,345.1065914999999,None,345.1065914999999,None,a,1,1.1994243999997707,345.1065914999999,None,,,,,,,,,,,,,20,001,2022_Oct_20_1920,Flanker,2021.2.0,239.9606464546264,
congruent-left.jpg,1,a,left_arrow.png,left_arrow.png,left_arrow.png,left_arrow.png,left_arrow.png,left_arrow.png,left_arrow.png,,,,,,,,,,,,,4,3,27,0,,,,,346.3242319000001,None,,,,,,,,,,,,,,,,,,,,,,,,,,,,,,347.33795289999944,None,347.33795289999944,None,347.33795289999944,None,347.33795289999944,None,347.33795289999944,None,347.33795289999944,None,347.33795289999944,None,a,1,0.43997919999947044,347.33795289999944,None,,,,,,,,,,,,,20,001,2022_Oct_20_1920,Flanker,2021.2.0,239.9606464546264,
neutral right,0,k,neutral.png,neutral.png,neutral.png,right_arrow.png,neutral.png,neutral.png,neutral.png,,,,,,,,,,,,,4,4,28,5,,,,,347.7968946000001,None,,,,,,,,,,,,,,,,,,,,,,,,,,,,,,348.8060839,None,348.8060839,None,348.8060839,None,348.8060839,None,348.8060839,None,348.8060839,None,348.8060839,None,k,1,0.6360420000000886,348.8060839,None,,,,,,,,,,,,,20,001,2022_Oct_20_1920,Flanker,2021.2.0,239.9606464546264,
neutral left,0,a,neutral.png,neutral.png,neutral.png,left_arrow.png,neutral.png,neutral.png,neutral.png,,,,,,,,,,,,,4,5,29,4,,,,,349.4567342999999,None,,,,,,,,,,,,,,,,,,,,,,,,,,,,,,350.4664686999995,None,350.4664686999995,None,350.4664686999995,None,350.4664686999995,None,350.4664686999995,None,350.4664686999995,None,350.4664686999995,None,a,1,0.39192670000011276,350.4664686999995,None,,,,,,,,,,,,,20,001,2022_Oct_20_1920,Flanker,2021.2.0,239.9606464546264,
congruent-right.jpg,1,k,right_arrow.png,right_arrow.png,right_arrow.png,right_arrow.png,right_arrow.png,right_arrow.png,right_arrow.png,,,,,,,,,,,,,5,0,30,2,,,,,350.87490329999946,None,,,,,,,,,,,,,,,,,,,,,,,,,,,,,,351.8887420000001,None,351.8887420000001,None,351.8887420000001,None,351.8887420000001,None,351.8887420000001,None,351.8887420000001,None,351.8887420000001,None,k,1,0.41801049999958195,351.8887420000001,None,,,,,,,,,,,,,20,001,2022_Oct_20_1920,Flanker,2021.2.0,239.9606464546264,
congruent-right.jpg,1,k,right_arrow.png,right_arrow.png,right_arrow.png,right_arrow.png,right_arrow.png,right_arrow.png,right_arrow.png,,,,,,,,,,,,,5,1,31,2,,,,,352.3224003999994,None,,,,,,,,,,,,,,,,,,,,,,,,,,,,,,353.3359697999995,None,353.3359697999995,None,353.3359697999995,None,353.3359697999995,None,353.3359697999995,None,353.3359697999995,None,353.3359697999995,None,k,1,0.37900249999984226,353.3359697999995,None,,,,,,,,,,,,,20,001,2022_Oct_20_1920,Flanker,2021.2.0,239.9606464546264,
congruent-right.jpg,1,k,right_arrow.png,right_arrow.png,right_arrow.png,right_arrow.png,right_arrow.png,right_arrow.png,right_arrow.png,,,,,,,,,,,,,5,2,32,2,,,,,353.7281119999998,None,,,,,,,,,,,,,,,,,,,,,,,,,,,,,,354.74147189999985,None,354.74147189999985,None,354.74147189999985,None,354.74147189999985,None,354.74147189999985,None,354.74147189999985,None,354.74147189999985,None,k,1,0.4534477999995943,354.74147189999985,None,,,,,,,,,,,,,20,001,2022_Oct_20_1920,Flanker,2021.2.0,239.9606464546264,
incongruent-right.jpg,0,k,left_arrow.png,left_arrow.png,left_arrow.png,right_arrow.png,left_arrow.png,left_arrow.png,left_arrow.png,,,,,,,,,,,,,5,3,33,3,,,,,355.2088805000003,None,,,,,,,,,,,,,,,,,,,,,,,,,,,,,,356.2141163999995,None,356.2141163999995,None,356.2141163999995,None,356.2141163999995,None,356.2141163999995,None,356.2141163999995,None,356.2141163999995,None,k,1,0.30125239999961195,356.2141163999995,None,,,,,,,,,,,,,20,001,2022_Oct_20_1920,Flanker,2021.2.0,239.9606464546264,
neutral left,0,a,neutral.png,neutral.png,neutral.png,left_arrow.png,neutral.png,neutral.png,neutral.png,,,,,,,,,,,,,5,4,34,4,,,,,356.5312660999998,None,,,,,,,,,,,,,,,,,,,,,,,,,,,,,,357.54054670000005,None,357.54054670000005,None,357.54054670000005,None,357.54054670000005,None,357.54054670000005,None,357.54054670000005,None,357.54054670000005,None,a,1,0.4151805000001332,357.54054670000005,None,,,,,,,,,,,,,20,001,2022_Oct_20_1920,Flanker,2021.2.0,239.9606464546264,
incongruent-left.jpg,0,a,right_arrow.png,right_arrow.png,right_arrow.png,left_arrow.png,right_arrow.png,right_arrow.png,right_arrow.png,,,,,,,,,,,,,5,5,35,1,,,,,357.97449809999944,None,,,,,,,,,,,,,,,,,,,,,,,,,,,,,,358.9879939000002,None,358.9879939000002,None,358.9879939000002,None,358.9879939000002,None,358.9879939000002,None,358.9879939000002,None,358.9879939000002,None,a,1,0.487483500000053,358.9879939000002,None,,,,,,,,,,,,,20,001,2022_Oct_20_1920,Flanker,2021.2.0,239.9606464546264,
congruent-right.jpg,1,k,right_arrow.png,right_arrow.png,right_arrow.png,right_arrow.png,right_arrow.png,right_arrow.png,right_arrow.png,,,,,,,,,,,,,6,0,36,2,,,,,359.48842460000014,None,,,,,,,,,,,,,,,,,,,,,,,,,,,,,,360.4979709999998,None,360.4979709999998,None,360.4979709999998,None,360.4979709999998,None,360.4979709999998,None,360.4979709999998,None,360.4979709999998,None,k,1,0.5057201999998142,360.4979709999998,None,,,,,,,,,,,,,20,001,2022_Oct_20_1920,Flanker,2021.2.0,239.9606464546264,
incongruent-left.jpg,0,a,right_arrow.png,right_arrow.png,right_arrow.png,left_arrow.png,right_arrow.png,right_arrow.png,right_arrow.png,,,,,,,,,,,,,6,1,37,1,,,,,361.0152238999999,None,,,,,,,,,,,,,,,,,,,,,,,,,,,,,,362.0285723999996,None,362.0285723999996,None,362.0285723999996,None,362.0285723999996,None,362.0285723999996,None,362.0285723999996,None,362.0285723999996,None,a,1,0.5116204000005382,362.0285723999996,None,,,,,,,,,,,,,20,001,2022_Oct_20_1920,Flanker,2021.2.0,239.9606464546264,
neutral left,0,a,neutral.png,neutral.png,neutral.png,left_arrow.png,neutral.png,neutral.png,neutral.png,,,,,,,,,,,,,6,2,38,4,,,,,362.55426519999946,None,,,,,,,,,,,,,,,,,,,,,,,,,,,,,,363.56356549999964,None,363.56356549999964,None,363.56356549999964,None,363.56356549999964,None,363.56356549999964,None,363.56356549999964,None,363.56356549999964,None,a,1,0.36882799999966664,363.56356549999964,None,,,,,,,,,,,,,20,001,2022_Oct_20_1920,Flanker,2021.2.0,239.9606464546264,
neutral right,0,k,neutral.png,neutral.png,neutral.png,right_arrow.png,neutral.png,neutral.png,neutral.png,,,,,,,,,,,,,6,3,39,5,,,,,363.9473860999997,None,,,,,,,,,,,,,,,,,,,,,,,,,,,,,,364.95671029999994,None,364.95671029999994,None,364.95671029999994,None,364.95671029999994,None,364.95671029999994,None,364.95671029999994,None,364.95671029999994,None,k,1,0.3595694999994521,364.95671029999994,None,,,,,,,,,,,,,20,001,2022_Oct_20_1920,Flanker,2021.2.0,239.9606464546264,
incongruent-right.jpg,0,k,left_arrow.png,left_arrow.png,left_arrow.png,right_arrow.png,left_arrow.png,left_arrow.png,left_arrow.png,,,,,,,,,,,,,6,4,40,3,,,,,365.33214150000003,None,,,,,,,,,,,,,,,,,,,,,,,,,,,,,,366.3415296000003,None,366.3415296000003,None,366.3415296000003,None,366.3415296000003,None,366.3415296000003,None,366.3415296000003,None,366.3415296000003,None,k,1,0.45493809999970836,366.3415296000003,None,,,,,,,,,,,,,20,001,2022_Oct_20_1920,Flanker,2021.2.0,239.9606464546264,
incongruent-right.jpg,0,k,left_arrow.png,left_arrow.png,left_arrow.png,right_arrow.png,left_arrow.png,left_arrow.png,left_arrow.png,,,,,,,,,,,,,6,5,41,3,,,,,366.8084249000003,None,,,,,,,,,,,,,,,,,,,,,,,,,,,,,,367.8178917999994,None,367.8178917999994,None,367.8178917999994,None,367.8178917999994,None,367.8178917999994,None,367.8178917999994,None,367.8178917999994,None,k,1,0.4030978000000687,367.8178917999994,None,,,,,,,,,,,,,20,001,2022_Oct_20_1920,Flanker,2021.2.0,239.9606464546264,
congruent-left.jpg,1,a,left_arrow.png,left_arrow.png,left_arrow.png,left_arrow.png,left_arrow.png,left_arrow.png,left_arrow.png,,,,,,,,,,,,,7,0,42,0,,,,,368.2352885,None,,,,,,,,,,,,,,,,,,,,,,,,,,,,,,369.2445902999998,None,369.2445902999998,None,369.2445902999998,None,369.2445902999998,None,369.2445902999998,None,369.2445902999998,None,369.2445902999998,None,a,1,0.36051899999984016,369.2445902999998,None,,,,,,,,,,,,,20,001,2022_Oct_20_1920,Flanker,2021.2.0,239.9606464546264,
incongruent-left.jpg,0,a,right_arrow.png,right_arrow.png,right_arrow.png,left_arrow.png,right_arrow.png,right_arrow.png,right_arrow.png,,,,,,,,,,,,,7,1,43,1,,,,,369.62010069999997,None,,,,,,,,,,,,,,,,,,,,,,,,,,,,,,370.62927709999985,None,370.62927709999985,None,370.62927709999985,None,370.62927709999985,None,370.62927709999985,None,370.62927709999985,None,370.62927709999985,None,a,1,0.4797688999997263,370.62927709999985,None,,,,,,,,,,,,,20,001,2022_Oct_20_1920,Flanker,2021.2.0,239.9606464546264,
neutral right,0,k,neutral.png,neutral.png,neutral.png,right_arrow.png,neutral.png,neutral.png,neutral.png,,,,,,,,,,,,,7,2,44,5,,,,,371.12168870000005,None,,,,,,,,,,,,,,,,,,,,,,,,,,,,,,372.1351673999998,None,372.1351673999998,None,372.1351673999998,None,372.1351673999998,None,372.1351673999998,None,372.1351673999998,None,372.1351673999998,None,k,1,0.3503849999997328,372.1351673999998,None,,,,,,,,,,,,,20,001,2022_Oct_20_1920,Flanker,2021.2.0,239.9606464546264,
congruent-left.jpg,1,a,left_arrow.png,left_arrow.png,left_arrow.png,left_arrow.png,left_arrow.png,left_arrow.png,left_arrow.png,,,,,,,,,,,,,7,3,45,0,,,,,372.5023033999996,None,,,,,,,,,,,,,,,,,,,,,,,,,,,,,,373.5157787999997,None,373.5157787999997,None,373.5157787999997,None,373.5157787999997,None,373.5157787999997,None,373.5157787999997,None,373.5157787999997,None,a,1,0.3458510999998907,373.5157787999997,None,,,,,,,,,,,,,20,001,2022_Oct_20_1920,Flanker,2021.2.0,239.9606464546264,
incongruent-right.jpg,0,k,left_arrow.png,left_arrow.png,left_arrow.png,right_arrow.png,left_arrow.png,left_arrow.png,left_arrow.png,,,,,,,,,,,,,7,4,46,3,,,,,373.8745216999996,None,,,,,,,,,,,,,,,,,,,,,,,,,,,,,,374.88401929999964,None,374.88401929999964,None,374.88401929999964,None,374.88401929999964,None,374.88401929999964,None,374.88401929999964,None,374.88401929999964,None,k,1,0.4738835999996809,374.88401929999964,None,,,,,,,,,,,,,20,001,2022_Oct_20_1920,Flanker,2021.2.0,239.9606464546264,
neutral right,0,k,neutral.png,neutral.png,neutral.png,right_arrow.png,neutral.png,neutral.png,neutral.png,,,,,,,,,,,,,7,5,47,5,,,,,375.3761107999999,None,,,,,,,,,,,,,,,,,,,,,,,,,,,,,,376.3896942000001,None,376.3896942000001,None,376.3896942000001,None,376.3896942000001,None,376.3896942000001,None,376.3896942000001,None,376.3896942000001,None,k,1,0.40848449999975855,376.3896942000001,None,,,,,,,,,,,,,20,001,2022_Oct_20_1920,Flanker,2021.2.0,239.9606464546264,
,,,,,,,,,,,,,,,,,,,,,,,,,,,,,,,,,,,,,,,,,,,,,,,,,,,,,,,,,,,,,,,,,,,,,,,,,,,,,,,,376.8278289,None,space,54.8253880000002,376.8278289,None,,,,,,,20,001,2022_Oct_20_1920,Flanker,2021.2.0,239.9606464546264,
,,,,,,,,,,,,,,,,,,,,,,,,,,,,,,,,,,,,,,,,,,,,,,,,,,,,,,,,,,,,,,,,,,,,,,,,,,,,,,,,,,,,,,431.66882590000023,None,space,3.040796799999953,431.66882590000023,None,20,001,2022_Oct_20_1920,Flanker,2021.2.0,239.9606464546264,
