images,congruentcy,corrAns,arrow_1,arrow_2,arrow_3,target,arrow_5,arrow_6,arrow_7,practice.thisRepN,practice.thisTrialN,practice.thisN,practice.thisIndex,trials.thisRepN,trials.thisTrialN,trials.thisN,trials.thisIndex,trials_2.thisRepN,trials_2.thisTrialN,trials_2.thisN,trials_2.thisIndex,trials_3.thisRepN,trials_3.thisTrialN,trials_3.thisN,trials_3.thisIndex,instr_text.started,instr_text.stopped,instr_resp.keys,instr_resp.rt,polygon.started,polygon.stopped,arrow1_.started,arrow1_.stopped,arrow2_.started,arrow2_.stopped,arrow3_.started,arrow3_.stopped,target_p.started,target_p.stopped,arrow5_.started,arrow5_.stopped,arrow6_.started,arrow6_.stopped,arrow7_.started,arrow7_.stopped,key_resp_P.keys,key_resp_P.corr,key_resp_P.rt,key_resp_P.started,key_resp_P.stopped,text_2.started,text_2.stopped,text_3.started,text_3.stopped,text_4.started,text_4.stopped,key_resp_2.keys,key_resp_2.rt,key_resp_2.started,key_resp_2.stopped,arrow1.started,arrow1.stopped,arrow2.started,arrow2.stopped,arrow3.started,arrow3.stopped,target_t.started,target_t.stopped,arrow5.started,arrow5.stopped,arrow6.started,arrow6.stopped,arrow7.started,arrow7.stopped,key_resp.keys,key_resp.corr,key_resp.rt,key_resp.started,key_resp.stopped,text_5.started,text_5.stopped,key_resp_3.keys,key_resp_3.rt,key_resp_3.started,key_resp_3.stopped,text_6.started,text_6.stopped,key_resp_4.keys,key_resp_4.rt,key_resp_4.started,key_resp_4.stopped,participant,session,date,expName,psychopyVersion,frameRate,
,,,,,,,,,,,,,,,,,,,,,,,,,,15.705494799999997,None,space,11.627434599999987,,,,,,,,,,,,,,,,,,,,,,,,,,,,,,,,,,,,,,,,,,,,,,,,,,,,,,,,,,,,,,,21,001,2022_Oct_21_1940,Flanker,2021.2.0,241.1655046508843,
neutral right,0,k,neutral.png,neutral.png,neutral.png,right_arrow.png,neutral.png,neutral.png,neutral.png,0,0,0,5,,,,,,,,,,,,,,,,,27.373729400000002,None,28.466458099999983,None,28.466458099999983,None,28.466458099999983,None,28.466458099999983,None,28.466458099999983,None,28.466458099999983,None,28.466458099999983,None,k,1,0.8027230000000145,28.466458099999983,None,29.292382099999998,None,,,,,,,,,,,,,,,,,,,,,,,,,,,,,,,,,,,,,,,,21,001,2022_Oct_21_1940,Flanker,2021.2.0,241.1655046508843,
incongruent-right.jpg,0,k,left_arrow.png,left_arrow.png,left_arrow.png,right_arrow.png,left_arrow.png,left_arrow.png,left_arrow.png,0,1,1,3,,,,,,,,,,,,,,,,,30.79399669999998,None,31.815881599999983,None,31.815881599999983,None,31.815881599999983,None,31.815881599999983,None,31.815881599999983,None,31.815881599999983,None,31.815881599999983,None,k,1,1.7979280999999787,31.815881599999983,None,33.626217699999984,None,,,,,,,,,,,,,,,,,,,,,,,,,,,,,,,,,,,,,,,,21,001,2022_Oct_21_1940,Flanker,2021.2.0,241.1655046508843,
congruent-right.jpg,1,k,right_arrow.png,right_arrow.png,right_arrow.png,right_arrow.png,right_arrow.png,right_arrow.png,right_arrow.png,0,2,2,2,,,,,,,,,,,,,,,,,35.1321217,None,36.1370871,None,36.1370871,None,36.1370871,None,36.1370871,None,36.1370871,None,36.1370871,None,36.1370871,None,k,1,0.7651314999999954,36.1370871,None,36.92130789999999,None,,,,,,,,,,,,,,,,,,,,,,,,,,,,,,,,,,,,,,,,21,001,2022_Oct_21_1940,Flanker,2021.2.0,241.1655046508843,
neutral left,0,a,neutral.png,neutral.png,neutral.png,left_arrow.png,neutral.png,neutral.png,neutral.png,0,3,3,4,,,,,,,,,,,,,,,,,38.42700819999999,None,39.436452900000006,None,39.436452900000006,None,39.436452900000006,None,39.436452900000006,None,39.436452900000006,None,39.436452900000006,None,39.436452900000006,None,a,1,0.6421937000000071,39.436452900000006,None,40.09128099999998,None,,,,,,,,,,,,,,,,,,,,,,,,,,,,,,,,,,,,,,,,21,001,2022_Oct_21_1940,Flanker,2021.2.0,241.1655046508843,
incongruent-right.jpg,0,k,left_arrow.png,left_arrow.png,left_arrow.png,right_arrow.png,left_arrow.png,left_arrow.png,left_arrow.png,0,4,4,3,,,,,,,,,,,,,,,,,41.59281809999999,None,42.60225359999998,None,42.60225359999998,None,42.60225359999998,None,42.60225359999998,None,42.60225359999998,None,42.60225359999998,None,42.60225359999998,None,k,1,1.004858299999995,42.60225359999998,None,43.61999079999998,None,,,,,,,,,,,,,,,,,,,,,,,,,,,,,,,,,,,,,,,,21,001,2022_Oct_21_1940,Flanker,2021.2.0,241.1655046508843,
incongruent-right.jpg,0,k,left_arrow.png,left_arrow.png,left_arrow.png,right_arrow.png,left_arrow.png,left_arrow.png,left_arrow.png,0,5,5,3,,,,,,,,,,,,,,,,,45.12175199999999,None,46.13124629999999,None,46.13124629999999,None,46.13124629999999,None,46.13124629999999,None,46.13124629999999,None,46.13124629999999,None,46.13124629999999,None,k,1,0.6843312000000026,46.13124629999999,None,46.8318304,None,,,,,,,,,,,,,,,,,,,,,,,,,,,,,,,,,,,,,,,,21,001,2022_Oct_21_1940,Flanker,2021.2.0,241.1655046508843,
neutral left,0,a,neutral.png,neutral.png,neutral.png,left_arrow.png,neutral.png,neutral.png,neutral.png,1,0,6,4,,,,,,,,,,,,,,,,,48.33357989999999,None,49.342752099999984,None,49.342752099999984,None,49.342752099999984,None,49.342752099999984,None,49.342752099999984,None,49.342752099999984,None,49.342752099999984,None,a,1,0.5212002000000098,49.342752099999984,None,49.876701,None,,,,,,,,,,,,,,,,,,,,,,,,,,,,,,,,,,,,,,,,21,001,2022_Oct_21_1940,Flanker,2021.2.0,241.1655046508843,
incongruent-left.jpg,0,a,right_arrow.png,right_arrow.png,right_arrow.png,left_arrow.png,right_arrow.png,right_arrow.png,right_arrow.png,1,1,7,1,,,,,,,,,,,,,,,,,51.37822799999998,None,52.3876612,None,52.3876612,None,52.3876612,None,52.3876612,None,52.3876612,None,52.3876612,None,52.3876612,None,a,1,0.6127324999999928,52.3876612,None,53.013305599999995,None,,,,,,,,,,,,,,,,,,,,,,,,,,,,,,,,,,,,,,,,21,001,2022_Oct_21_1940,Flanker,2021.2.0,241.1655046508843,
congruent-left.jpg,1,a,left_arrow.png,left_arrow.png,left_arrow.png,left_arrow.png,left_arrow.png,left_arrow.png,left_arrow.png,1,2,8,0,,,,,,,,,,,,,,,,,54.51490479999998,None,55.528679899999986,None,55.528679899999986,None,55.528679899999986,None,55.528679899999986,None,55.528679899999986,None,55.528679899999986,None,55.528679899999986,None,a,1,0.5921259999999791,55.528679899999986,None,56.13751189999999,None,,,,,,,,,,,,,,,,,,,,,,,,,,,,,,,,,,,,,,,,21,001,2022_Oct_21_1940,Flanker,2021.2.0,241.1655046508843,
incongruent-left.jpg,0,a,right_arrow.png,right_arrow.png,right_arrow.png,left_arrow.png,right_arrow.png,right_arrow.png,right_arrow.png,1,3,9,1,,,,,,,,,,,,,,,,,57.639274099999994,None,58.652779399999986,None,58.652779399999986,None,58.652779399999986,None,58.652779399999986,None,58.652779399999986,None,58.652779399999986,None,58.652779399999986,None,a,1,0.5964668999999958,58.652779399999986,None,59.26171479999999,None,,,,,,,,,,,,,,,,,,,,,,,,,,,,,,,,,,,,,,,,21,001,2022_Oct_21_1940,Flanker,2021.2.0,241.1655046508843,
congruent-left.jpg,1,a,left_arrow.png,left_arrow.png,left_arrow.png,left_arrow.png,left_arrow.png,left_arrow.png,left_arrow.png,1,4,10,0,,,,,,,,,,,,,,,,,60.76731379999998,None,61.77685489999999,None,61.77685489999999,None,61.77685489999999,None,61.77685489999999,None,61.77685489999999,None,61.77685489999999,None,61.77685489999999,None,a,1,0.4887728000000209,61.77685489999999,None,62.27746059999998,None,,,,,,,,,,,,,,,,,,,,,,,,,,,,,,,,,,,,,,,,21,001,2022_Oct_21_1940,Flanker,2021.2.0,241.1655046508843,
congruent-right.jpg,1,k,right_arrow.png,right_arrow.png,right_arrow.png,right_arrow.png,right_arrow.png,right_arrow.png,right_arrow.png,1,5,11,2,,,,,,,,,,,,,,,,,63.78300919999998,None,64.78838769999999,None,64.78838769999999,None,64.78838769999999,None,64.78838769999999,None,64.78838769999999,None,64.78838769999999,None,64.78838769999999,None,k,1,0.5016609999999844,64.78838769999999,None,65.3055913,None,,,,,,,,,,,,,,,,,,,,,,,,,,,,,,,,,,,,,,,,21,001,2022_Oct_21_1940,Flanker,2021.2.0,241.1655046508843,
incongruent-right.jpg,0,k,left_arrow.png,left_arrow.png,left_arrow.png,right_arrow.png,left_arrow.png,left_arrow.png,left_arrow.png,2,0,12,3,,,,,,,,,,,,,,,,,66.8072455,None,67.816587,None,67.816587,None,67.816587,None,67.816587,None,67.816587,None,67.816587,None,67.816587,None,k,1,0.5459610000000055,67.816587,None,68.37552299999999,None,,,,,,,,,,,,,,,,,,,,,,,,,,,,,,,,,,,,,,,,21,001,2022_Oct_21_1940,Flanker,2021.2.0,241.1655046508843,
incongruent-left.jpg,0,a,right_arrow.png,right_arrow.png,right_arrow.png,left_arrow.png,right_arrow.png,right_arrow.png,right_arrow.png,2,1,13,1,,,,,,,,,,,,,,,,,69.87717609999999,None,70.8905378,None,70.8905378,None,70.8905378,None,70.8905378,None,70.8905378,None,70.8905378,None,70.8905378,None,a,1,0.47231489999998644,70.8905378,None,71.37454259999998,None,,,,,,,,,,,,,,,,,,,,,,,,,,,,,,,,,,,,,,,,21,001,2022_Oct_21_1940,Flanker,2021.2.0,241.1655046508843,
neutral right,0,k,neutral.png,neutral.png,neutral.png,right_arrow.png,neutral.png,neutral.png,neutral.png,2,2,14,5,,,,,,,,,,,,,,,,,72.88034249999998,None,73.88551559999999,None,73.88551559999999,None,73.88551559999999,None,73.88551559999999,None,73.88551559999999,None,73.88551559999999,None,73.88551559999999,None,k,1,0.43772569999998723,73.88551559999999,None,74.3359533,None,,,,,,,,,,,,,,,,,,,,,,,,,,,,,,,,,,,,,,,,21,001,2022_Oct_21_1940,Flanker,2021.2.0,241.1655046508843,
congruent-left.jpg,1,a,left_arrow.png,left_arrow.png,left_arrow.png,left_arrow.png,left_arrow.png,left_arrow.png,left_arrow.png,2,3,15,0,,,,,,,,,,,,,,,,,75.83765920000002,None,76.85117379999997,None,76.85117379999997,None,76.85117379999997,None,76.85117379999997,None,76.85117379999997,None,76.85117379999997,None,76.85117379999997,None,a,1,0.39262130000003026,76.85117379999997,None,77.25993769999997,None,,,,,,,,,,,,,,,,,,,,,,,,,,,,,,,,,,,,,,,,21,001,2022_Oct_21_1940,Flanker,2021.2.0,241.1655046508843,
neutral right,0,k,neutral.png,neutral.png,neutral.png,right_arrow.png,neutral.png,neutral.png,neutral.png,2,4,16,5,,,,,,,,,,,,,,,,,78.76159029999997,None,79.77077759999997,None,79.77077759999997,None,79.77077759999997,None,79.77077759999997,None,79.77077759999997,None,79.77077759999997,None,79.77077759999997,None,k,1,0.39327090000000453,79.77077759999997,None,80.17983290000001,None,,,,,,,,,,,,,,,,,,,,,,,,,,,,,,,,,,,,,,,,21,001,2022_Oct_21_1940,Flanker,2021.2.0,241.1655046508843,
incongruent-left.jpg,0,a,right_arrow.png,right_arrow.png,right_arrow.png,left_arrow.png,right_arrow.png,right_arrow.png,right_arrow.png,2,5,17,1,,,,,,,,,,,,,,,,,81.68127620000001,None,82.69075839999999,None,82.69075839999999,None,82.69075839999999,None,82.69075839999999,None,82.69075839999999,None,82.69075839999999,None,82.69075839999999,None,a,1,0.4578207000000134,82.69075839999999,None,83.1660344,None,,,,,,,,,,,,,,,,,,,,,,,,,,,,,,,,,,,,,,,,21,001,2022_Oct_21_1940,Flanker,2021.2.0,241.1655046508843,
neutral left,0,a,neutral.png,neutral.png,neutral.png,left_arrow.png,neutral.png,neutral.png,neutral.png,3,0,18,4,,,,,,,,,,,,,,,,,84.67193850000001,None,85.68135259999997,None,85.68135259999997,None,85.68135259999997,None,85.68135259999997,None,85.68135259999997,None,85.68135259999997,None,85.68135259999997,None,a,1,0.49975920000002816,85.68135259999997,None,86.19860169999998,None,,,,,,,,,,,,,,,,,,,,,,,,,,,,,,,,,,,,,,,,21,001,2022_Oct_21_1940,Flanker,2021.2.0,241.1655046508843,
congruent-left.jpg,1,a,left_arrow.png,left_arrow.png,left_arrow.png,left_arrow.png,left_arrow.png,left_arrow.png,left_arrow.png,3,1,19,0,,,,,,,,,,,,,,,,,87.70415350000002,None,88.70962459999998,None,88.70962459999998,None,88.70962459999998,None,88.70962459999998,None,88.70962459999998,None,88.70962459999998,None,88.70962459999998,None,a,1,0.44760930000001053,88.70962459999998,None,89.16824450000001,None,,,,,,,,,,,,,,,,,,,,,,,,,,,,,,,,,,,,,,,,21,001,2022_Oct_21_1940,Flanker,2021.2.0,241.1655046508843,
neutral right,0,k,neutral.png,neutral.png,neutral.png,right_arrow.png,neutral.png,neutral.png,neutral.png,3,2,20,5,,,,,,,,,,,,,,,,,90.674125,None,91.68351989999996,None,91.68351989999996,None,91.68351989999996,None,91.68351989999996,None,91.68351989999996,None,91.68351989999996,None,91.68351989999996,None,k,1,0.3940972000000329,91.68351989999996,None,92.09230400000001,None,,,,,,,,,,,,,,,,,,,,,,,,,,,,,,,,,,,,,,,,21,001,2022_Oct_21_1940,Flanker,2021.2.0,241.1655046508843,
congruent-right.jpg,1,k,right_arrow.png,right_arrow.png,right_arrow.png,right_arrow.png,right_arrow.png,right_arrow.png,right_arrow.png,3,3,21,2,,,,,,,,,,,,,,,,,93.59807030000002,None,94.60330119999998,None,94.60330119999998,None,94.60330119999998,None,94.60330119999998,None,94.60330119999998,None,94.60330119999998,None,94.60330119999998,None,k,1,0.43476269999996475,94.60330119999998,None,95.05377169999997,None,,,,,,,,,,,,,,,,,,,,,,,,,,,,,,,,,,,,,,,,21,001,2022_Oct_21_1940,Flanker,2021.2.0,241.1655046508843,
neutral left,0,a,neutral.png,neutral.png,neutral.png,left_arrow.png,neutral.png,neutral.png,neutral.png,3,4,22,4,,,,,,,,,,,,,,,,,96.55521720000002,None,97.5690093,None,97.5690093,None,97.5690093,None,97.5690093,None,97.5690093,None,97.5690093,None,97.5690093,None,a,1,0.41341239999997015,97.5690093,None,97.99437589999997,None,,,,,,,,,,,,,,,,,,,,,,,,,,,,,,,,,,,,,,,,21,001,2022_Oct_21_1940,Flanker,2021.2.0,241.1655046508843,
congruent-right.jpg,1,k,right_arrow.png,right_arrow.png,right_arrow.png,right_arrow.png,right_arrow.png,right_arrow.png,right_arrow.png,3,5,23,2,,,,,,,,,,,,,,,,,99.50021859999998,None,100.50539449999997,None,100.50539449999997,None,100.50539449999997,None,100.50539449999997,None,100.50539449999997,None,100.50539449999997,None,100.50539449999997,None,k,1,0.42141670000000886,100.50539449999997,None,100.9393129,None,,,,,,,,,,,,,,,,,,,,,,,,,,,,,,,,,,,,,,,,21,001,2022_Oct_21_1940,Flanker,2021.2.0,241.1655046508843,
,,,,,,,,,,,,,,,,,,,,,,,,,,,,,,,,,,,,,,,,,,,,,,,,,,,,,102.4614709,None,104.44703609999999,None,space,3.4407136999999466,104.44703609999999,None,,,,,,,,,,,,,,,,,,,,,,,,,,,,,,,,21,001,2022_Oct_21_1940,Flanker,2021.2.0,241.1655046508843,
neutral right,0,k,neutral.png,neutral.png,neutral.png,right_arrow.png,neutral.png,neutral.png,neutral.png,,,,,0,0,0,5,,,,,,,,,,,,,107.90905700000002,None,,,,,,,,,,,,,,,,,,,,,,,,,,,,,,108.9100469,None,108.9100469,None,108.9100469,None,108.9100469,None,108.9100469,None,108.9100469,None,108.9100469,None,k,1,0.5139235000000326,108.9100469,None,,,,,,,,,,,,,21,001,2022_Oct_21_1940,Flanker,2021.2.0,241.1655046508843,
incongruent-left.jpg,0,a,right_arrow.png,right_arrow.png,right_arrow.png,left_arrow.png,right_arrow.png,right_arrow.png,right_arrow.png,,,,,0,1,1,1,,,,,,,,,,,,,109.43555909999998,None,,,,,,,,,,,,,,,,,,,,,,,,,,,,,,110.44927869999998,None,110.44927869999998,None,110.44927869999998,None,110.44927869999998,None,110.44927869999998,None,110.44927869999998,None,110.44927869999998,None,a,1,0.5108839000000103,110.44927869999998,None,,,,,,,,,,,,,21,001,2022_Oct_21_1940,Flanker,2021.2.0,241.1655046508843,
congruent-left.jpg,1,a,left_arrow.png,left_arrow.png,left_arrow.png,left_arrow.png,left_arrow.png,left_arrow.png,left_arrow.png,,,,,0,2,2,0,,,,,,,,,,,,,110.97465719999997,None,,,,,,,,,,,,,,,,,,,,,,,,,,,,,,111.98853439999999,None,111.98853439999999,None,111.98853439999999,None,111.98853439999999,None,111.98853439999999,None,111.98853439999999,None,111.98853439999999,None,a,1,0.49183770000001914,111.98853439999999,None,,,,,,,,,,,,,21,001,2022_Oct_21_1940,Flanker,2021.2.0,241.1655046508843,
neutral left,0,a,neutral.png,neutral.png,neutral.png,left_arrow.png,neutral.png,neutral.png,neutral.png,,,,,0,3,3,4,,,,,,,,,,,,,112.49722830000002,None,,,,,,,,,,,,,,,,,,,,,,,,,,,,,,113.5065032,None,113.5065032,None,113.5065032,None,113.5065032,None,113.5065032,None,113.5065032,None,113.5065032,None,a,1,0.4781102999999689,113.5065032,None,,,,,,,,,,,,,21,001,2022_Oct_21_1940,Flanker,2021.2.0,241.1655046508843,
neutral left,0,a,neutral.png,neutral.png,neutral.png,left_arrow.png,neutral.png,neutral.png,neutral.png,,,,,0,4,4,4,,,,,,,,,,,,,113.99869359999997,None,,,,,,,,,,,,,,,,,,,,,,,,,,,,,,115.00821239999999,None,115.00821239999999,None,115.00821239999999,None,115.00821239999999,None,115.00821239999999,None,115.00821239999999,None,115.00821239999999,None,a,1,0.6168540000000462,115.00821239999999,None,,,,,,,,,,,,,21,001,2022_Oct_21_1940,Flanker,2021.2.0,241.1655046508843,
congruent-left.jpg,1,a,left_arrow.png,left_arrow.png,left_arrow.png,left_arrow.png,left_arrow.png,left_arrow.png,left_arrow.png,,,,,0,5,5,0,,,,,,,,,,,,,115.64210070000001,None,,,,,,,,,,,,,,,,,,,,,,,,,,,,,,116.6599129,None,116.6599129,None,116.6599129,None,116.6599129,None,116.6599129,None,116.6599129,None,116.6599129,None,a,1,0.7731334999999717,116.6599129,None,,,,,,,,,,,,,21,001,2022_Oct_21_1940,Flanker,2021.2.0,241.1655046508843,
neutral right,0,k,neutral.png,neutral.png,neutral.png,right_arrow.png,neutral.png,neutral.png,neutral.png,,,,,1,0,6,5,,,,,,,,,,,,,117.45258710000002,None,,,,,,,,,,,,,,,,,,,,,,,,,,,,,,118.4659279,None,118.4659279,None,118.4659279,None,118.4659279,None,118.4659279,None,118.4659279,None,118.4659279,None,k,1,0.3835498000000257,118.4659279,None,,,,,,,,,,,,,21,001,2022_Oct_21_1940,Flanker,2021.2.0,241.1655046508843,
congruent-right.jpg,1,k,right_arrow.png,right_arrow.png,right_arrow.png,right_arrow.png,right_arrow.png,right_arrow.png,right_arrow.png,,,,,1,1,7,2,,,,,,,,,,,,,118.86635710000002,None,,,,,,,,,,,,,,,,,,,,,,,,,,,,,,119.87576589999998,None,119.87576589999998,None,119.87576589999998,None,119.87576589999998,None,119.87576589999998,None,119.87576589999998,None,119.87576589999998,None,k,1,0.44568709999998646,119.87576589999998,None,,,,,,,,,,,,,21,001,2022_Oct_21_1940,Flanker,2021.2.0,241.1655046508843,
neutral right,0,k,neutral.png,neutral.png,neutral.png,right_arrow.png,neutral.png,neutral.png,neutral.png,,,,,1,2,8,5,,,,,,,,,,,,,120.33456000000001,None,,,,,,,,,,,,,,,,,,,,,,,,,,,,,,121.3440008,None,121.3440008,None,121.3440008,None,121.3440008,None,121.3440008,None,121.3440008,None,121.3440008,None,k,1,0.47365899999999783,121.3440008,None,,,,,,,,,,,,,21,001,2022_Oct_21_1940,Flanker,2021.2.0,241.1655046508843,
incongruent-right.jpg,0,k,left_arrow.png,left_arrow.png,left_arrow.png,right_arrow.png,left_arrow.png,left_arrow.png,left_arrow.png,,,,,1,3,9,3,,,,,,,,,,,,,121.83642370000001,None,,,,,,,,,,,,,,,,,,,,,,,,,,,,,,122.84556829999997,None,122.84556829999997,None,122.84556829999997,None,122.84556829999997,None,122.84556829999997,None,122.84556829999997,None,122.84556829999997,None,k,1,0.5802494000000138,122.84556829999997,None,,,,,,,,,,,,,21,001,2022_Oct_21_1940,Flanker,2021.2.0,241.1655046508843,
congruent-left.jpg,1,a,left_arrow.png,left_arrow.png,left_arrow.png,left_arrow.png,left_arrow.png,left_arrow.png,left_arrow.png,,,,,1,4,10,0,,,,,,,,,,,,,123.43793289999996,None,,,,,,,,,,,,,,,,,,,,,,,,,,,,,,124.45154200000002,None,124.45154200000002,None,124.45154200000002,None,124.45154200000002,None,124.45154200000002,None,124.45154200000002,None,124.45154200000002,None,a,1,0.46252459999999473,124.45154200000002,None,,,,,,,,,,,,,21,001,2022_Oct_21_1940,Flanker,2021.2.0,241.1655046508843,
congruent-left.jpg,1,a,left_arrow.png,left_arrow.png,left_arrow.png,left_arrow.png,left_arrow.png,left_arrow.png,left_arrow.png,,,,,1,5,11,0,,,,,,,,,,,,,124.92706989999999,None,,,,,,,,,,,,,,,,,,,,,,,,,,,,,,125.94491,None,125.94491,None,125.94491,None,125.94491,None,125.94491,None,125.94491,None,125.94491,None,a,1,0.6575315000000046,125.94491,None,,,,,,,,,,,,,21,001,2022_Oct_21_1940,Flanker,2021.2.0,241.1655046508843,
incongruent-left.jpg,0,a,right_arrow.png,right_arrow.png,right_arrow.png,left_arrow.png,right_arrow.png,right_arrow.png,right_arrow.png,,,,,2,0,12,1,,,,,,,,,,,,,126.62062650000001,None,,,,,,,,,,,,,,,,,,,,,,,,,,,,,,127.63825199999997,None,127.63825199999997,None,127.63825199999997,None,127.63825199999997,None,127.63825199999997,None,127.63825199999997,None,127.63825199999997,None,a,1,0.5242134000000078,127.63825199999997,None,,,,,,,,,,,,,21,001,2022_Oct_21_1940,Flanker,2021.2.0,241.1655046508843,
congruent-left.jpg,1,a,left_arrow.png,left_arrow.png,left_arrow.png,left_arrow.png,left_arrow.png,left_arrow.png,left_arrow.png,,,,,2,1,13,0,,,,,,,,,,,,,128.180542,None,,,,,,,,,,,,,,,,,,,,,,,,,,,,,,129.18992659999998,None,129.18992659999998,None,129.18992659999998,None,129.18992659999998,None,129.18992659999998,None,129.18992659999998,None,129.18992659999998,None,a,1,0.46079450000002,129.18992659999998,None,,,,,,,,,,,,,21,001,2022_Oct_21_1940,Flanker,2021.2.0,241.1655046508843,
incongruent-right.jpg,0,k,left_arrow.png,left_arrow.png,left_arrow.png,right_arrow.png,left_arrow.png,left_arrow.png,left_arrow.png,,,,,2,2,14,3,,,,,,,,,,,,,129.6654929,None,,,,,,,,,,,,,,,,,,,,,,,,,,,,,,130.67480899999998,None,130.67480899999998,None,130.67480899999998,None,130.67480899999998,None,130.67480899999998,None,130.67480899999998,None,130.67480899999998,None,k,1,0.5042581000000155,130.67480899999998,None,,,,,,,,,,,,,21,001,2022_Oct_21_1940,Flanker,2021.2.0,241.1655046508843,
neutral left,0,a,neutral.png,neutral.png,neutral.png,left_arrow.png,neutral.png,neutral.png,neutral.png,,,,,2,3,15,4,,,,,,,,,,,,,131.1918839,None,,,,,,,,,,,,,,,,,,,,,,,,,,,,,,132.20142799999996,None,132.20142799999996,None,132.20142799999996,None,132.20142799999996,None,132.20142799999996,None,132.20142799999996,None,132.20142799999996,None,a,1,0.44192520000001423,132.20142799999996,None,,,,,,,,,,,,,21,001,2022_Oct_21_1940,Flanker,2021.2.0,241.1655046508843,
incongruent-left.jpg,0,a,right_arrow.png,right_arrow.png,right_arrow.png,left_arrow.png,right_arrow.png,right_arrow.png,right_arrow.png,,,,,2,4,16,1,,,,,,,,,,,,,132.6601275,None,,,,,,,,,,,,,,,,,,,,,,,,,,,,,,133.66967139999997,None,133.66967139999997,None,133.66967139999997,None,133.66967139999997,None,133.66967139999997,None,133.66967139999997,None,133.66967139999997,None,a,1,0.5256518999999571,133.66967139999997,None,,,,,,,,,,,,,21,001,2022_Oct_21_1940,Flanker,2021.2.0,241.1655046508843,
incongruent-right.jpg,0,k,left_arrow.png,left_arrow.png,left_arrow.png,right_arrow.png,left_arrow.png,left_arrow.png,left_arrow.png,,,,,2,5,17,3,,,,,,,,,,,,,134.21191,None,,,,,,,,,,,,,,,,,,,,,,,,,,,,,,135.22129969999997,None,135.22129969999997,None,135.22129969999997,None,135.22129969999997,None,135.22129969999997,None,135.22129969999997,None,135.22129969999997,None,k,1,0.44622190000001183,135.22129969999997,None,,,,,,,,,,,,,21,001,2022_Oct_21_1940,Flanker,2021.2.0,241.1655046508843,
incongruent-left.jpg,0,a,right_arrow.png,right_arrow.png,right_arrow.png,left_arrow.png,right_arrow.png,right_arrow.png,right_arrow.png,,,,,3,0,18,1,,,,,,,,,,,,,135.6801201,None,,,,,,,,,,,,,,,,,,,,,,,,,,,,,,136.69373339999999,None,136.69373339999999,None,136.69373339999999,None,136.69373339999999,None,136.69373339999999,None,136.69373339999999,None,136.69373339999999,None,a,1,0.48597360000002254,136.69373339999999,None,,,,,,,,,,,,,21,001,2022_Oct_21_1940,Flanker,2021.2.0,241.1655046508843,
congruent-right.jpg,1,k,right_arrow.png,right_arrow.png,right_arrow.png,right_arrow.png,right_arrow.png,right_arrow.png,right_arrow.png,,,,,3,1,19,2,,,,,,,,,,,,,137.1942838,None,,,,,,,,,,,,,,,,,,,,,,,,,,,,,,138.20785159999997,None,138.20785159999997,None,138.20785159999997,None,138.20785159999997,None,138.20785159999997,None,138.20785159999997,None,138.20785159999997,None,k,1,0.4202114000000279,138.20785159999997,None,,,,,,,,,,,,,21,001,2022_Oct_21_1940,Flanker,2021.2.0,241.1655046508843,
incongruent-left.jpg,0,a,right_arrow.png,right_arrow.png,right_arrow.png,left_arrow.png,right_arrow.png,right_arrow.png,right_arrow.png,,,,,3,2,20,1,,,,,,,,,,,,,138.6414898,None,,,,,,,,,,,,,,,,,,,,,,,,,,,,,,139.6509934,None,139.6509934,None,139.6509934,None,139.6509934,None,139.6509934,None,139.6509934,None,139.6509934,None,a,1,0.46513190000001714,139.6509934,None,,,,,,,,,,,,,21,001,2022_Oct_21_1940,Flanker,2021.2.0,241.1655046508843,
neutral right,0,k,neutral.png,neutral.png,neutral.png,right_arrow.png,neutral.png,neutral.png,neutral.png,,,,,3,3,21,5,,,,,,,,,,,,,140.13483250000002,None,,,,,,,,,,,,,,,,,,,,,,,,,,,,,,141.1442209,None,141.1442209,None,141.1442209,None,141.1442209,None,141.1442209,None,141.1442209,None,141.1442209,None,k,1,0.4122671000000082,141.1442209,None,,,,,,,,,,,,,21,001,2022_Oct_21_1940,Flanker,2021.2.0,241.1655046508843,
incongruent-right.jpg,0,k,left_arrow.png,left_arrow.png,left_arrow.png,right_arrow.png,left_arrow.png,left_arrow.png,left_arrow.png,,,,,3,4,22,3,,,,,,,,,,,,,141.56978979999997,None,,,,,,,,,,,,,,,,,,,,,,,,,,,,,,142.57909519999998,None,142.57909519999998,None,142.57909519999998,None,142.57909519999998,None,142.57909519999998,None,142.57909519999998,None,142.57909519999998,None,k,1,0.49739790000000994,142.57909519999998,None,,,,,,,,,,,,,21,001,2022_Oct_21_1940,Flanker,2021.2.0,241.1655046508843,
congruent-right.jpg,1,k,right_arrow.png,right_arrow.png,right_arrow.png,right_arrow.png,right_arrow.png,right_arrow.png,right_arrow.png,,,,,3,5,23,2,,,,,,,,,,,,,143.0879501,None,,,,,,,,,,,,,,,,,,,,,,,,,,,,,,144.10160759999997,None,144.10160759999997,None,144.10160759999997,None,144.10160759999997,None,144.10160759999997,None,144.10160759999997,None,144.10160759999997,None,k,1,0.44709410000001526,144.10160759999997,None,,,,,,,,,,,,,21,001,2022_Oct_21_1940,Flanker,2021.2.0,241.1655046508843,
congruent-right.jpg,1,k,right_arrow.png,right_arrow.png,right_arrow.png,right_arrow.png,right_arrow.png,right_arrow.png,right_arrow.png,,,,,4,0,24,2,,,,,,,,,,,,,144.5606444,None,,,,,,,,,,,,,,,,,,,,,,,,,,,,,,145.5739329,None,145.5739329,None,145.5739329,None,145.5739329,None,145.5739329,None,145.5739329,None,145.5739329,None,k,1,0.4549473000000148,145.5739329,None,,,,,,,,,,,,,21,001,2022_Oct_21_1940,Flanker,2021.2.0,241.1655046508843,
incongruent-left.jpg,0,a,right_arrow.png,right_arrow.png,right_arrow.png,left_arrow.png,right_arrow.png,right_arrow.png,right_arrow.png,,,,,4,1,25,1,,,,,,,,,,,,,146.04095999999998,None,,,,,,,,,,,,,,,,,,,,,,,,,,,,,,147.05033500000002,None,147.05033500000002,None,147.05033500000002,None,147.05033500000002,None,147.05033500000002,None,147.05033500000002,None,147.05033500000002,None,a,1,0.4987729999999715,147.05033500000002,None,,,,,,,,,,,,,21,001,2022_Oct_21_1940,Flanker,2021.2.0,241.1655046508843,
neutral right,0,k,neutral.png,neutral.png,neutral.png,right_arrow.png,neutral.png,neutral.png,neutral.png,,,,,4,2,26,5,,,,,,,,,,,,,147.5676927,None,,,,,,,,,,,,,,,,,,,,,,,,,,,,,,148.58113029999998,None,148.58113029999998,None,148.58113029999998,None,148.58113029999998,None,148.58113029999998,None,148.58113029999998,None,148.58113029999998,None,k,1,0.44048159999999825,148.58113029999998,None,,,,,,,,,,,,,21,001,2022_Oct_21_1940,Flanker,2021.2.0,241.1655046508843,
congruent-right.jpg,1,k,right_arrow.png,right_arrow.png,right_arrow.png,right_arrow.png,right_arrow.png,right_arrow.png,right_arrow.png,,,,,4,3,27,2,,,,,,,,,,,,,149.04016079999997,None,,,,,,,,,,,,,,,,,,,,,,,,,,,,,,150.05376159999997,None,150.05376159999997,None,150.05376159999997,None,150.05376159999997,None,150.05376159999997,None,150.05376159999997,None,150.05376159999997,None,k,1,0.432038499999976,150.05376159999997,None,,,,,,,,,,,,,21,001,2022_Oct_21_1940,Flanker,2021.2.0,241.1655046508843,
congruent-right.jpg,1,k,right_arrow.png,right_arrow.png,right_arrow.png,right_arrow.png,right_arrow.png,right_arrow.png,right_arrow.png,,,,,4,4,28,2,,,,,,,,,,,,,150.50414849999999,None,,,,,,,,,,,,,,,,,,,,,,,,,,,,,,151.51769589999998,None,151.51769589999998,None,151.51769589999998,None,151.51769589999998,None,151.51769589999998,None,151.51769589999998,None,151.51769589999998,None,k,1,0.44799180000001115,151.51769589999998,None,,,,,,,,,,,,,21,001,2022_Oct_21_1940,Flanker,2021.2.0,241.1655046508843,
neutral right,0,k,neutral.png,neutral.png,neutral.png,right_arrow.png,neutral.png,neutral.png,neutral.png,,,,,4,5,29,5,,,,,,,,,,,,,151.98473280000002,None,,,,,,,,,,,,,,,,,,,,,,,,,,,,,,152.99429979999996,None,152.99429979999996,None,152.99429979999996,None,152.99429979999996,None,152.99429979999996,None,152.99429979999996,None,152.99429979999996,None,k,1,0.43560569999999643,152.99429979999996,None,,,,,,,,,,,,,21,001,2022_Oct_21_1940,Flanker,2021.2.0,241.1655046508843,
incongruent-right.jpg,0,k,left_arrow.png,left_arrow.png,left_arrow.png,right_arrow.png,left_arrow.png,left_arrow.png,left_arrow.png,,,,,5,0,30,3,,,,,,,,,,,,,153.4447495,None,,,,,,,,,,,,,,,,,,,,,,,,,,,,,,154.4583273,None,154.4583273,None,154.4583273,None,154.4583273,None,154.4583273,None,154.4583273,None,154.4583273,None,k,1,0.5237481000000344,154.4583273,None,,,,,,,,,,,,,21,001,2022_Oct_21_1940,Flanker,2021.2.0,241.1655046508843,
congruent-right.jpg,1,k,right_arrow.png,right_arrow.png,right_arrow.png,right_arrow.png,right_arrow.png,right_arrow.png,right_arrow.png,,,,,5,1,31,2,,,,,,,,,,,,,155.0004558,None,,,,,,,,,,,,,,,,,,,,,,,,,,,,,,156.01000019999998,None,156.01000019999998,None,156.01000019999998,None,156.01000019999998,None,156.01000019999998,None,156.01000019999998,None,156.01000019999998,None,k,1,0.42030190000002676,156.01000019999998,None,,,,,,,,,,,,,21,001,2022_Oct_21_1940,Flanker,2021.2.0,241.1655046508843,
incongruent-right.jpg,0,k,left_arrow.png,left_arrow.png,left_arrow.png,right_arrow.png,left_arrow.png,left_arrow.png,left_arrow.png,,,,,5,2,32,3,,,,,,,,,,,,,156.4436412,None,,,,,,,,,,,,,,,,,,,,,,,,,,,,,,157.4531874,None,157.4531874,None,157.4531874,None,157.4531874,None,157.4531874,None,157.4531874,None,157.4531874,None,k,1,0.48129829999999174,157.4531874,None,,,,,,,,,,,,,21,001,2022_Oct_21_1940,Flanker,2021.2.0,241.1655046508843,
neutral left,0,a,neutral.png,neutral.png,neutral.png,left_arrow.png,neutral.png,neutral.png,neutral.png,,,,,5,3,33,4,,,,,,,,,,,,,157.9538088,None,,,,,,,,,,,,,,,,,,,,,,,,,,,,,,158.96337219999998,None,158.96337219999998,None,158.96337219999998,None,158.96337219999998,None,158.96337219999998,None,158.96337219999998,None,158.96337219999998,None,a,1,0.48335009999999556,158.96337219999998,None,,,,,,,,,,,,,21,001,2022_Oct_21_1940,Flanker,2021.2.0,241.1655046508843,
incongruent-right.jpg,0,k,left_arrow.png,left_arrow.png,left_arrow.png,right_arrow.png,left_arrow.png,left_arrow.png,left_arrow.png,,,,,5,4,34,3,,,,,,,,,,,,,159.463529,None,,,,,,,,,,,,,,,,,,,,,,,,,,,,,,160.4728998,None,160.4728998,None,160.4728998,None,160.4728998,None,160.4728998,None,160.4728998,None,160.4728998,None,k,1,0.5100231000000122,160.4728998,None,,,,,,,,,,,,,21,001,2022_Oct_21_1940,Flanker,2021.2.0,241.1655046508843,
congruent-left.jpg,1,a,left_arrow.png,left_arrow.png,left_arrow.png,left_arrow.png,left_arrow.png,left_arrow.png,left_arrow.png,,,,,5,5,35,0,,,,,,,,,,,,,160.9984776,None,,,,,,,,,,,,,,,,,,,,,,,,,,,,,,162.00802240000002,None,162.00802240000002,None,162.00802240000002,None,162.00802240000002,None,162.00802240000002,None,162.00802240000002,None,162.00802240000002,None,a,1,0.43907459999996945,162.00802240000002,None,,,,,,,,,,,,,21,001,2022_Oct_21_1940,Flanker,2021.2.0,241.1655046508843,
neutral right,0,k,neutral.png,neutral.png,neutral.png,right_arrow.png,neutral.png,neutral.png,neutral.png,,,,,6,0,36,5,,,,,,,,,,,,,162.4666947,None,,,,,,,,,,,,,,,,,,,,,,,,,,,,,,163.48039699999998,None,163.48039699999998,None,163.48039699999998,None,163.48039699999998,None,163.48039699999998,None,163.48039699999998,None,163.48039699999998,None,k,1,0.41488110000000233,163.48039699999998,None,,,,,,,,,,,,,21,001,2022_Oct_21_1940,Flanker,2021.2.0,241.1655046508843,
incongruent-right.jpg,0,k,left_arrow.png,left_arrow.png,left_arrow.png,right_arrow.png,left_arrow.png,left_arrow.png,left_arrow.png,,,,,6,1,37,3,,,,,,,,,,,,,163.914068,None,,,,,,,,,,,,,,,,,,,,,,,,,,,,,,164.92776229999998,None,164.92776229999998,None,164.92776229999998,None,164.92776229999998,None,164.92776229999998,None,164.92776229999998,None,164.92776229999998,None,k,1,0.5037741999999525,164.92776229999998,None,,,,,,,,,,,,,21,001,2022_Oct_21_1940,Flanker,2021.2.0,241.1655046508843,
neutral left,0,a,neutral.png,neutral.png,neutral.png,left_arrow.png,neutral.png,neutral.png,neutral.png,,,,,6,2,38,4,,,,,,,,,,,,,165.44485170000002,None,,,,,,,,,,,,,,,,,,,,,,,,,,,,,,166.45422150000002,None,166.45422150000002,None,166.45422150000002,None,166.45422150000002,None,166.45422150000002,None,166.45422150000002,None,166.45422150000002,None,a,1,0.44191030000001774,166.45422150000002,None,,,,,,,,,,,,,21,001,2022_Oct_21_1940,Flanker,2021.2.0,241.1655046508843,
incongruent-left.jpg,0,a,right_arrow.png,right_arrow.png,right_arrow.png,left_arrow.png,right_arrow.png,right_arrow.png,right_arrow.png,,,,,6,3,39,1,,,,,,,,,,,,,166.91325869999997,None,,,,,,,,,,,,,,,,,,,,,,,,,,,,,,167.92676690000002,None,167.92676690000002,None,167.92676690000002,None,167.92676690000002,None,167.92676690000002,None,167.92676690000002,None,167.92676690000002,None,a,1,0.4971386999999936,167.92676690000002,None,,,,,,,,,,,,,21,001,2022_Oct_21_1940,Flanker,2021.2.0,241.1655046508843,
incongruent-left.jpg,0,a,right_arrow.png,right_arrow.png,right_arrow.png,left_arrow.png,right_arrow.png,right_arrow.png,right_arrow.png,,,,,6,4,40,1,,,,,,,,,,,,,168.43578509999998,None,,,,,,,,,,,,,,,,,,,,,,,,,,,,,,169.4450471,None,169.4450471,None,169.4450471,None,169.4450471,None,169.4450471,None,169.4450471,None,169.4450471,None,a,1,0.5150682000000302,169.4450471,None,,,,,,,,,,,,,21,001,2022_Oct_21_1940,Flanker,2021.2.0,241.1655046508843,
congruent-right.jpg,1,k,right_arrow.png,right_arrow.png,right_arrow.png,right_arrow.png,right_arrow.png,right_arrow.png,right_arrow.png,,,,,6,5,41,2,,,,,,,,,,,,,169.9790463,None,,,,,,,,,,,,,,,,,,,,,,,,,,,,,,170.9925119,None,170.9925119,None,170.9925119,None,170.9925119,None,170.9925119,None,170.9925119,None,170.9925119,None,k,1,0.44781949999998005,170.9925119,None,,,,,,,,,,,,,21,001,2022_Oct_21_1940,Flanker,2021.2.0,241.1655046508843,
neutral right,0,k,neutral.png,neutral.png,neutral.png,right_arrow.png,neutral.png,neutral.png,neutral.png,,,,,7,0,42,5,,,,,,,,,,,,,171.45967409999997,None,,,,,,,,,,,,,,,,,,,,,,,,,,,,,,172.4690675,None,172.4690675,None,172.4690675,None,172.4690675,None,172.4690675,None,172.4690675,None,172.4690675,None,k,1,0.41172799999998233,172.4690675,None,,,,,,,,,,,,,21,001,2022_Oct_21_1940,Flanker,2021.2.0,241.1655046508843,
neutral left,0,a,neutral.png,neutral.png,neutral.png,left_arrow.png,neutral.png,neutral.png,neutral.png,,,,,7,1,43,4,,,,,,,,,,,,,172.8946075,None,,,,,,,,,,,,,,,,,,,,,,,,,,,,,,173.9039398,None,173.9039398,None,173.9039398,None,173.9039398,None,173.9039398,None,173.9039398,None,173.9039398,None,a,1,0.42483530000004066,173.9039398,None,,,,,,,,,,,,,21,001,2022_Oct_21_1940,Flanker,2021.2.0,241.1655046508843,
neutral left,0,a,neutral.png,neutral.png,neutral.png,left_arrow.png,neutral.png,neutral.png,neutral.png,,,,,7,2,44,4,,,,,,,,,,,,,174.34604359999997,None,,,,,,,,,,,,,,,,,,,,,,,,,,,,,,175.3594958,None,175.3594958,None,175.3594958,None,175.3594958,None,175.3594958,None,175.3594958,None,175.3594958,None,a,1,0.41754910000003065,175.3594958,None,,,,,,,,,,,,,21,001,2022_Oct_21_1940,Flanker,2021.2.0,241.1655046508843,
congruent-left.jpg,1,a,left_arrow.png,left_arrow.png,left_arrow.png,left_arrow.png,left_arrow.png,left_arrow.png,left_arrow.png,,,,,7,3,45,0,,,,,,,,,,,,,175.79351379999997,None,,,,,,,,,,,,,,,,,,,,,,,,,,,,,,176.8070057,None,176.8070057,None,176.8070057,None,176.8070057,None,176.8070057,None,176.8070057,None,176.8070057,None,a,1,0.42610400000000936,176.8070057,None,,,,,,,,,,,,,21,001,2022_Oct_21_1940,Flanker,2021.2.0,241.1655046508843,
congruent-left.jpg,1,a,left_arrow.png,left_arrow.png,left_arrow.png,left_arrow.png,left_arrow.png,left_arrow.png,left_arrow.png,,,,,7,4,46,0,,,,,,,,,,,,,177.2491185,None,,,,,,,,,,,,,,,,,,,,,,,,,,,,,,178.2627753,None,178.2627753,None,178.2627753,None,178.2627753,None,178.2627753,None,178.2627753,None,178.2627753,None,a,1,0.46654329999995525,178.2627753,None,,,,,,,,,,,,,21,001,2022_Oct_21_1940,Flanker,2021.2.0,241.1655046508843,
neutral left,0,a,neutral.png,neutral.png,neutral.png,left_arrow.png,neutral.png,neutral.png,neutral.png,,,,,7,5,47,4,,,,,,,,,,,,,178.7464519,None,,,,,,,,,,,,,,,,,,,,,,,,,,,,,,179.7559438,None,179.7559438,None,179.7559438,None,179.7559438,None,179.7559438,None,179.7559438,None,179.7559438,None,a,1,0.46154080000002295,179.7559438,None,,,,,,,,,,,,,21,001,2022_Oct_21_1940,Flanker,2021.2.0,241.1655046508843,
,,,,,,,,,,,,,,,,,,,,,,,,,,,,,,,,,,,,,,,,,,,,,,,,,,,,,,,,,,,,,,,,,,,,,,,,,,,,,,,,180.24382730000002,None,space,5.454708900000014,180.24382730000002,None,,,,,,,21,001,2022_Oct_21_1940,Flanker,2021.2.0,241.1655046508843,
congruent-right.jpg,1,k,right_arrow.png,right_arrow.png,right_arrow.png,right_arrow.png,right_arrow.png,right_arrow.png,right_arrow.png,,,,,,,,,0,0,0,2,,,,,,,,,185.7246505,None,,,,,,,,,,,,,,,,,,,,,,,,,,,,,,186.73011730000002,None,186.73011730000002,None,186.73011730000002,None,186.73011730000002,None,186.73011730000002,None,186.73011730000002,None,186.73011730000002,None,k,1,0.7203413999999952,186.73011730000002,None,,,,,,,,,,,,,21,001,2022_Oct_21_1940,Flanker,2021.2.0,241.1655046508843,
congruent-left.jpg,1,a,left_arrow.png,left_arrow.png,left_arrow.png,left_arrow.png,left_arrow.png,left_arrow.png,left_arrow.png,,,,,,,,,0,1,1,0,,,,,,,,,187.46404259999997,None,,,,,,,,,,,,,,,,,,,,,,,,,,,,,,188.477644,None,188.477644,None,188.477644,None,188.477644,None,188.477644,None,188.477644,None,188.477644,None,a,1,0.420985700000017,188.477644,None,,,,,,,,,,,,,21,001,2022_Oct_21_1940,Flanker,2021.2.0,241.1655046508843,
congruent-right.jpg,1,k,right_arrow.png,right_arrow.png,right_arrow.png,right_arrow.png,right_arrow.png,right_arrow.png,right_arrow.png,,,,,,,,,0,2,2,2,,,,,,,,,188.9114267,None,,,,,,,,,,,,,,,,,,,,,,,,,,,,,,189.92072459999997,None,189.92072459999997,None,189.92072459999997,None,189.92072459999997,None,189.92072459999997,None,189.92072459999997,None,189.92072459999997,None,k,1,0.4502394000000436,189.92072459999997,None,,,,,,,,,,,,,21,001,2022_Oct_21_1940,Flanker,2021.2.0,241.1655046508843,
incongruent-left.jpg,0,a,right_arrow.png,right_arrow.png,right_arrow.png,left_arrow.png,right_arrow.png,right_arrow.png,right_arrow.png,,,,,,,,,0,3,3,1,,,,,,,,,190.38793320000002,None,,,,,,,,,,,,,,,,,,,,,,,,,,,,,,191.4016992,None,191.4016992,None,191.4016992,None,191.4016992,None,191.4016992,None,191.4016992,None,191.4016992,None,a,1,0.42550720000002684,191.4016992,None,,,,,,,,,,,,,21,001,2022_Oct_21_1940,Flanker,2021.2.0,241.1655046508843,
congruent-left.jpg,1,a,left_arrow.png,left_arrow.png,left_arrow.png,left_arrow.png,left_arrow.png,left_arrow.png,left_arrow.png,,,,,,,,,0,4,4,0,,,,,,,,,191.8439856,None,,,,,,,,,,,,,,,,,,,,,,,,,,,,,,192.853156,None,192.853156,None,192.853156,None,192.853156,None,192.853156,None,192.853156,None,192.853156,None,a,1,0.4380747000000156,192.853156,None,,,,,,,,,,,,,21,001,2022_Oct_21_1940,Flanker,2021.2.0,241.1655046508843,
neutral left,0,a,neutral.png,neutral.png,neutral.png,left_arrow.png,neutral.png,neutral.png,neutral.png,,,,,,,,,0,5,5,4,,,,,,,,,193.30364509999998,None,,,,,,,,,,,,,,,,,,,,,,,,,,,,,,194.31291269999997,None,194.31291269999997,None,194.31291269999997,None,194.31291269999997,None,194.31291269999997,None,194.31291269999997,None,194.31291269999997,None,a,1,0.4747195999999576,194.31291269999997,None,,,,,,,,,,,,,21,001,2022_Oct_21_1940,Flanker,2021.2.0,241.1655046508843,
neutral right,0,k,neutral.png,neutral.png,neutral.png,right_arrow.png,neutral.png,neutral.png,neutral.png,,,,,,,,,1,0,6,5,,,,,,,,,194.80531860000002,None,,,,,,,,,,,,,,,,,,,,,,,,,,,,,,195.81456880000002,None,195.81456880000002,None,195.81456880000002,None,195.81456880000002,None,195.81456880000002,None,195.81456880000002,None,195.81456880000002,None,k,1,0.42106809999995676,195.81456880000002,None,,,,,,,,,,,,,21,001,2022_Oct_21_1940,Flanker,2021.2.0,241.1655046508843,
congruent-right.jpg,1,k,right_arrow.png,right_arrow.png,right_arrow.png,right_arrow.png,right_arrow.png,right_arrow.png,right_arrow.png,,,,,,,,,1,1,7,2,,,,,,,,,196.24826710000002,None,,,,,,,,,,,,,,,,,,,,,,,,,,,,,,197.2660287,None,197.2660287,None,197.2660287,None,197.2660287,None,197.2660287,None,197.2660287,None,197.2660287,None,k,1,0.44179959999996754,197.2660287,None,,,,,,,,,,,,,21,001,2022_Oct_21_1940,Flanker,2021.2.0,241.1655046508843,
congruent-left.jpg,1,a,left_arrow.png,left_arrow.png,left_arrow.png,left_arrow.png,left_arrow.png,left_arrow.png,left_arrow.png,,,,,,,,,1,2,8,0,,,,,,,,,197.72482329999997,None,,,,,,,,,,,,,,,,,,,,,,,,,,,,,,198.7343886,None,198.7343886,None,198.7343886,None,198.7343886,None,198.7343886,None,198.7343886,None,198.7343886,None,a,1,0.4536846999999966,198.7343886,None,,,,,,,,,,,,,21,001,2022_Oct_21_1940,Flanker,2021.2.0,241.1655046508843,
incongruent-left.jpg,0,a,right_arrow.png,right_arrow.png,right_arrow.png,left_arrow.png,right_arrow.png,right_arrow.png,right_arrow.png,,,,,,,,,1,3,9,1,,,,,,,,,199.20177669999998,None,,,,,,,,,,,,,,,,,,,,,,,,,,,,,,200.21513720000002,None,200.21513720000002,None,200.21513720000002,None,200.21513720000002,None,200.21513720000002,None,200.21513720000002,None,200.21513720000002,None,a,1,0.509131200000013,200.21513720000002,None,,,,,,,,,,,,,21,001,2022_Oct_21_1940,Flanker,2021.2.0,241.1655046508843,
congruent-right.jpg,1,k,right_arrow.png,right_arrow.png,right_arrow.png,right_arrow.png,right_arrow.png,right_arrow.png,right_arrow.png,,,,,,,,,1,4,10,2,,,,,,,,,200.7405476,None,,,,,,,,,,,,,,,,,,,,,,,,,,,,,,201.7499241,None,201.7499241,None,201.7499241,None,201.7499241,None,201.7499241,None,201.7499241,None,201.7499241,None,k,1,0.4145085000000108,201.7499241,None,,,,,,,,,,,,,21,001,2022_Oct_21_1940,Flanker,2021.2.0,241.1655046508843,
incongruent-right.jpg,0,k,left_arrow.png,left_arrow.png,left_arrow.png,right_arrow.png,left_arrow.png,left_arrow.png,left_arrow.png,,,,,,,,,1,5,11,3,,,,,,,,,202.1837552,None,,,,,,,,,,,,,,,,,,,,,,,,,,,,,,203.1973752,None,203.1973752,None,203.1973752,None,203.1973752,None,203.1973752,None,203.1973752,None,203.1973752,None,k,1,0.5352596000000176,203.1973752,None,,,,,,,,,,,,,21,001,2022_Oct_21_1940,Flanker,2021.2.0,241.1655046508843,
incongruent-right.jpg,0,k,left_arrow.png,left_arrow.png,left_arrow.png,right_arrow.png,left_arrow.png,left_arrow.png,left_arrow.png,,,,,,,,,2,0,12,3,,,,,,,,,203.74818899999997,None,,,,,,,,,,,,,,,,,,,,,,,,,,,,,,204.76577399999996,None,204.76577399999996,None,204.76577399999996,None,204.76577399999996,None,204.76577399999996,None,204.76577399999996,None,204.76577399999996,None,k,1,0.5190636000000382,204.76577399999996,None,,,,,,,,,,,,,21,001,2022_Oct_21_1940,Flanker,2021.2.0,241.1655046508843,
neutral left,0,a,neutral.png,neutral.png,neutral.png,left_arrow.png,neutral.png,neutral.png,neutral.png,,,,,,,,,2,1,13,4,,,,,,,,,205.29951389999997,None,,,,,,,,,,,,,,,,,,,,,,,,,,,,,,206.3131082,None,206.3131082,None,206.3131082,None,206.3131082,None,206.3131082,None,206.3131082,None,206.3131082,None,a,1,0.42795210000002726,206.3131082,None,,,,,,,,,,,,,21,001,2022_Oct_21_1940,Flanker,2021.2.0,241.1655046508843,
neutral right,0,k,neutral.png,neutral.png,neutral.png,right_arrow.png,neutral.png,neutral.png,neutral.png,,,,,,,,,2,2,14,5,,,,,,,,,206.7552313,None,,,,,,,,,,,,,,,,,,,,,,,,,,,,,,207.7647928,None,207.7647928,None,207.7647928,None,207.7647928,None,207.7647928,None,207.7647928,None,207.7647928,None,k,1,0.40047320000002173,207.7647928,None,,,,,,,,,,,,,21,001,2022_Oct_21_1940,Flanker,2021.2.0,241.1655046508843,
neutral left,0,a,neutral.png,neutral.png,neutral.png,left_arrow.png,neutral.png,neutral.png,neutral.png,,,,,,,,,2,3,15,4,,,,,,,,,208.18189689999997,None,,,,,,,,,,,,,,,,,,,,,,,,,,,,,,209.1912936,None,209.1912936,None,209.1912936,None,209.1912936,None,209.1912936,None,209.1912936,None,209.1912936,None,a,1,0.4221507000000315,209.1912936,None,,,,,,,,,,,,,21,001,2022_Oct_21_1940,Flanker,2021.2.0,241.1655046508843,
congruent-right.jpg,1,k,right_arrow.png,right_arrow.png,right_arrow.png,right_arrow.png,right_arrow.png,right_arrow.png,right_arrow.png,,,,,,,,,2,4,16,2,,,,,,,,,209.6249588,None,,,,,,,,,,,,,,,,,,,,,,,,,,,,,,210.6344921,None,210.6344921,None,210.6344921,None,210.6344921,None,210.6344921,None,210.6344921,None,210.6344921,None,k,1,0.5471588999999994,210.6344921,None,,,,,,,,,,,,,21,001,2022_Oct_21_1940,Flanker,2021.2.0,241.1655046508843,
incongruent-left.jpg,0,a,right_arrow.png,right_arrow.png,right_arrow.png,left_arrow.png,right_arrow.png,right_arrow.png,right_arrow.png,,,,,,,,,2,5,17,1,,,,,,,,,211.19327549999997,None,,,,,,,,,,,,,,,,,,,,,,,,,,,,,,212.2028093,None,212.2028093,None,212.2028093,None,212.2028093,None,212.2028093,None,212.2028093,None,212.2028093,None,a,1,0.48304450000000543,212.2028093,None,,,,,,,,,,,,,21,001,2022_Oct_21_1940,Flanker,2021.2.0,241.1655046508843,
neutral right,0,k,neutral.png,neutral.png,neutral.png,right_arrow.png,neutral.png,neutral.png,neutral.png,,,,,,,,,3,0,18,5,,,,,,,,,212.703213,None,,,,,,,,,,,,,,,,,,,,,,,,,,,,,,213.7126675,None,213.7126675,None,213.7126675,None,213.7126675,None,213.7126675,None,213.7126675,None,213.7126675,None,k,1,0.39735760000002074,213.7126675,None,,,,,,,,,,,,,21,001,2022_Oct_21_1940,Flanker,2021.2.0,241.1655046508843,
incongruent-right.jpg,0,k,left_arrow.png,left_arrow.png,left_arrow.png,right_arrow.png,left_arrow.png,left_arrow.png,left_arrow.png,,,,,,,,,3,1,19,3,,,,,,,,,214.1213806,None,,,,,,,,,,,,,,,,,,,,,,,,,,,,,,215.130851,None,215.130851,None,215.130851,None,215.130851,None,215.130851,None,215.130851,None,215.130851,None,k,1,0.5074331999999799,215.130851,None,,,,,,,,,,,,,21,001,2022_Oct_21_1940,Flanker,2021.2.0,241.1655046508843,
neutral left,0,a,neutral.png,neutral.png,neutral.png,left_arrow.png,neutral.png,neutral.png,neutral.png,,,,,,,,,3,2,20,4,,,,,,,,,215.65635179999998,None,,,,,,,,,,,,,,,,,,,,,,,,,,,,,,216.66571899999997,None,216.66571899999997,None,216.66571899999997,None,216.66571899999997,None,216.66571899999997,None,216.66571899999997,None,216.66571899999997,None,a,1,0.45273840000004384,216.66571899999997,None,,,,,,,,,,,,,21,001,2022_Oct_21_1940,Flanker,2021.2.0,241.1655046508843,
congruent-left.jpg,1,a,left_arrow.png,left_arrow.png,left_arrow.png,left_arrow.png,left_arrow.png,left_arrow.png,left_arrow.png,,,,,,,,,3,3,21,0,,,,,,,,,217.13287889999998,None,,,,,,,,,,,,,,,,,,,,,,,,,,,,,,218.15060319999998,None,218.15060319999998,None,218.15060319999998,None,218.15060319999998,None,218.15060319999998,None,218.15060319999998,None,218.15060319999998,None,a,1,0.4640413000000194,218.15060319999998,None,,,,,,,,,,,,,21,001,2022_Oct_21_1940,Flanker,2021.2.0,241.1655046508843,
incongruent-left.jpg,0,a,right_arrow.png,right_arrow.png,right_arrow.png,left_arrow.png,right_arrow.png,right_arrow.png,right_arrow.png,,,,,,,,,3,4,22,1,,,,,,,,,218.6261457,None,,,,,,,,,,,,,,,,,,,,,,,,,,,,,,219.63531419999998,None,219.63531419999998,None,219.63531419999998,None,219.63531419999998,None,219.63531419999998,None,219.63531419999998,None,219.63531419999998,None,a,1,0.5235825000000318,219.63531419999998,None,,,,,,,,,,,,,21,001,2022_Oct_21_1940,Flanker,2021.2.0,241.1655046508843,
congruent-left.jpg,1,a,left_arrow.png,left_arrow.png,left_arrow.png,left_arrow.png,left_arrow.png,left_arrow.png,left_arrow.png,,,,,,,,,3,5,23,0,,,,,,,,,220.1778655,None,,,,,,,,,,,,,,,,,,,,,,,,,,,,,,221.18310780000002,None,221.18310780000002,None,221.18310780000002,None,221.18310780000002,None,221.18310780000002,None,221.18310780000002,None,221.18310780000002,None,a,1,0.4559510000000273,221.18310780000002,None,,,,,,,,,,,,,21,001,2022_Oct_21_1940,Flanker,2021.2.0,241.1655046508843,
neutral left,0,a,neutral.png,neutral.png,neutral.png,left_arrow.png,neutral.png,neutral.png,neutral.png,,,,,,,,,4,0,24,4,,,,,,,,,221.6501808,None,,,,,,,,,,,,,,,,,,,,,,,,,,,,,,222.663722,None,222.663722,None,222.663722,None,222.663722,None,222.663722,None,222.663722,None,222.663722,None,a,1,0.43954370000000154,222.663722,None,,,,,,,,,,,,,21,001,2022_Oct_21_1940,Flanker,2021.2.0,241.1655046508843,
incongruent-left.jpg,0,a,right_arrow.png,right_arrow.png,right_arrow.png,left_arrow.png,right_arrow.png,right_arrow.png,right_arrow.png,,,,,,,,,4,1,25,1,,,,,,,,,223.1141991,None,,,,,,,,,,,,,,,,,,,,,,,,,,,,,,224.1319987,None,224.1319987,None,224.1319987,None,224.1319987,None,224.1319987,None,224.1319987,None,224.1319987,None,a,1,0.5554667999999765,224.1319987,None,,,,,,,,,,,,,21,001,2022_Oct_21_1940,Flanker,2021.2.0,241.1655046508843,
incongruent-right.jpg,0,k,left_arrow.png,left_arrow.png,left_arrow.png,right_arrow.png,left_arrow.png,left_arrow.png,left_arrow.png,,,,,,,,,4,2,26,3,,,,,,,,,224.699255,None,,,,,,,,,,,,,,,,,,,,,,,,,,,,,,225.70879730000001,None,225.70879730000001,None,225.70879730000001,None,225.70879730000001,None,225.70879730000001,None,225.70879730000001,None,225.70879730000001,None,k,1,0.4668807999999558,225.70879730000001,None,,,,,,,,,,,,,21,001,2022_Oct_21_1940,Flanker,2021.2.0,241.1655046508843,
congruent-right.jpg,1,k,right_arrow.png,right_arrow.png,right_arrow.png,right_arrow.png,right_arrow.png,right_arrow.png,right_arrow.png,,,,,,,,,4,3,27,2,,,,,,,,,226.19279009999997,None,,,,,,,,,,,,,,,,,,,,,,,,,,,,,,227.2060485,None,227.2060485,None,227.2060485,None,227.2060485,None,227.2060485,None,227.2060485,None,227.2060485,None,k,1,0.5378159999999639,227.2060485,None,,,,,,,,,,,,,21,001,2022_Oct_21_1940,Flanker,2021.2.0,241.1655046508843,
neutral right,0,k,neutral.png,neutral.png,neutral.png,right_arrow.png,neutral.png,neutral.png,neutral.png,,,,,,,,,4,4,28,5,,,,,,,,,227.7566243,None,,,,,,,,,,,,,,,,,,,,,,,,,,,,,,228.76635629999998,None,228.76635629999998,None,228.76635629999998,None,228.76635629999998,None,228.76635629999998,None,228.76635629999998,None,228.76635629999998,None,k,1,0.4897117000000435,228.76635629999998,None,,,,,,,,,,,,,21,001,2022_Oct_21_1940,Flanker,2021.2.0,241.1655046508843,
neutral left,0,a,neutral.png,neutral.png,neutral.png,left_arrow.png,neutral.png,neutral.png,neutral.png,,,,,,,,,4,5,29,4,,,,,,,,,229.27489199999997,None,,,,,,,,,,,,,,,,,,,,,,,,,,,,,,230.28015399999998,None,230.28015399999998,None,230.28015399999998,None,230.28015399999998,None,230.28015399999998,None,230.28015399999998,None,230.28015399999998,None,a,1,0.4641014000000041,230.28015399999998,None,,,,,,,,,,,,,21,001,2022_Oct_21_1940,Flanker,2021.2.0,241.1655046508843,
incongruent-right.jpg,0,k,left_arrow.png,left_arrow.png,left_arrow.png,right_arrow.png,left_arrow.png,left_arrow.png,left_arrow.png,,,,,,,,,5,0,30,3,,,,,,,,,230.7556568,None,,,,,,,,,,,,,,,,,,,,,,,,,,,,,,231.7650271,None,231.7650271,None,231.7650271,None,231.7650271,None,231.7650271,None,231.7650271,None,231.7650271,None,k,1,0.4916321000000039,231.7650271,None,,,,,,,,,,,,,21,001,2022_Oct_21_1940,Flanker,2021.2.0,241.1655046508843,
congruent-right.jpg,1,k,right_arrow.png,right_arrow.png,right_arrow.png,right_arrow.png,right_arrow.png,right_arrow.png,right_arrow.png,,,,,,,,,5,1,31,2,,,,,,,,,232.27392379999998,None,,,,,,,,,,,,,,,,,,,,,,,,,,,,,,233.28750530000002,None,233.28750530000002,None,233.28750530000002,None,233.28750530000002,None,233.28750530000002,None,233.28750530000002,None,233.28750530000002,None,k,1,0.5371628000000328,233.28750530000002,None,,,,,,,,,,,,,21,001,2022_Oct_21_1940,Flanker,2021.2.0,241.1655046508843,
incongruent-left.jpg,0,a,right_arrow.png,right_arrow.png,right_arrow.png,left_arrow.png,right_arrow.png,right_arrow.png,right_arrow.png,,,,,,,,,5,2,32,1,,,,,,,,,233.83805569999998,None,,,,,,,,,,,,,,,,,,,,,,,,,,,,,,234.85187889999997,None,234.85187889999997,None,234.85187889999997,None,234.85187889999997,None,234.85187889999997,None,234.85187889999997,None,234.85187889999997,None,a,1,0.5010363999999754,234.85187889999997,None,,,,,,,,,,,,,21,001,2022_Oct_21_1940,Flanker,2021.2.0,241.1655046508843,
incongruent-left.jpg,0,a,right_arrow.png,right_arrow.png,right_arrow.png,left_arrow.png,right_arrow.png,right_arrow.png,right_arrow.png,,,,,,,,,5,3,33,1,,,,,,,,,235.3688654,None,,,,,,,,,,,,,,,,,,,,,,,,,,,,,,236.3782465,None,236.3782465,None,236.3782465,None,236.3782465,None,236.3782465,None,236.3782465,None,236.3782465,None,a,1,0.5750366999999983,236.3782465,None,,,,,,,,,,,,,21,001,2022_Oct_21_1940,Flanker,2021.2.0,241.1655046508843,
incongruent-right.jpg,0,k,left_arrow.png,left_arrow.png,left_arrow.png,right_arrow.png,left_arrow.png,left_arrow.png,left_arrow.png,,,,,,,,,5,4,34,3,,,,,,,,,236.97058140000001,None,,,,,,,,,,,,,,,,,,,,,,,,,,,,,,237.9882996,None,237.9882996,None,237.9882996,None,237.9882996,None,237.9882996,None,237.9882996,None,237.9882996,None,k,1,0.6450335000000109,237.9882996,None,,,,,,,,,,,,,21,001,2022_Oct_21_1940,Flanker,2021.2.0,241.1655046508843,
neutral right,0,k,neutral.png,neutral.png,neutral.png,right_arrow.png,neutral.png,neutral.png,neutral.png,,,,,,,,,5,5,35,5,,,,,,,,,238.64732979999997,None,,,,,,,,,,,,,,,,,,,,,,,,,,,,,,239.66105319999997,None,239.66105319999997,None,239.66105319999997,None,239.66105319999997,None,239.66105319999997,None,239.66105319999997,None,239.66105319999997,None,k,1,0.4845349000000283,239.66105319999997,None,,,,,,,,,,,,,21,001,2022_Oct_21_1940,Flanker,2021.2.0,241.1655046508843,
congruent-left.jpg,1,a,left_arrow.png,left_arrow.png,left_arrow.png,left_arrow.png,left_arrow.png,left_arrow.png,left_arrow.png,,,,,,,,,6,0,36,0,,,,,,,,,240.1614338,None,,,,,,,,,,,,,,,,,,,,,,,,,,,,,,241.1750166,None,241.1750166,None,241.1750166,None,241.1750166,None,241.1750166,None,241.1750166,None,241.1750166,None,a,1,0.5067394999999806,241.1750166,None,,,,,,,,,,,,,21,001,2022_Oct_21_1940,Flanker,2021.2.0,241.1655046508843,
congruent-left.jpg,1,a,left_arrow.png,left_arrow.png,left_arrow.png,left_arrow.png,left_arrow.png,left_arrow.png,left_arrow.png,,,,,,,,,6,1,37,0,,,,,,,,,241.7005721,None,,,,,,,,,,,,,,,,,,,,,,,,,,,,,,242.7182838,None,242.7182838,None,242.7182838,None,242.7182838,None,242.7182838,None,242.7182838,None,242.7182838,None,a,1,0.5237518000000136,242.7182838,None,,,,,,,,,,,,,21,001,2022_Oct_21_1940,Flanker,2021.2.0,241.1655046508843,
neutral right,0,k,neutral.png,neutral.png,neutral.png,right_arrow.png,neutral.png,neutral.png,neutral.png,,,,,,,,,6,2,38,5,,,,,,,,,243.25661789999998,None,,,,,,,,,,,,,,,,,,,,,,,,,,,,,,244.2660017,None,244.2660017,None,244.2660017,None,244.2660017,None,244.2660017,None,244.2660017,None,244.2660017,None,k,1,0.4242151999999919,244.2660017,None,,,,,,,,,,,,,21,001,2022_Oct_21_1940,Flanker,2021.2.0,241.1655046508843,
incongruent-left.jpg,0,a,right_arrow.png,right_arrow.png,right_arrow.png,left_arrow.png,right_arrow.png,right_arrow.png,right_arrow.png,,,,,,,,,6,3,39,1,,,,,,,,,244.70790440000002,None,,,,,,,,,,,,,,,,,,,,,,,,,,,,,,245.71730759999997,None,245.71730759999997,None,245.71730759999997,None,245.71730759999997,None,245.71730759999997,None,245.71730759999997,None,245.71730759999997,None,a,1,0.5491009000000417,245.71730759999997,None,,,,,,,,,,,,,21,001,2022_Oct_21_1940,Flanker,2021.2.0,241.1655046508843,
neutral right,0,k,neutral.png,neutral.png,neutral.png,right_arrow.png,neutral.png,neutral.png,neutral.png,,,,,,,,,6,4,40,5,,,,,,,,,246.2845607,None,,,,,,,,,,,,,,,,,,,,,,,,,,,,,,247.29814149999999,None,247.29814149999999,None,247.29814149999999,None,247.29814149999999,None,247.29814149999999,None,247.29814149999999,None,247.29814149999999,None,k,1,0.3926240999999777,247.29814149999999,None,,,,,,,,,,,,,21,001,2022_Oct_21_1940,Flanker,2021.2.0,241.1655046508843,
neutral left,0,a,neutral.png,neutral.png,neutral.png,left_arrow.png,neutral.png,neutral.png,neutral.png,,,,,,,,,6,5,41,4,,,,,,,,,247.7070402,None,,,,,,,,,,,,,,,,,,,,,,,,,,,,,,248.71644729999997,None,248.71644729999997,None,248.71644729999997,None,248.71644729999997,None,248.71644729999997,None,248.71644729999997,None,248.71644729999997,None,a,1,0.39831500000002507,248.71644729999997,None,,,,,,,,,,,,,21,001,2022_Oct_21_1940,Flanker,2021.2.0,241.1655046508843,
neutral left,0,a,neutral.png,neutral.png,neutral.png,left_arrow.png,neutral.png,neutral.png,neutral.png,,,,,,,,,7,0,42,4,,,,,,,,,249.13365290000002,None,,,,,,,,,,,,,,,,,,,,,,,,,,,,,,250.15119169999997,None,250.15119169999997,None,250.15119169999997,None,250.15119169999997,None,250.15119169999997,None,250.15119169999997,None,250.15119169999997,None,a,1,0.4518145000000118,250.15119169999997,None,,,,,,,,,,,,,21,001,2022_Oct_21_1940,Flanker,2021.2.0,241.1655046508843,
incongruent-right.jpg,0,k,left_arrow.png,left_arrow.png,left_arrow.png,right_arrow.png,left_arrow.png,left_arrow.png,left_arrow.png,,,,,,,,,7,1,43,3,,,,,,,,,250.61848179999998,None,,,,,,,,,,,,,,,,,,,,,,,,,,,,,,251.6319641,None,251.6319641,None,251.6319641,None,251.6319641,None,251.6319641,None,251.6319641,None,251.6319641,None,k,1,0.4911869000000024,251.6319641,None,,,,,,,,,,,,,21,001,2022_Oct_21_1940,Flanker,2021.2.0,241.1655046508843,
incongruent-right.jpg,0,k,left_arrow.png,left_arrow.png,left_arrow.png,right_arrow.png,left_arrow.png,left_arrow.png,left_arrow.png,,,,,,,,,7,2,44,3,,,,,,,,,252.14100580000002,None,,,,,,,,,,,,,,,,,,,,,,,,,,,,,,253.1545514,None,253.1545514,None,253.1545514,None,253.1545514,None,253.1545514,None,253.1545514,None,253.1545514,None,k,1,0.5608040999999844,253.1545514,None,,,,,,,,,,,,,21,001,2022_Oct_21_1940,Flanker,2021.2.0,241.1655046508843,
congruent-left.jpg,1,a,left_arrow.png,left_arrow.png,left_arrow.png,left_arrow.png,left_arrow.png,left_arrow.png,left_arrow.png,,,,,,,,,7,3,45,0,,,,,,,,,253.7301599,None,,,,,,,,,,,,,,,,,,,,,,,,,,,,,,254.73546849999997,None,254.73546849999997,None,254.73546849999997,None,254.73546849999997,None,254.73546849999997,None,254.73546849999997,None,254.73546849999997,None,a,1,0.4440999000000261,254.73546849999997,None,,,,,,,,,,,,,21,001,2022_Oct_21_1940,Flanker,2021.2.0,241.1655046508843,
congruent-right.jpg,1,k,right_arrow.png,right_arrow.png,right_arrow.png,right_arrow.png,right_arrow.png,right_arrow.png,right_arrow.png,,,,,,,,,7,4,46,2,,,,,,,,,255.19404409999999,None,,,,,,,,,,,,,,,,,,,,,,,,,,,,,,256.2120881,None,256.2120881,None,256.2120881,None,256.2120881,None,256.2120881,None,256.2120881,None,256.2120881,None,k,1,0.5517181999999821,256.2120881,None,,,,,,,,,,,,,21,001,2022_Oct_21_1940,Flanker,2021.2.0,241.1655046508843,
neutral right,0,k,neutral.png,neutral.png,neutral.png,right_arrow.png,neutral.png,neutral.png,neutral.png,,,,,,,,,7,5,47,5,,,,,,,,,256.779167,None,,,,,,,,,,,,,,,,,,,,,,,,,,,,,,257.7885677,None,257.7885677,None,257.7885677,None,257.7885677,None,257.7885677,None,257.7885677,None,257.7885677,None,k,1,0.48772519999999986,257.7885677,None,,,,,,,,,,,,,21,001,2022_Oct_21_1940,Flanker,2021.2.0,241.1655046508843,
,,,,,,,,,,,,,,,,,,,,,,,,,,,,,,,,,,,,,,,,,,,,,,,,,,,,,,,,,,,,,,,,,,,,,,,,,,,,,,,,258.2974047,None,space,2.899002400000029,258.2974047,None,,,,,,,21,001,2022_Oct_21_1940,Flanker,2021.2.0,241.1655046508843,
congruent-right.jpg,1,k,right_arrow.png,right_arrow.png,right_arrow.png,right_arrow.png,right_arrow.png,right_arrow.png,right_arrow.png,,,,,,,,,,,,,0,0,0,2,,,,,261.2171156,None,,,,,,,,,,,,,,,,,,,,,,,,,,,,,,262.2266783,None,262.2266783,None,262.2266783,None,262.2266783,None,262.2266783,None,262.2266783,None,262.2266783,None,k,1,0.5219185000000266,262.2266783,None,,,,,,,,,,,,,21,001,2022_Oct_21_1940,Flanker,2021.2.0,241.1655046508843,
incongruent-right.jpg,0,k,left_arrow.png,left_arrow.png,left_arrow.png,right_arrow.png,left_arrow.png,left_arrow.png,left_arrow.png,,,,,,,,,,,,,0,1,1,3,,,,,262.7605519,None,,,,,,,,,,,,,,,,,,,,,,,,,,,,,,263.7782593,None,263.7782593,None,263.7782593,None,263.7782593,None,263.7782593,None,263.7782593,None,263.7782593,None,k,1,0.5465527000000066,263.7782593,None,,,,,,,,,,,,,21,001,2022_Oct_21_1940,Flanker,2021.2.0,241.1655046508843,
neutral left,0,a,neutral.png,neutral.png,neutral.png,left_arrow.png,neutral.png,neutral.png,neutral.png,,,,,,,,,,,,,0,2,2,4,,,,,264.3370419,None,,,,,,,,,,,,,,,,,,,,,,,,,,,,,,265.3547593,None,265.3547593,None,265.3547593,None,265.3547593,None,265.3547593,None,265.3547593,None,265.3547593,None,a,1,0.4264109000000076,265.3547593,None,,,,,,,,,,,,,21,001,2022_Oct_21_1940,Flanker,2021.2.0,241.1655046508843,
neutral right,0,k,neutral.png,neutral.png,neutral.png,right_arrow.png,neutral.png,neutral.png,neutral.png,,,,,,,,,,,,,0,3,3,5,,,,,265.7970427,None,,,,,,,,,,,,,,,,,,,,,,,,,,,,,,266.8105048,None,266.8105048,None,266.8105048,None,266.8105048,None,266.8105048,None,266.8105048,None,266.8105048,None,k,1,0.3868454999999926,266.8105048,None,,,,,,,,,,,,,21,001,2022_Oct_21_1940,Flanker,2021.2.0,241.1655046508843,
incongruent-left.jpg,0,a,right_arrow.png,right_arrow.png,right_arrow.png,left_arrow.png,right_arrow.png,right_arrow.png,right_arrow.png,,,,,,,,,,,,,0,4,4,1,,,,,267.2110441,None,,,,,,,,,,,,,,,,,,,,,,,,,,,,,,268.2246758,None,268.2246758,None,268.2246758,None,268.2246758,None,268.2246758,None,268.2246758,None,268.2246758,None,a,1,0.5647382000000221,268.2246758,None,,,,,,,,,,,,,21,001,2022_Oct_21_1940,Flanker,2021.2.0,241.1655046508843,
neutral left,0,a,neutral.png,neutral.png,neutral.png,left_arrow.png,neutral.png,neutral.png,neutral.png,,,,,,,,,,,,,0,5,5,4,,,,,268.8002411,None,,,,,,,,,,,,,,,,,,,,,,,,,,,,,,269.817969,None,269.817969,None,269.817969,None,269.817969,None,269.817969,None,269.817969,None,269.817969,None,a,1,0.5316508999999883,269.817969,None,,,,,,,,,,,,,21,001,2022_Oct_21_1940,Flanker,2021.2.0,241.1655046508843,
incongruent-right.jpg,0,k,left_arrow.png,left_arrow.png,left_arrow.png,right_arrow.png,left_arrow.png,left_arrow.png,left_arrow.png,,,,,,,,,,,,,1,0,6,3,,,,,270.3687102,None,,,,,,,,,,,,,,,,,,,,,,,,,,,,,,271.3779585,None,271.3779585,None,271.3779585,None,271.3779585,None,271.3779585,None,271.3779585,None,271.3779585,None,k,1,0.4841112000000294,271.3779585,None,,,,,,,,,,,,,21,001,2022_Oct_21_1940,Flanker,2021.2.0,241.1655046508843,
neutral left,0,a,neutral.png,neutral.png,neutral.png,left_arrow.png,neutral.png,neutral.png,neutral.png,,,,,,,,,,,,,1,1,7,4,,,,,271.8785621,None,,,,,,,,,,,,,,,,,,,,,,,,,,,,,,272.8919366,None,272.8919366,None,272.8919366,None,272.8919366,None,272.8919366,None,272.8919366,None,272.8919366,None,a,1,0.45822440000000597,272.8919366,None,,,,,,,,,,,,,21,001,2022_Oct_21_1940,Flanker,2021.2.0,241.1655046508843,
neutral left,0,a,neutral.png,neutral.png,neutral.png,left_arrow.png,neutral.png,neutral.png,neutral.png,,,,,,,,,,,,,1,2,8,4,,,,,273.3674066,None,,,,,,,,,,,,,,,,,,,,,,,,,,,,,,274.3812084,None,274.3812084,None,274.3812084,None,274.3812084,None,274.3812084,None,274.3812084,None,274.3812084,None,a,1,0.4650245000000268,274.3812084,None,,,,,,,,,,,,,21,001,2022_Oct_21_1940,Flanker,2021.2.0,241.1655046508843,
congruent-right.jpg,1,k,right_arrow.png,right_arrow.png,right_arrow.png,right_arrow.png,right_arrow.png,right_arrow.png,right_arrow.png,,,,,,,,,,,,,1,3,9,2,,,,,274.864983,None,,,,,,,,,,,,,,,,,,,,,,,,,,,,,,275.8743754,None,275.8743754,None,275.8743754,None,275.8743754,None,275.8743754,None,275.8743754,None,275.8743754,None,k,1,0.4680280000000039,275.8743754,None,,,,,,,,,,,,,21,001,2022_Oct_21_1940,Flanker,2021.2.0,241.1655046508843,
congruent-left.jpg,1,a,left_arrow.png,left_arrow.png,left_arrow.png,left_arrow.png,left_arrow.png,left_arrow.png,left_arrow.png,,,,,,,,,,,,,1,4,10,0,,,,,276.3582513,None,,,,,,,,,,,,,,,,,,,,,,,,,,,,,,277.3672212,None,277.3672212,None,277.3672212,None,277.3672212,None,277.3672212,None,277.3672212,None,277.3672212,None,a,1,0.41538679999996475,277.3672212,None,,,,,,,,,,,,,21,001,2022_Oct_21_1940,Flanker,2021.2.0,241.1655046508843,
incongruent-left.jpg,0,a,right_arrow.png,right_arrow.png,right_arrow.png,left_arrow.png,right_arrow.png,right_arrow.png,right_arrow.png,,,,,,,,,,,,,1,5,11,1,,,,,277.8016608,None,,,,,,,,,,,,,,,,,,,,,,,,,,,,,,278.8150224,None,278.8150224,None,278.8150224,None,278.8150224,None,278.8150224,None,278.8150224,None,278.8150224,None,a,1,0.5278018999999858,278.8150224,None,,,,,,,,,,,,,21,001,2022_Oct_21_1940,Flanker,2021.2.0,241.1655046508843,
neutral left,0,a,neutral.png,neutral.png,neutral.png,left_arrow.png,neutral.png,neutral.png,neutral.png,,,,,,,,,,,,,2,0,12,4,,,,,279.3570924,None,,,,,,,,,,,,,,,,,,,,,,,,,,,,,,280.3665708,None,280.3665708,None,280.3665708,None,280.3665708,None,280.3665708,None,280.3665708,None,280.3665708,None,a,1,0.44845500000002403,280.3665708,None,,,,,,,,,,,,,21,001,2022_Oct_21_1940,Flanker,2021.2.0,241.1655046508843,
congruent-left.jpg,1,a,left_arrow.png,left_arrow.png,left_arrow.png,left_arrow.png,left_arrow.png,left_arrow.png,left_arrow.png,,,,,,,,,,,,,2,1,13,0,,,,,280.834029,None,,,,,,,,,,,,,,,,,,,,,,,,,,,,,,281.8475942,None,281.8475942,None,281.8475942,None,281.8475942,None,281.8475942,None,281.8475942,None,281.8475942,None,a,1,0.5836393999999814,281.8475942,None,,,,,,,,,,,,,21,001,2022_Oct_21_1940,Flanker,2021.2.0,241.1655046508843,
neutral right,0,k,neutral.png,neutral.png,neutral.png,right_arrow.png,neutral.png,neutral.png,neutral.png,,,,,,,,,,,,,2,2,14,5,,,,,282.447854,None,,,,,,,,,,,,,,,,,,,,,,,,,,,,,,283.4615536,None,283.4615536,None,283.4615536,None,283.4615536,None,283.4615536,None,283.4615536,None,283.4615536,None,k,1,0.4738998000000265,283.4615536,None,,,,,,,,,,,,,21,001,2022_Oct_21_1940,Flanker,2021.2.0,241.1655046508843,
congruent-left.jpg,1,a,left_arrow.png,left_arrow.png,left_arrow.png,left_arrow.png,left_arrow.png,left_arrow.png,left_arrow.png,,,,,,,,,,,,,2,3,15,0,,,,,283.9539408,None,,,,,,,,,,,,,,,,,,,,,,,,,,,,,,284.9674001,None,284.9674001,None,284.9674001,None,284.9674001,None,284.9674001,None,284.9674001,None,284.9674001,None,a,1,0.5842764999999872,284.9674001,None,,,,,,,,,,,,,21,001,2022_Oct_21_1940,Flanker,2021.2.0,241.1655046508843,
congruent-right.jpg,1,k,right_arrow.png,right_arrow.png,right_arrow.png,right_arrow.png,right_arrow.png,right_arrow.png,right_arrow.png,,,,,,,,,,,,,2,4,16,2,,,,,285.5679791,None,,,,,,,,,,,,,,,,,,,,,,,,,,,,,,286.5772665,None,286.5772665,None,286.5772665,None,286.5772665,None,286.5772665,None,286.5772665,None,286.5772665,None,k,1,0.5027079000000185,286.5772665,None,,,,,,,,,,,,,21,001,2022_Oct_21_1940,Flanker,2021.2.0,241.1655046508843,
incongruent-right.jpg,0,k,left_arrow.png,left_arrow.png,left_arrow.png,right_arrow.png,left_arrow.png,left_arrow.png,left_arrow.png,,,,,,,,,,,,,2,5,17,3,,,,,287.0944582,None,,,,,,,,,,,,,,,,,,,,,,,,,,,,,,288.1042886,None,288.1042886,None,288.1042886,None,288.1042886,None,288.1042886,None,288.1042886,None,288.1042886,None,k,1,0.6239532999999824,288.1042886,None,,,,,,,,,,,,,21,001,2022_Oct_21_1940,Flanker,2021.2.0,241.1655046508843,
congruent-right.jpg,1,k,right_arrow.png,right_arrow.png,right_arrow.png,right_arrow.png,right_arrow.png,right_arrow.png,right_arrow.png,,,,,,,,,,,,,3,0,18,2,,,,,288.74634829999997,None,,,,,,,,,,,,,,,,,,,,,,,,,,,,,,289.7557534,None,289.7557534,None,289.7557534,None,289.7557534,None,289.7557534,None,289.7557534,None,289.7557534,None,k,1,0.5167936000000282,289.7557534,None,,,,,,,,,,,,,21,001,2022_Oct_21_1940,Flanker,2021.2.0,241.1655046508843,
congruent-right.jpg,1,k,right_arrow.png,right_arrow.png,right_arrow.png,right_arrow.png,right_arrow.png,right_arrow.png,right_arrow.png,,,,,,,,,,,,,3,1,19,2,,,,,290.2896174,None,,,,,,,,,,,,,,,,,,,,,,,,,,,,,,291.2990786,None,291.2990786,None,291.2990786,None,291.2990786,None,291.2990786,None,291.2990786,None,291.2990786,None,k,1,0.501590100000044,291.2990786,None,,,,,,,,,,,,,21,001,2022_Oct_21_1940,Flanker,2021.2.0,241.1655046508843,
incongruent-left.jpg,0,a,right_arrow.png,right_arrow.png,right_arrow.png,left_arrow.png,right_arrow.png,right_arrow.png,right_arrow.png,,,,,,,,,,,,,3,2,20,1,,,,,291.8162563,None,,,,,,,,,,,,,,,,,,,,,,,,,,,,,,292.8298434,None,292.8298434,None,292.8298434,None,292.8298434,None,292.8298434,None,292.8298434,None,292.8298434,None,a,1,0.5148726999999553,292.8298434,None,,,,,,,,,,,,,21,001,2022_Oct_21_1940,Flanker,2021.2.0,241.1655046508843,
congruent-left.jpg,1,a,left_arrow.png,left_arrow.png,left_arrow.png,left_arrow.png,left_arrow.png,left_arrow.png,left_arrow.png,,,,,,,,,,,,,3,3,21,0,,,,,293.3638496,None,,,,,,,,,,,,,,,,,,,,,,,,,,,,,,294.3729927,None,294.3729927,None,294.3729927,None,294.3729927,None,294.3729927,None,294.3729927,None,294.3729927,None,a,1,0.7161061999999561,294.3729927,None,,,,,,,,,,,,,21,001,2022_Oct_21_1940,Flanker,2021.2.0,241.1655046508843,
neutral right,0,k,neutral.png,neutral.png,neutral.png,right_arrow.png,neutral.png,neutral.png,neutral.png,,,,,,,,,,,,,3,4,22,5,,,,,295.10733,None,,,,,,,,,,,,,,,,,,,,,,,,,,,,,,296.1165939,None,296.1165939,None,296.1165939,None,296.1165939,None,296.1165939,None,296.1165939,None,296.1165939,None,k,1,0.4287597000000005,296.1165939,None,,,,,,,,,,,,,21,001,2022_Oct_21_1940,Flanker,2021.2.0,241.1655046508843,
neutral right,0,k,neutral.png,neutral.png,neutral.png,right_arrow.png,neutral.png,neutral.png,neutral.png,,,,,,,,,,,,,3,5,23,5,,,,,296.5588577,None,,,,,,,,,,,,,,,,,,,,,,,,,,,,,,297.5683261,None,297.5683261,None,297.5683261,None,297.5683261,None,297.5683261,None,297.5683261,None,297.5683261,None,k,1,0.4653314999999907,297.5683261,None,,,,,,,,,,,,,21,001,2022_Oct_21_1940,Flanker,2021.2.0,241.1655046508843,
neutral left,0,a,neutral.png,neutral.png,neutral.png,left_arrow.png,neutral.png,neutral.png,neutral.png,,,,,,,,,,,,,4,0,24,4,,,,,298.0520238,None,,,,,,,,,,,,,,,,,,,,,,,,,,,,,,299.0613391,None,299.0613391,None,299.0613391,None,299.0613391,None,299.0613391,None,299.0613391,None,299.0613391,None,a,1,0.4285041999999635,299.0613391,None,,,,,,,,,,,,,21,001,2022_Oct_21_1940,Flanker,2021.2.0,241.1655046508843,
incongruent-right.jpg,0,k,left_arrow.png,left_arrow.png,left_arrow.png,right_arrow.png,left_arrow.png,left_arrow.png,left_arrow.png,,,,,,,,,,,,,4,1,25,3,,,,,299.5036872,None,,,,,,,,,,,,,,,,,,,,,,,,,,,,,,300.5169856,None,300.5169856,None,300.5169856,None,300.5169856,None,300.5169856,None,300.5169856,None,300.5169856,None,k,1,0.500924800000007,300.5169856,None,,,,,,,,,,,,,21,001,2022_Oct_21_1940,Flanker,2021.2.0,241.1655046508843,
congruent-left.jpg,1,a,left_arrow.png,left_arrow.png,left_arrow.png,left_arrow.png,left_arrow.png,left_arrow.png,left_arrow.png,,,,,,,,,,,,,4,2,26,0,,,,,301.0344256,None,,,,,,,,,,,,,,,,,,,,,,,,,,,,,,302.0437301,None,302.0437301,None,302.0437301,None,302.0437301,None,302.0437301,None,302.0437301,None,302.0437301,None,a,1,0.47819529999998167,302.0437301,None,,,,,,,,,,,,,21,001,2022_Oct_21_1940,Flanker,2021.2.0,241.1655046508843,
incongruent-right.jpg,0,k,left_arrow.png,left_arrow.png,left_arrow.png,right_arrow.png,left_arrow.png,left_arrow.png,left_arrow.png,,,,,,,,,,,,,4,3,27,3,,,,,302.5359365,None,,,,,,,,,,,,,,,,,,,,,,,,,,,,,,303.5495561,None,303.5495561,None,303.5495561,None,303.5495561,None,303.5495561,None,303.5495561,None,303.5495561,None,k,1,0.46860759999998436,303.5495561,None,,,,,,,,,,,,,21,001,2022_Oct_21_1940,Flanker,2021.2.0,241.1655046508843,
neutral right,0,k,neutral.png,neutral.png,neutral.png,right_arrow.png,neutral.png,neutral.png,neutral.png,,,,,,,,,,,,,4,4,28,5,,,,,304.03334209999997,None,,,,,,,,,,,,,,,,,,,,,,,,,,,,,,305.0426063,None,305.0426063,None,305.0426063,None,305.0426063,None,305.0426063,None,305.0426063,None,305.0426063,None,k,1,0.4557292000000075,305.0426063,None,,,,,,,,,,,,,21,001,2022_Oct_21_1940,Flanker,2021.2.0,241.1655046508843,
congruent-right.jpg,1,k,right_arrow.png,right_arrow.png,right_arrow.png,right_arrow.png,right_arrow.png,right_arrow.png,right_arrow.png,,,,,,,,,,,,,4,5,29,2,,,,,305.5099341,None,,,,,,,,,,,,,,,,,,,,,,,,,,,,,,306.5191832,None,306.5191832,None,306.5191832,None,306.5191832,None,306.5191832,None,306.5191832,None,306.5191832,None,k,1,0.47553609999999935,306.5191832,None,,,,,,,,,,,,,21,001,2022_Oct_21_1940,Flanker,2021.2.0,241.1655046508843,
incongruent-left.jpg,0,a,right_arrow.png,right_arrow.png,right_arrow.png,left_arrow.png,right_arrow.png,right_arrow.png,right_arrow.png,,,,,,,,,,,,,5,0,30,1,,,,,307.0116,None,,,,,,,,,,,,,,,,,,,,,,,,,,,,,,308.0250836,None,308.0250836,None,308.0250836,None,308.0250836,None,308.0250836,None,308.0250836,None,308.0250836,None,a,1,0.49765720000004876,308.0250836,None,,,,,,,,,,,,,21,001,2022_Oct_21_1940,Flanker,2021.2.0,241.1655046508843,
incongruent-right.jpg,0,k,left_arrow.png,left_arrow.png,left_arrow.png,right_arrow.png,left_arrow.png,left_arrow.png,left_arrow.png,,,,,,,,,,,,,5,1,31,3,,,,,308.5339255,None,,,,,,,,,,,,,,,,,,,,,,,,,,,,,,309.5433547,None,309.5433547,None,309.5433547,None,309.5433547,None,309.5433547,None,309.5433547,None,309.5433547,None,k,1,0.5077426000000287,309.5433547,None,,,,,,,,,,,,,21,001,2022_Oct_21_1940,Flanker,2021.2.0,241.1655046508843,
incongruent-right.jpg,0,k,left_arrow.png,left_arrow.png,left_arrow.png,right_arrow.png,left_arrow.png,left_arrow.png,left_arrow.png,,,,,,,,,,,,,5,2,32,3,,,,,310.0687558,None,,,,,,,,,,,,,,,,,,,,,,,,,,,,,,311.08664039999996,None,311.08664039999996,None,311.08664039999996,None,311.08664039999996,None,311.08664039999996,None,311.08664039999996,None,311.08664039999996,None,k,1,0.65257059999999,311.08664039999996,None,,,,,,,,,,,,,21,001,2022_Oct_21_1940,Flanker,2021.2.0,241.1655046508843,
incongruent-left.jpg,0,a,right_arrow.png,right_arrow.png,right_arrow.png,left_arrow.png,right_arrow.png,right_arrow.png,right_arrow.png,,,,,,,,,,,,,5,3,33,1,,,,,311.75403,None,,,,,,,,,,,,,,,,,,,,,,,,,,,,,,312.7632837,None,312.7632837,None,312.7632837,None,312.7632837,None,312.7632837,None,312.7632837,None,312.7632837,None,a,1,0.46407709999999724,312.7632837,None,,,,,,,,,,,,,21,001,2022_Oct_21_1940,Flanker,2021.2.0,241.1655046508843,
neutral right,0,k,neutral.png,neutral.png,neutral.png,right_arrow.png,neutral.png,neutral.png,neutral.png,,,,,,,,,,,,,5,4,34,5,,,,,313.2389202,None,,,,,,,,,,,,,,,,,,,,,,,,,,,,,,314.2524884,None,314.2524884,None,314.2524884,None,314.2524884,None,314.2524884,None,314.2524884,None,314.2524884,None,k,1,0.4551114999999868,314.2524884,None,,,,,,,,,,,,,21,001,2022_Oct_21_1940,Flanker,2021.2.0,241.1655046508843,
incongruent-left.jpg,0,a,right_arrow.png,right_arrow.png,right_arrow.png,left_arrow.png,right_arrow.png,right_arrow.png,right_arrow.png,,,,,,,,,,,,,5,5,35,1,,,,,314.7196561,None,,,,,,,,,,,,,,,,,,,,,,,,,,,,,,315.7291199,None,315.7291199,None,315.7291199,None,315.7291199,None,315.7291199,None,315.7291199,None,315.7291199,None,a,1,0.5067042000000015,315.7291199,None,,,,,,,,,,,,,21,001,2022_Oct_21_1940,Flanker,2021.2.0,241.1655046508843,
congruent-left.jpg,1,a,left_arrow.png,left_arrow.png,left_arrow.png,left_arrow.png,left_arrow.png,left_arrow.png,left_arrow.png,,,,,,,,,,,,,6,0,36,0,,,,,316.2546468,None,,,,,,,,,,,,,,,,,,,,,,,,,,,,,,317.2639339,None,317.2639339,None,317.2639339,None,317.2639339,None,317.2639339,None,317.2639339,None,317.2639339,None,a,1,0.5720460000000003,317.2639339,None,,,,,,,,,,,,,21,001,2022_Oct_21_1940,Flanker,2021.2.0,241.1655046508843,
incongruent-right.jpg,0,k,left_arrow.png,left_arrow.png,left_arrow.png,right_arrow.png,left_arrow.png,left_arrow.png,left_arrow.png,,,,,,,,,,,,,6,1,37,3,,,,,317.8479876,None,,,,,,,,,,,,,,,,,,,,,,,,,,,,,,318.8657172,None,318.8657172,None,318.8657172,None,318.8657172,None,318.8657172,None,318.8657172,None,318.8657172,None,k,1,0.6105029999999942,318.8657172,None,,,,,,,,,,,,,21,001,2022_Oct_21_1940,Flanker,2021.2.0,241.1655046508843,
congruent-right.jpg,1,k,right_arrow.png,right_arrow.png,right_arrow.png,right_arrow.png,right_arrow.png,right_arrow.png,right_arrow.png,,,,,,,,,,,,,6,2,38,2,,,,,319.4912569,None,,,,,,,,,,,,,,,,,,,,,,,,,,,,,,320.504972,None,320.504972,None,320.504972,None,320.504972,None,320.504972,None,320.504972,None,320.504972,None,k,1,0.49160960000000387,320.504972,None,,,,,,,,,,,,,21,001,2022_Oct_21_1940,Flanker,2021.2.0,241.1655046508843,
incongruent-left.jpg,0,a,right_arrow.png,right_arrow.png,right_arrow.png,left_arrow.png,right_arrow.png,right_arrow.png,right_arrow.png,,,,,,,,,,,,,6,3,39,1,,,,,321.0136821,None,,,,,,,,,,,,,,,,,,,,,,,,,,,,,,322.0274133,None,322.0274133,None,322.0274133,None,322.0274133,None,322.0274133,None,322.0274133,None,322.0274133,None,a,1,0.5292637000000013,322.0274133,None,,,,,,,,,,,,,21,001,2022_Oct_21_1940,Flanker,2021.2.0,241.1655046508843,
congruent-left.jpg,1,a,left_arrow.png,left_arrow.png,left_arrow.png,left_arrow.png,left_arrow.png,left_arrow.png,left_arrow.png,,,,,,,,,,,,,6,4,40,0,,,,,322.56965529999997,None,,,,,,,,,,,,,,,,,,,,,,,,,,,,,,323.5790571,None,323.5790571,None,323.5790571,None,323.5790571,None,323.5790571,None,323.5790571,None,323.5790571,None,a,1,0.6178072999999813,323.5790571,None,,,,,,,,,,,,,21,001,2022_Oct_21_1940,Flanker,2021.2.0,241.1655046508843,
congruent-left.jpg,1,a,left_arrow.png,left_arrow.png,left_arrow.png,left_arrow.png,left_arrow.png,left_arrow.png,left_arrow.png,,,,,,,,,,,,,6,5,41,0,,,,,324.21293049999997,None,,,,,,,,,,,,,,,,,,,,,,,,,,,,,,325.2223283,None,325.2223283,None,325.2223283,None,325.2223283,None,325.2223283,None,325.2223283,None,325.2223283,None,a,1,0.4868829000000119,325.2223283,None,,,,,,,,,,,,,21,001,2022_Oct_21_1940,Flanker,2021.2.0,241.1655046508843,
neutral right,0,k,neutral.png,neutral.png,neutral.png,right_arrow.png,neutral.png,neutral.png,neutral.png,,,,,,,,,,,,,7,0,42,5,,,,,325.7230106,None,,,,,,,,,,,,,,,,,,,,,,,,,,,,,,326.73646479999996,None,326.73646479999996,None,326.73646479999996,None,326.73646479999996,None,326.73646479999996,None,326.73646479999996,None,326.73646479999996,None,k,1,0.5088157000000137,326.73646479999996,None,,,,,,,,,,,,,21,001,2022_Oct_21_1940,Flanker,2021.2.0,241.1655046508843,
neutral left,0,a,neutral.png,neutral.png,neutral.png,left_arrow.png,neutral.png,neutral.png,neutral.png,,,,,,,,,,,,,7,1,43,4,,,,,327.2577785,None,,,,,,,,,,,,,,,,,,,,,,,,,,,,,,328.2672023,None,328.2672023,None,328.2672023,None,328.2672023,None,328.2672023,None,328.2672023,None,328.2672023,None,a,1,0.44228689999999915,328.2672023,None,,,,,,,,,,,,,21,001,2022_Oct_21_1940,Flanker,2021.2.0,241.1655046508843,
neutral left,0,a,neutral.png,neutral.png,neutral.png,left_arrow.png,neutral.png,neutral.png,neutral.png,,,,,,,,,,,,,7,2,44,4,,,,,328.72600869999997,None,,,,,,,,,,,,,,,,,,,,,,,,,,,,,,329.7354287,None,329.7354287,None,329.7354287,None,329.7354287,None,329.7354287,None,329.7354287,None,329.7354287,None,a,1,0.49427180000003546,329.7354287,None,,,,,,,,,,,,,21,001,2022_Oct_21_1940,Flanker,2021.2.0,241.1655046508843,
neutral right,0,k,neutral.png,neutral.png,neutral.png,right_arrow.png,neutral.png,neutral.png,neutral.png,,,,,,,,,,,,,7,3,45,5,,,,,330.2442853,None,,,,,,,,,,,,,,,,,,,,,,,,,,,,,,331.2537039,None,331.2537039,None,331.2537039,None,331.2537039,None,331.2537039,None,331.2537039,None,331.2537039,None,k,1,0.4321703999999613,331.2537039,None,,,,,,,,,,,,,21,001,2022_Oct_21_1940,Flanker,2021.2.0,241.1655046508843,
congruent-right.jpg,1,k,right_arrow.png,right_arrow.png,right_arrow.png,right_arrow.png,right_arrow.png,right_arrow.png,right_arrow.png,,,,,,,,,,,,,7,4,46,2,,,,,331.69526369999994,None,,,,,,,,,,,,,,,,,,,,,,,,,,,,,,332.70047339999996,None,332.70047339999996,None,332.70047339999996,None,332.70047339999996,None,332.70047339999996,None,332.70047339999996,None,332.70047339999996,None,k,1,0.6256586000000652,332.70047339999996,None,,,,,,,,,,,,,21,001,2022_Oct_21_1940,Flanker,2021.2.0,241.1655046508843,
incongruent-left.jpg,0,a,right_arrow.png,right_arrow.png,right_arrow.png,left_arrow.png,right_arrow.png,right_arrow.png,right_arrow.png,,,,,,,,,,,,,7,5,47,1,,,,,333.33865749999995,None,,,,,,,,,,,,,,,,,,,,,,,,,,,,,,334.33972289999997,None,334.33972289999997,None,334.33972289999997,None,334.33972289999997,None,334.33972289999997,None,334.33972289999997,None,334.33972289999997,None,a,1,0.4986007999999629,334.33972289999997,None,,,,,,,,,,,,,21,001,2022_Oct_21_1940,Flanker,2021.2.0,241.1655046508843,
,,,,,,,,,,,,,,,,,,,,,,,,,,,,,,,,,,,,,,,,,,,,,,,,,,,,,,,,,,,,,,,,,,,,,,,,,,,,,,,,334.86119099999996,None,space,2.2895514000000503,334.86119099999996,None,,,,,,,21,001,2022_Oct_21_1940,Flanker,2021.2.0,241.1655046508843,
,,,,,,,,,,,,,,,,,,,,,,,,,,,,,,,,,,,,,,,,,,,,,,,,,,,,,,,,,,,,,,,,,,,,,,,,,,,,,,,,,,,,,,337.168443,None,space,2.262481399999956,337.168443,None,21,001,2022_Oct_21_1940,Flanker,2021.2.0,241.1655046508843,
