images,congruentcy,corrAns,arrow_1,arrow_2,arrow_3,target,arrow_5,arrow_6,arrow_7,practice.thisRepN,practice.thisTrialN,practice.thisN,practice.thisIndex,trials.thisRepN,trials.thisTrialN,trials.thisN,trials.thisIndex,trials_2.thisRepN,trials_2.thisTrialN,trials_2.thisN,trials_2.thisIndex,trials_3.thisRepN,trials_3.thisTrialN,trials_3.thisN,trials_3.thisIndex,instr_text.started,instr_text.stopped,instr_resp.keys,instr_resp.rt,polygon.started,polygon.stopped,arrow1_.started,arrow1_.stopped,arrow2_.started,arrow2_.stopped,arrow3_.started,arrow3_.stopped,target_p.started,target_p.stopped,arrow5_.started,arrow5_.stopped,arrow6_.started,arrow6_.stopped,arrow7_.started,arrow7_.stopped,key_resp_P.keys,key_resp_P.corr,key_resp_P.rt,key_resp_P.started,key_resp_P.stopped,text_2.started,text_2.stopped,text_3.started,text_3.stopped,text_4.started,text_4.stopped,key_resp_2.keys,key_resp_2.rt,key_resp_2.started,key_resp_2.stopped,arrow1.started,arrow1.stopped,arrow2.started,arrow2.stopped,arrow3.started,arrow3.stopped,target_t.started,target_t.stopped,arrow5.started,arrow5.stopped,arrow6.started,arrow6.stopped,arrow7.started,arrow7.stopped,key_resp.keys,key_resp.corr,key_resp.rt,key_resp.started,key_resp.stopped,text_5.started,text_5.stopped,key_resp_3.keys,key_resp_3.rt,key_resp_3.started,key_resp_3.stopped,text_6.started,text_6.stopped,key_resp_4.keys,key_resp_4.rt,key_resp_4.started,key_resp_4.stopped,participant,session,date,expName,psychopyVersion,frameRate,
,,,,,,,,,,,,,,,,,,,,,,,,,,11.20936679999977,None,space,5.565958299999693,,,,,,,,,,,,,,,,,,,,,,,,,,,,,,,,,,,,,,,,,,,,,,,,,,,,,,,,,,,,,,,22,001,2022_Oct_22_1809,Flanker,2021.2.0,239.2041200526173,
incongruent-right.jpg,0,k,left_arrow.png,left_arrow.png,left_arrow.png,right_arrow.png,left_arrow.png,left_arrow.png,left_arrow.png,0,0,0,3,,,,,,,,,,,,,,,,,16.803831199999877,None,17.808744199999637,None,17.808744199999637,None,17.808744199999637,None,17.808744199999637,None,17.808744199999637,None,17.808744199999637,None,17.808744199999637,None,a,0,0.7509643000003052,17.808744199999637,None,18.588746199999605,None,,,,,,,,,,,,,,,,,,,,,,,,,,,,,,,,,,,,,,,,22,001,2022_Oct_22_1809,Flanker,2021.2.0,239.2041200526173,
congruent-right.jpg,1,k,right_arrow.png,right_arrow.png,right_arrow.png,right_arrow.png,right_arrow.png,right_arrow.png,right_arrow.png,0,1,1,2,,,,,,,,,,,,,,,,,20.081808999999794,None,21.09121369999957,None,21.09121369999957,None,21.09121369999957,None,21.09121369999957,None,21.09121369999957,None,21.09121369999957,None,21.09121369999957,None,k,1,8.42971690000013,21.09121369999957,None,29.537687000000005,None,,,,,,,,,,,,,,,,,,,,,,,,,,,,,,,,,,,,,,,,22,001,2022_Oct_22_1809,Flanker,2021.2.0,239.2041200526173,
congruent-right.jpg,1,k,right_arrow.png,right_arrow.png,right_arrow.png,right_arrow.png,right_arrow.png,right_arrow.png,right_arrow.png,0,2,2,2,,,,,,,,,,,,,,,,,31.03536609999992,None,32.049022499999865,None,32.049022499999865,None,32.049022499999865,None,32.049022499999865,None,32.049022499999865,None,32.049022499999865,None,32.049022499999865,None,k,1,0.568307100000311,32.049022499999865,None,32.632683799999995,None,,,,,,,,,,,,,,,,,,,,,,,,,,,,,,,,,,,,,,,,22,001,2022_Oct_22_1809,Flanker,2021.2.0,239.2041200526173,
neutral left,0,a,neutral.png,neutral.png,neutral.png,left_arrow.png,neutral.png,neutral.png,neutral.png,0,3,3,4,,,,,,,,,,,,,,,,,34.134461499999816,None,35.1436206999997,None,35.1436206999997,None,35.1436206999997,None,35.1436206999997,None,35.1436206999997,None,35.1436206999997,None,35.1436206999997,None,a,1,0.9302130000000943,35.1436206999997,None,36.08629699999983,None,,,,,,,,,,,,,,,,,,,,,,,,,,,,,,,,,,,,,,,,22,001,2022_Oct_22_1809,Flanker,2021.2.0,239.2041200526173,
congruent-left.jpg,1,a,left_arrow.png,left_arrow.png,left_arrow.png,left_arrow.png,left_arrow.png,left_arrow.png,left_arrow.png,0,4,4,0,,,,,,,,,,,,,,,,,37.5878874,None,38.60145089999969,None,38.60145089999969,None,38.60145089999969,None,38.60145089999969,None,38.60145089999969,None,38.60145089999969,None,38.60145089999969,None,a,1,0.5047559999998157,38.60145089999969,None,39.11868659999982,None,,,,,,,,,,,,,,,,,,,,,,,,,,,,,,,,,,,,,,,,22,001,2022_Oct_22_1809,Flanker,2021.2.0,239.2041200526173,
incongruent-right.jpg,0,k,left_arrow.png,left_arrow.png,left_arrow.png,right_arrow.png,left_arrow.png,left_arrow.png,left_arrow.png,0,5,5,3,,,,,,,,,,,,,,,,,40.62458109999989,None,41.63383239999985,None,41.63383239999985,None,41.63383239999985,None,41.63383239999985,None,41.63383239999985,None,41.63383239999985,None,41.63383239999985,None,k,1,0.7608571999999185,41.63383239999985,None,42.40967509999973,None,,,,,,,,,,,,,,,,,,,,,,,,,,,,,,,,,,,,,,,,22,001,2022_Oct_22_1809,Flanker,2021.2.0,239.2041200526173,
neutral left,0,a,neutral.png,neutral.png,neutral.png,left_arrow.png,neutral.png,neutral.png,neutral.png,1,0,6,4,,,,,,,,,,,,,,,,,43.915874899999835,None,44.92067259999976,None,44.92067259999976,None,44.92067259999976,None,44.92067259999976,None,44.92067259999976,None,44.92067259999976,None,44.92067259999976,None,a,1,0.5304169000000911,44.92067259999976,None,45.46293139999989,None,,,,,,,,,,,,,,,,,,,,,,,,,,,,,,,,,,,,,,,,22,001,2022_Oct_22_1809,Flanker,2021.2.0,239.2041200526173,
neutral right,0,k,neutral.png,neutral.png,neutral.png,right_arrow.png,neutral.png,neutral.png,neutral.png,1,1,7,5,,,,,,,,,,,,,,,,,46.96474399999988,None,47.974148499999956,None,47.974148499999956,None,47.974148499999956,None,47.974148499999956,None,47.974148499999956,None,47.974148499999956,None,47.974148499999956,None,k,1,0.4293337000003703,47.974148499999956,None,48.41642889999957,None,,,,,,,,,,,,,,,,,,,,,,,,,,,,,,,,,,,,,,,,22,001,2022_Oct_22_1809,Flanker,2021.2.0,239.2041200526173,
neutral left,0,a,neutral.png,neutral.png,neutral.png,left_arrow.png,neutral.png,neutral.png,neutral.png,1,2,8,4,,,,,,,,,,,,,,,,,49.92205909999984,None,50.9270518999997,None,50.9270518999997,None,50.9270518999997,None,50.9270518999997,None,50.9270518999997,None,50.9270518999997,None,50.9270518999997,None,a,1,0.6209182000002329,50.9270518999997,None,51.56128619999981,None,,,,,,,,,,,,,,,,,,,,,,,,,,,,,,,,,,,,,,,,22,001,2022_Oct_22_1809,Flanker,2021.2.0,239.2041200526173,
neutral left,0,a,neutral.png,neutral.png,neutral.png,left_arrow.png,neutral.png,neutral.png,neutral.png,1,3,9,4,,,,,,,,,,,,,,,,,53.066818299999795,None,54.076572399999804,None,54.076572399999804,None,54.076572399999804,None,54.076572399999804,None,54.076572399999804,None,54.076572399999804,None,54.076572399999804,None,a,1,0.49583149999989473,54.076572399999804,None,54.58533009999974,None,,,,,,,,,,,,,,,,,,,,,,,,,,,,,,,,,,,,,,,,22,001,2022_Oct_22_1809,Flanker,2021.2.0,239.2041200526173,
neutral right,0,k,neutral.png,neutral.png,neutral.png,right_arrow.png,neutral.png,neutral.png,neutral.png,1,4,10,5,,,,,,,,,,,,,,,,,56.09108189999961,None,57.09635879999996,None,57.09635879999996,None,57.09635879999996,None,57.09635879999996,None,57.09635879999996,None,57.09635879999996,None,57.09635879999996,None,k,1,0.3723713000003954,57.09635879999996,None,57.48008139999956,None,,,,,,,,,,,,,,,,,,,,,,,,,,,,,,,,,,,,,,,,22,001,2022_Oct_22_1809,Flanker,2021.2.0,239.2041200526173,
incongruent-right.jpg,0,k,left_arrow.png,left_arrow.png,left_arrow.png,right_arrow.png,left_arrow.png,left_arrow.png,left_arrow.png,1,5,11,3,,,,,,,,,,,,,,,,,58.98165039999958,None,59.995222999999896,None,59.995222999999896,None,59.995222999999896,None,59.995222999999896,None,59.995222999999896,None,59.995222999999896,None,59.995222999999896,None,k,1,0.8342663000003085,59.995222999999896,None,60.84614449999981,None,,,,,,,,,,,,,,,,,,,,,,,,,,,,,,,,,,,,,,,,22,001,2022_Oct_22_1809,Flanker,2021.2.0,239.2041200526173,
congruent-left.jpg,1,a,left_arrow.png,left_arrow.png,left_arrow.png,left_arrow.png,left_arrow.png,left_arrow.png,left_arrow.png,2,0,12,0,,,,,,,,,,,,,,,,,62.3519282999996,None,63.35712829999966,None,63.35712829999966,None,63.35712829999966,None,63.35712829999966,None,63.35712829999966,None,63.35712829999966,None,63.35712829999966,None,a,1,0.5444499000000178,63.35712829999966,None,63.91606019999972,None,,,,,,,,,,,,,,,,,,,,,,,,,,,,,,,,,,,,,,,,22,001,2022_Oct_22_1809,Flanker,2021.2.0,239.2041200526173,
incongruent-left.jpg,0,a,right_arrow.png,right_arrow.png,right_arrow.png,left_arrow.png,right_arrow.png,right_arrow.png,right_arrow.png,2,1,13,1,,,,,,,,,,,,,,,,,65.4218563999998,None,66.42707359999986,None,66.42707359999986,None,66.42707359999986,None,66.42707359999986,None,66.42707359999986,None,66.42707359999986,None,66.42707359999986,None,a,1,0.5869625000000269,66.42707359999986,None,67.02768509999987,None,,,,,,,,,,,,,,,,,,,,,,,,,,,,,,,,,,,,,,,,22,001,2022_Oct_22_1809,Flanker,2021.2.0,239.2041200526173,
neutral right,0,k,neutral.png,neutral.png,neutral.png,right_arrow.png,neutral.png,neutral.png,neutral.png,2,2,14,5,,,,,,,,,,,,,,,,,68.52926899999966,None,69.53869879999957,None,69.53869879999957,None,69.53869879999957,None,69.53869879999957,None,69.53869879999957,None,69.53869879999957,None,69.53869879999957,None,k,1,0.46784840000009353,69.53869879999957,None,70.02260259999957,None,,,,,,,,,,,,,,,,,,,,,,,,,,,,,,,,,,,,,,,,22,001,2022_Oct_22_1809,Flanker,2021.2.0,239.2041200526173,
incongruent-left.jpg,0,a,right_arrow.png,right_arrow.png,right_arrow.png,left_arrow.png,right_arrow.png,right_arrow.png,right_arrow.png,2,3,15,1,,,,,,,,,,,,,,,,,71.52825749999965,None,72.53746899999987,None,72.53746899999987,None,72.53746899999987,None,72.53746899999987,None,72.53746899999987,None,72.53746899999987,None,72.53746899999987,None,a,1,0.4453558999998677,72.53746899999987,None,72.99628269999994,None,,,,,,,,,,,,,,,,,,,,,,,,,,,,,,,,,,,,,,,,22,001,2022_Oct_22_1809,Flanker,2021.2.0,239.2041200526173,
congruent-left.jpg,1,a,left_arrow.png,left_arrow.png,left_arrow.png,left_arrow.png,left_arrow.png,left_arrow.png,left_arrow.png,2,4,16,0,,,,,,,,,,,,,,,,,74.50231069999973,None,75.50762019999956,None,75.50762019999956,None,75.50762019999956,None,75.50762019999956,None,75.50762019999956,None,75.50762019999956,None,75.50762019999956,None,a,1,0.4195980999998028,75.50762019999956,None,75.94107159999976,None,,,,,,,,,,,,,,,,,,,,,,,,,,,,,,,,,,,,,,,,22,001,2022_Oct_22_1809,Flanker,2021.2.0,239.2041200526173,
congruent-left.jpg,1,a,left_arrow.png,left_arrow.png,left_arrow.png,left_arrow.png,left_arrow.png,left_arrow.png,left_arrow.png,2,5,17,0,,,,,,,,,,,,,,,,,77.44685979999986,None,78.45624359999965,None,78.45624359999965,None,78.45624359999965,None,78.45624359999965,None,78.45624359999965,None,78.45624359999965,None,78.45624359999965,None,a,1,0.3674344999999448,78.45624359999965,None,78.83997149999959,None,,,,,,,,,,,,,,,,,,,,,,,,,,,,,,,,,,,,,,,,22,001,2022_Oct_22_1809,Flanker,2021.2.0,239.2041200526173,
incongruent-right.jpg,0,k,left_arrow.png,left_arrow.png,left_arrow.png,right_arrow.png,left_arrow.png,left_arrow.png,left_arrow.png,3,0,18,3,,,,,,,,,,,,,,,,,80.3457183999999,None,81.34684489999972,None,81.34684489999972,None,81.34684489999972,None,81.34684489999972,None,81.34684489999972,None,81.34684489999972,None,81.34684489999972,None,k,1,0.5092091999999866,81.34684489999972,None,81.87243139999964,None,,,,,,,,,,,,,,,,,,,,,,,,,,,,,,,,,,,,,,,,22,001,2022_Oct_22_1809,Flanker,2021.2.0,239.2041200526173,
incongruent-left.jpg,0,a,right_arrow.png,right_arrow.png,right_arrow.png,left_arrow.png,right_arrow.png,right_arrow.png,right_arrow.png,3,1,19,1,,,,,,,,,,,,,,,,,83.37433389999978,None,84.38359199999968,None,84.38359199999968,None,84.38359199999968,None,84.38359199999968,None,84.38359199999968,None,84.38359199999968,None,84.38359199999968,None,a,1,0.48884829999997237,84.38359199999968,None,84.88396169999987,None,,,,,,,,,,,,,,,,,,,,,,,,,,,,,,,,,,,,,,,,22,001,2022_Oct_22_1809,Flanker,2021.2.0,239.2041200526173,
neutral right,0,k,neutral.png,neutral.png,neutral.png,right_arrow.png,neutral.png,neutral.png,neutral.png,3,2,20,5,,,,,,,,,,,,,,,,,86.38548709999986,None,87.39514949999966,None,87.39514949999966,None,87.39514949999966,None,87.39514949999966,None,87.39514949999966,None,87.39514949999966,None,87.39514949999966,None,k,1,0.4621176999999079,87.39514949999966,None,87.87063799999987,None,,,,,,,,,,,,,,,,,,,,,,,,,,,,,,,,,,,,,,,,22,001,2022_Oct_22_1809,Flanker,2021.2.0,239.2041200526173,
incongruent-left.jpg,0,a,right_arrow.png,right_arrow.png,right_arrow.png,left_arrow.png,right_arrow.png,right_arrow.png,right_arrow.png,3,3,21,1,,,,,,,,,,,,,,,,,89.37197219999962,None,90.38567649999959,None,90.38567649999959,None,90.38567649999959,None,90.38567649999959,None,90.38567649999959,None,90.38567649999959,None,90.38567649999959,None,a,1,0.4475806999998895,90.38567649999959,None,90.84438249999994,None,,,,,,,,,,,,,,,,,,,,,,,,,,,,,,,,,,,,,,,,22,001,2022_Oct_22_1809,Flanker,2021.2.0,239.2041200526173,
congruent-right.jpg,1,k,right_arrow.png,right_arrow.png,right_arrow.png,right_arrow.png,right_arrow.png,right_arrow.png,right_arrow.png,3,4,22,2,,,,,,,,,,,,,,,,,92.34593809999978,None,93.35544839999966,None,93.35544839999966,None,93.35544839999966,None,93.35544839999966,None,93.35544839999966,None,93.35544839999966,None,93.35544839999966,None,k,1,0.44619020000027376,93.35544839999966,None,93.814437,None,,,,,,,,,,,,,,,,,,,,,,,,,,,,,,,,,,,,,,,,22,001,2022_Oct_22_1809,Flanker,2021.2.0,239.2041200526173,
congruent-right.jpg,1,k,right_arrow.png,right_arrow.png,right_arrow.png,right_arrow.png,right_arrow.png,right_arrow.png,right_arrow.png,3,5,23,2,,,,,,,,,,,,,,,,,95.32030929999974,None,96.32111939999959,None,96.32111939999959,None,96.32111939999959,None,96.32111939999959,None,96.32111939999959,None,96.32111939999959,None,96.32111939999959,None,k,1,0.38518530000010287,96.32111939999959,None,96.72169189999977,None,,,,,,,,,,,,,,,,,,,,,,,,,,,,,,,,,,,,,,,,22,001,2022_Oct_22_1809,Flanker,2021.2.0,239.2041200526173,
,,,,,,,,,,,,,,,,,,,,,,,,,,,,,,,,,,,,,,,,,,,,,,,,,,,,,98.2397232999997,None,100.22512339999957,None,space,2.249688200000037,100.22512339999957,None,,,,,,,,,,,,,,,,,,,,,,,,,,,,,,,,22,001,2022_Oct_22_1809,Flanker,2021.2.0,239.2041200526173,
neutral right,0,k,neutral.png,neutral.png,neutral.png,right_arrow.png,neutral.png,neutral.png,neutral.png,,,,,0,0,0,5,,,,,,,,,,,,,102.50271899999962,None,,,,,,,,,,,,,,,,,,,,,,,,,,,,,,103.50362849999965,None,103.50362849999965,None,103.50362849999965,None,103.50362849999965,None,103.50362849999965,None,103.50362849999965,None,103.50362849999965,None,k,1,0.48352780000004714,103.50362849999965,None,,,,,,,,,,,,,22,001,2022_Oct_22_1809,Flanker,2021.2.0,239.2041200526173,
incongruent-left.jpg,0,a,right_arrow.png,right_arrow.png,right_arrow.png,left_arrow.png,right_arrow.png,right_arrow.png,right_arrow.png,,,,,0,1,1,1,,,,,,,,,,,,,104.00413809999964,None,,,,,,,,,,,,,,,,,,,,,,,,,,,,,,105.01770769999985,None,105.01770769999985,None,105.01770769999985,None,105.01770769999985,None,105.01770769999985,None,105.01770769999985,None,105.01770769999985,None,a,1,0.505501699999968,105.01770769999985,None,,,,,,,,,,,,,22,001,2022_Oct_22_1809,Flanker,2021.2.0,239.2041200526173,
congruent-right.jpg,1,k,right_arrow.png,right_arrow.png,right_arrow.png,right_arrow.png,right_arrow.png,right_arrow.png,right_arrow.png,,,,,0,2,2,2,,,,,,,,,,,,,105.53499649999958,None,,,,,,,,,,,,,,,,,,,,,,,,,,,,,,106.54434429999992,None,106.54434429999992,None,106.54434429999992,None,106.54434429999992,None,106.54434429999992,None,106.54434429999992,None,106.54434429999992,None,k,1,0.4832579999997506,106.54434429999992,None,,,,,,,,,,,,,22,001,2022_Oct_22_1809,Flanker,2021.2.0,239.2041200526173,
congruent-left.jpg,1,a,left_arrow.png,left_arrow.png,left_arrow.png,left_arrow.png,left_arrow.png,left_arrow.png,left_arrow.png,,,,,0,3,3,0,,,,,,,,,,,,,107.04503599999998,None,,,,,,,,,,,,,,,,,,,,,,,,,,,,,,108.05431499999986,None,108.05431499999986,None,108.05431499999986,None,108.05431499999986,None,108.05431499999986,None,108.05431499999986,None,108.05431499999986,None,a,1,0.42928600000004735,108.05431499999986,None,,,,,,,,,,,,,22,001,2022_Oct_22_1809,Flanker,2021.2.0,239.2041200526173,
neutral right,0,k,neutral.png,neutral.png,neutral.png,right_arrow.png,neutral.png,neutral.png,neutral.png,,,,,0,4,4,5,,,,,,,,,,,,,108.49681429999964,None,,,,,,,,,,,,,,,,,,,,,,,,,,,,,,109.5100080999996,None,109.5100080999996,None,109.5100080999996,None,109.5100080999996,None,109.5100080999996,None,109.5100080999996,None,109.5100080999996,None,k,1,0.42978839999977936,109.5100080999996,None,,,,,,,,,,,,,22,001,2022_Oct_22_1809,Flanker,2021.2.0,239.2041200526173,
congruent-left.jpg,1,a,left_arrow.png,left_arrow.png,left_arrow.png,left_arrow.png,left_arrow.png,left_arrow.png,left_arrow.png,,,,,0,5,5,0,,,,,,,,,,,,,109.95254149999982,None,,,,,,,,,,,,,,,,,,,,,,,,,,,,,,110.96570559999964,None,110.96570559999964,None,110.96570559999964,None,110.96570559999964,None,110.96570559999964,None,110.96570559999964,None,110.96570559999964,None,a,1,0.3665971000000354,110.96570559999964,None,,,,,,,,,,,,,22,001,2022_Oct_22_1809,Flanker,2021.2.0,239.2041200526173,
neutral left,0,a,neutral.png,neutral.png,neutral.png,left_arrow.png,neutral.png,neutral.png,neutral.png,,,,,1,0,6,4,,,,,,,,,,,,,111.34943079999994,None,,,,,,,,,,,,,,,,,,,,,,,,,,,,,,112.3630132999997,None,112.3630132999997,None,112.3630132999997,None,112.3630132999997,None,112.3630132999997,None,112.3630132999997,None,112.3630132999997,None,a,1,0.4091689000001679,112.3630132999997,None,,,,,,,,,,,,,22,001,2022_Oct_22_1809,Flanker,2021.2.0,239.2041200526173,
congruent-right.jpg,1,k,right_arrow.png,right_arrow.png,right_arrow.png,right_arrow.png,right_arrow.png,right_arrow.png,right_arrow.png,,,,,1,1,7,2,,,,,,,,,,,,,112.78845329999967,None,,,,,,,,,,,,,,,,,,,,,,,,,,,,,,113.79785809999976,None,113.79785809999976,None,113.79785809999976,None,113.79785809999976,None,113.79785809999976,None,113.79785809999976,None,113.79785809999976,None,k,1,0.414575700000114,113.79785809999976,None,,,,,,,,,,,,,22,001,2022_Oct_22_1809,Flanker,2021.2.0,239.2041200526173,
neutral left,0,a,neutral.png,neutral.png,neutral.png,left_arrow.png,neutral.png,neutral.png,neutral.png,,,,,1,2,8,4,,,,,,,,,,,,,114.23167079999985,None,,,,,,,,,,,,,,,,,,,,,,,,,,,,,,115.24525529999983,None,115.24525529999983,None,115.24525529999983,None,115.24525529999983,None,115.24525529999983,None,115.24525529999983,None,115.24525529999983,None,a,1,0.3353165999997145,115.24525529999983,None,,,,,,,,,,,,,22,001,2022_Oct_22_1809,Flanker,2021.2.0,239.2041200526173,
neutral right,0,k,neutral.png,neutral.png,neutral.png,right_arrow.png,neutral.png,neutral.png,neutral.png,,,,,1,3,9,5,,,,,,,,,,,,,115.59567649999963,None,,,,,,,,,,,,,,,,,,,,,,,,,,,,,,116.60942909999994,None,116.60942909999994,None,116.60942909999994,None,116.60942909999994,None,116.60942909999994,None,116.60942909999994,None,116.60942909999994,None,k,1,0.33161939999990864,116.60942909999994,None,,,,,,,,,,,,,22,001,2022_Oct_22_1809,Flanker,2021.2.0,239.2041200526173,
congruent-right.jpg,1,k,right_arrow.png,right_arrow.png,right_arrow.png,right_arrow.png,right_arrow.png,right_arrow.png,right_arrow.png,,,,,1,4,10,2,,,,,,,,,,,,,116.95953449999979,None,,,,,,,,,,,,,,,,,,,,,,,,,,,,,,117.96896459999971,None,117.96896459999971,None,117.96896459999971,None,117.96896459999971,None,117.96896459999971,None,117.96896459999971,None,117.96896459999971,None,k,1,0.3960089000001972,117.96896459999971,None,,,,,,,,,,,,,22,001,2022_Oct_22_1809,Flanker,2021.2.0,239.2041200526173,
congruent-right.jpg,1,k,right_arrow.png,right_arrow.png,right_arrow.png,right_arrow.png,right_arrow.png,right_arrow.png,right_arrow.png,,,,,1,5,11,2,,,,,,,,,,,,,118.37770929999988,None,,,,,,,,,,,,,,,,,,,,,,,,,,,,,,119.39154479999979,None,119.39154479999979,None,119.39154479999979,None,119.39154479999979,None,119.39154479999979,None,119.39154479999979,None,119.39154479999979,None,k,1,0.36595059999990553,119.39154479999979,None,,,,,,,,,,,,,22,001,2022_Oct_22_1809,Flanker,2021.2.0,239.2041200526173,
incongruent-right.jpg,0,k,left_arrow.png,left_arrow.png,left_arrow.png,right_arrow.png,left_arrow.png,left_arrow.png,left_arrow.png,,,,,2,0,12,3,,,,,,,,,,,,,119.77522769999996,None,,,,,,,,,,,,,,,,,,,,,,,,,,,,,,120.78885189999983,None,120.78885189999983,None,120.78885189999983,None,120.78885189999983,None,120.78885189999983,None,120.78885189999983,None,120.78885189999983,None,k,1,0.5205089000000953,120.78885189999983,None,,,,,,,,,,,,,22,001,2022_Oct_22_1809,Flanker,2021.2.0,239.2041200526173,
congruent-left.jpg,1,a,left_arrow.png,left_arrow.png,left_arrow.png,left_arrow.png,left_arrow.png,left_arrow.png,left_arrow.png,,,,,2,1,13,0,,,,,,,,,,,,,121.32280849999961,None,,,,,,,,,,,,,,,,,,,,,,,,,,,,,,122.3320463,None,122.3320463,None,122.3320463,None,122.3320463,None,122.3320463,None,122.3320463,None,122.3320463,None,a,1,0.4255514999999832,122.3320463,None,,,,,,,,,,,,,22,001,2022_Oct_22_1809,Flanker,2021.2.0,239.2041200526173,
congruent-right.jpg,1,k,right_arrow.png,right_arrow.png,right_arrow.png,right_arrow.png,right_arrow.png,right_arrow.png,right_arrow.png,,,,,2,2,14,2,,,,,,,,,,,,,122.77428979999968,None,,,,,,,,,,,,,,,,,,,,,,,,,,,,,,123.78792229999999,None,123.78792229999999,None,123.78792229999999,None,123.78792229999999,None,123.78792229999999,None,123.78792229999999,None,123.78792229999999,None,k,1,0.3858890999999858,123.78792229999999,None,,,,,,,,,,,,,22,001,2022_Oct_22_1809,Flanker,2021.2.0,239.2041200526173,
congruent-left.jpg,1,a,left_arrow.png,left_arrow.png,left_arrow.png,left_arrow.png,left_arrow.png,left_arrow.png,left_arrow.png,,,,,2,3,15,0,,,,,,,,,,,,,124.18814629999997,None,,,,,,,,,,,,,,,,,,,,,,,,,,,,,,125.20180579999987,None,125.20180579999987,None,125.20180579999987,None,125.20180579999987,None,125.20180579999987,None,125.20180579999987,None,125.20180579999987,None,a,1,0.37214350000022023,125.20180579999987,None,,,,,,,,,,,,,22,001,2022_Oct_22_1809,Flanker,2021.2.0,239.2041200526173,
congruent-left.jpg,1,a,left_arrow.png,left_arrow.png,left_arrow.png,left_arrow.png,left_arrow.png,left_arrow.png,left_arrow.png,,,,,2,4,16,0,,,,,,,,,,,,,125.59372049999956,None,,,,,,,,,,,,,,,,,,,,,,,,,,,,,,126.6114693999998,None,126.6114693999998,None,126.6114693999998,None,126.6114693999998,None,126.6114693999998,None,126.6114693999998,None,126.6114693999998,None,a,1,0.37869099999988975,126.6114693999998,None,,,,,,,,,,,,,22,001,2022_Oct_22_1809,Flanker,2021.2.0,239.2041200526173,
neutral left,0,a,neutral.png,neutral.png,neutral.png,left_arrow.png,neutral.png,neutral.png,neutral.png,,,,,2,5,17,4,,,,,,,,,,,,,127.00361769999972,None,,,,,,,,,,,,,,,,,,,,,,,,,,,,,,128.0129565999996,None,128.0129565999996,None,128.0129565999996,None,128.0129565999996,None,128.0129565999996,None,128.0129565999996,None,128.0129565999996,None,a,1,0.3533751999998458,128.0129565999996,None,,,,,,,,,,,,,22,001,2022_Oct_22_1809,Flanker,2021.2.0,239.2041200526173,
incongruent-left.jpg,0,a,right_arrow.png,right_arrow.png,right_arrow.png,left_arrow.png,right_arrow.png,right_arrow.png,right_arrow.png,,,,,3,0,18,1,,,,,,,,,,,,,128.3800151999999,None,,,,,,,,,,,,,,,,,,,,,,,,,,,,,,129.39357659999996,None,129.39357659999996,None,129.39357659999996,None,129.39357659999996,None,129.39357659999996,None,129.39357659999996,None,129.39357659999996,None,a,1,0.3889331000000311,129.39357659999996,None,,,,,,,,,,,,,22,001,2022_Oct_22_1809,Flanker,2021.2.0,239.2041200526173,
neutral right,0,k,neutral.png,neutral.png,neutral.png,right_arrow.png,neutral.png,neutral.png,neutral.png,,,,,3,1,19,5,,,,,,,,,,,,,129.79400209999994,None,,,,,,,,,,,,,,,,,,,,,,,,,,,,,,130.8034207999999,None,130.8034207999999,None,130.8034207999999,None,130.8034207999999,None,130.8034207999999,None,130.8034207999999,None,130.8034207999999,None,k,1,0.3873284000001149,130.8034207999999,None,,,,,,,,,,,,,22,001,2022_Oct_22_1809,Flanker,2021.2.0,239.2041200526173,
incongruent-left.jpg,0,a,right_arrow.png,right_arrow.png,right_arrow.png,left_arrow.png,right_arrow.png,right_arrow.png,right_arrow.png,,,,,3,2,20,1,,,,,,,,,,,,,131.20391359999985,None,,,,,,,,,,,,,,,,,,,,,,,,,,,,,,132.2176387999998,None,132.2176387999998,None,132.2176387999998,None,132.2176387999998,None,132.2176387999998,None,132.2176387999998,None,132.2176387999998,None,a,1,0.48535880000008547,132.2176387999998,None,,,,,,,,,,,,,22,001,2022_Oct_22_1809,Flanker,2021.2.0,239.2041200526173,
incongruent-left.jpg,0,a,right_arrow.png,right_arrow.png,right_arrow.png,left_arrow.png,right_arrow.png,right_arrow.png,right_arrow.png,,,,,3,3,21,1,,,,,,,,,,,,,132.71792629999982,None,,,,,,,,,,,,,,,,,,,,,,,,,,,,,,133.7315222999996,None,133.7315222999996,None,133.7315222999996,None,133.7315222999996,None,133.7315222999996,None,133.7315222999996,None,133.7315222999996,None,a,1,0.4435837000000902,133.7315222999996,None,,,,,,,,,,,,,22,001,2022_Oct_22_1809,Flanker,2021.2.0,239.2041200526173,
congruent-right.jpg,1,k,right_arrow.png,right_arrow.png,right_arrow.png,right_arrow.png,right_arrow.png,right_arrow.png,right_arrow.png,,,,,3,4,22,2,,,,,,,,,,,,,134.19034359999978,None,,,,,,,,,,,,,,,,,,,,,,,,,,,,,,135.19928489999984,None,135.19928489999984,None,135.19928489999984,None,135.19928489999984,None,135.19928489999984,None,135.19928489999984,None,135.19928489999984,None,k,1,0.40820499999972526,135.19928489999984,None,,,,,,,,,,,,,22,001,2022_Oct_22_1809,Flanker,2021.2.0,239.2041200526173,
incongruent-right.jpg,0,k,left_arrow.png,left_arrow.png,left_arrow.png,right_arrow.png,left_arrow.png,left_arrow.png,left_arrow.png,,,,,3,5,23,3,,,,,,,,,,,,,135.62519209999982,None,,,,,,,,,,,,,,,,,,,,,,,,,,,,,,136.63478659999964,None,136.63478659999964,None,136.63478659999964,None,136.63478659999964,None,136.63478659999964,None,136.63478659999964,None,136.63478659999964,None,k,1,0.7807631000000583,136.63478659999964,None,,,,,,,,,,,,,22,001,2022_Oct_22_1809,Flanker,2021.2.0,239.2041200526173,
neutral right,0,k,neutral.png,neutral.png,neutral.png,right_arrow.png,neutral.png,neutral.png,neutral.png,,,,,4,0,24,5,,,,,,,,,,,,,137.42710039999974,None,,,,,,,,,,,,,,,,,,,,,,,,,,,,,,138.4406816999999,None,138.4406816999999,None,138.4406816999999,None,138.4406816999999,None,138.4406816999999,None,138.4406816999999,None,138.4406816999999,None,k,1,0.5030730999997104,138.4406816999999,None,,,,,,,,,,,,,22,001,2022_Oct_22_1809,Flanker,2021.2.0,239.2041200526173,
neutral left,0,a,neutral.png,neutral.png,neutral.png,left_arrow.png,neutral.png,neutral.png,neutral.png,,,,,4,1,25,4,,,,,,,,,,,,,138.9582891,None,,,,,,,,,,,,,,,,,,,,,,,,,,,,,,139.97163139999975,None,139.97163139999975,None,139.97163139999975,None,139.97163139999975,None,139.97163139999975,None,139.97163139999975,None,139.97163139999975,None,a,1,0.3723092000000179,139.97163139999975,None,,,,,,,,,,,,,22,001,2022_Oct_22_1809,Flanker,2021.2.0,239.2041200526173,
incongruent-right.jpg,0,k,left_arrow.png,left_arrow.png,left_arrow.png,right_arrow.png,left_arrow.png,left_arrow.png,left_arrow.png,,,,,4,2,26,3,,,,,,,,,,,,,140.35527839999986,None,,,,,,,,,,,,,,,,,,,,,,,,,,,,,,141.36878129999968,None,141.36878129999968,None,141.36878129999968,None,141.36878129999968,None,141.36878129999968,None,141.36878129999968,None,141.36878129999968,None,k,1,0.4874141000000236,141.36878129999968,None,,,,,,,,,,,,,22,001,2022_Oct_22_1809,Flanker,2021.2.0,239.2041200526173,
congruent-left.jpg,1,a,left_arrow.png,left_arrow.png,left_arrow.png,left_arrow.png,left_arrow.png,left_arrow.png,left_arrow.png,,,,,4,3,27,0,,,,,,,,,,,,,141.86963819999983,None,,,,,,,,,,,,,,,,,,,,,,,,,,,,,,142.88289429999986,None,142.88289429999986,None,142.88289429999986,None,142.88289429999986,None,142.88289429999986,None,142.88289429999986,None,142.88289429999986,None,a,1,0.38144880000027115,142.88289429999986,None,,,,,,,,,,,,,22,001,2022_Oct_22_1809,Flanker,2021.2.0,239.2041200526173,
incongruent-left.jpg,0,a,right_arrow.png,right_arrow.png,right_arrow.png,left_arrow.png,right_arrow.png,right_arrow.png,right_arrow.png,,,,,4,4,28,1,,,,,,,,,,,,,143.2835258,None,,,,,,,,,,,,,,,,,,,,,,,,,,,,,,144.29294869999967,None,144.29294869999967,None,144.29294869999967,None,144.29294869999967,None,144.29294869999967,None,144.29294869999967,None,144.29294869999967,None,a,1,0.45956539999997403,144.29294869999967,None,,,,,,,,,,,,,22,001,2022_Oct_22_1809,Flanker,2021.2.0,239.2041200526173,
incongruent-right.jpg,0,k,left_arrow.png,left_arrow.png,left_arrow.png,right_arrow.png,left_arrow.png,left_arrow.png,left_arrow.png,,,,,4,5,29,3,,,,,,,,,,,,,144.76828829999977,None,,,,,,,,,,,,,,,,,,,,,,,,,,,,,,145.7819542999996,None,145.7819542999996,None,145.7819542999996,None,145.7819542999996,None,145.7819542999996,None,145.7819542999996,None,145.7819542999996,None,a,0,0.4508136999997987,145.7819542999996,None,,,,,,,,,,,,,22,001,2022_Oct_22_1809,Flanker,2021.2.0,239.2041200526173,
neutral right,0,k,neutral.png,neutral.png,neutral.png,right_arrow.png,neutral.png,neutral.png,neutral.png,,,,,5,0,30,5,,,,,,,,,,,,,146.24897409999994,None,,,,,,,,,,,,,,,,,,,,,,,,,,,,,,147.2625012999997,None,147.2625012999997,None,147.2625012999997,None,147.2625012999997,None,147.2625012999997,None,147.2625012999997,None,147.2625012999997,None,k,1,0.4504471000000194,147.2625012999997,None,,,,,,,,,,,,,22,001,2022_Oct_22_1809,Flanker,2021.2.0,239.2041200526173,
congruent-right.jpg,1,k,right_arrow.png,right_arrow.png,right_arrow.png,right_arrow.png,right_arrow.png,right_arrow.png,right_arrow.png,,,,,5,1,31,2,,,,,,,,,,,,,147.72983849999991,None,,,,,,,,,,,,,,,,,,,,,,,,,,,,,,148.7391631999999,None,148.7391631999999,None,148.7391631999999,None,148.7391631999999,None,148.7391631999999,None,148.7391631999999,None,148.7391631999999,None,k,1,0.4139758000001166,148.7391631999999,None,,,,,,,,,,,,,22,001,2022_Oct_22_1809,Flanker,2021.2.0,239.2041200526173,
incongruent-right.jpg,0,k,left_arrow.png,left_arrow.png,left_arrow.png,right_arrow.png,left_arrow.png,left_arrow.png,left_arrow.png,,,,,5,2,32,3,,,,,,,,,,,,,149.16459299999997,None,,,,,,,,,,,,,,,,,,,,,,,,,,,,,,150.1782561,None,150.1782561,None,150.1782561,None,150.1782561,None,150.1782561,None,150.1782561,None,150.1782561,None,k,1,0.5271312999998372,150.1782561,None,,,,,,,,,,,,,22,001,2022_Oct_22_1809,Flanker,2021.2.0,239.2041200526173,
neutral left,0,a,neutral.png,neutral.png,neutral.png,left_arrow.png,neutral.png,neutral.png,neutral.png,,,,,5,3,33,4,,,,,,,,,,,,,150.72035609999966,None,,,,,,,,,,,,,,,,,,,,,,,,,,,,,,151.73414009999988,None,151.73414009999988,None,151.73414009999988,None,151.73414009999988,None,151.73414009999988,None,151.73414009999988,None,151.73414009999988,None,a,1,0.4756902999997692,151.73414009999988,None,,,,,,,,,,,,,22,001,2022_Oct_22_1809,Flanker,2021.2.0,239.2041200526173,
incongruent-left.jpg,0,a,right_arrow.png,right_arrow.png,right_arrow.png,left_arrow.png,right_arrow.png,right_arrow.png,right_arrow.png,,,,,5,4,34,1,,,,,,,,,,,,,152.2263825,None,,,,,,,,,,,,,,,,,,,,,,,,,,,,,,153.23589079999965,None,153.23589079999965,None,153.23589079999965,None,153.23589079999965,None,153.23589079999965,None,153.23589079999965,None,153.23589079999965,None,a,1,0.47811440000032235,153.23589079999965,None,,,,,,,,,,,,,22,001,2022_Oct_22_1809,Flanker,2021.2.0,239.2041200526173,
neutral left,0,a,neutral.png,neutral.png,neutral.png,left_arrow.png,neutral.png,neutral.png,neutral.png,,,,,5,5,35,4,,,,,,,,,,,,,153.72794349999958,None,,,,,,,,,,,,,,,,,,,,,,,,,,,,,,154.737255,None,154.737255,None,154.737255,None,154.737255,None,154.737255,None,154.737255,None,154.737255,None,a,1,0.38496570000006614,154.737255,None,,,,,,,,,,,,,22,001,2022_Oct_22_1809,Flanker,2021.2.0,239.2041200526173,
neutral left,0,a,neutral.png,neutral.png,neutral.png,left_arrow.png,neutral.png,neutral.png,neutral.png,,,,,6,0,36,4,,,,,,,,,,,,,155.13779459999978,None,,,,,,,,,,,,,,,,,,,,,,,,,,,,,,156.14697739999974,None,156.14697739999974,None,156.14697739999974,None,156.14697739999974,None,156.14697739999974,None,156.14697739999974,None,156.14697739999974,None,a,1,0.3591644999996788,156.14697739999974,None,,,,,,,,,,,,,22,001,2022_Oct_22_1809,Flanker,2021.2.0,239.2041200526173,
neutral right,0,k,neutral.png,neutral.png,neutral.png,right_arrow.png,neutral.png,neutral.png,neutral.png,,,,,6,1,37,5,,,,,,,,,,,,,156.522422,None,,,,,,,,,,,,,,,,,,,,,,,,,,,,,,157.53194099999973,None,157.53194099999973,None,157.53194099999973,None,157.53194099999973,None,157.53194099999973,None,157.53194099999973,None,157.53194099999973,None,k,1,0.5184180999999626,157.53194099999973,None,,,,,,,,,,,,,22,001,2022_Oct_22_1809,Flanker,2021.2.0,239.2041200526173,
neutral left,0,a,neutral.png,neutral.png,neutral.png,left_arrow.png,neutral.png,neutral.png,neutral.png,,,,,6,2,38,4,,,,,,,,,,,,,158.06566969999994,None,,,,,,,,,,,,,,,,,,,,,,,,,,,,,,159.0752023,None,159.0752023,None,159.0752023,None,159.0752023,None,159.0752023,None,159.0752023,None,159.0752023,None,a,1,0.44735510000009526,159.0752023,None,,,,,,,,,,,,,22,001,2022_Oct_22_1809,Flanker,2021.2.0,239.2041200526173,
congruent-left.jpg,1,a,left_arrow.png,left_arrow.png,left_arrow.png,left_arrow.png,left_arrow.png,left_arrow.png,left_arrow.png,,,,,6,3,39,0,,,,,,,,,,,,,159.53387379999958,None,,,,,,,,,,,,,,,,,,,,,,,,,,,,,,160.54762219999975,None,160.54762219999975,None,160.54762219999975,None,160.54762219999975,None,160.54762219999975,None,160.54762219999975,None,160.54762219999975,None,a,1,0.46313059999965844,160.54762219999975,None,,,,,,,,,,,,,22,001,2022_Oct_22_1809,Flanker,2021.2.0,239.2041200526173,
congruent-left.jpg,1,a,left_arrow.png,left_arrow.png,left_arrow.png,left_arrow.png,left_arrow.png,left_arrow.png,left_arrow.png,,,,,6,4,40,0,,,,,,,,,,,,,161.02295649999996,None,,,,,,,,,,,,,,,,,,,,,,,,,,,,,,162.03678349999973,None,162.03678349999973,None,162.03678349999973,None,162.03678349999973,None,162.03678349999973,None,162.03678349999973,None,162.03678349999973,None,a,1,0.41417589999991833,162.03678349999973,None,,,,,,,,,,,,,22,001,2022_Oct_22_1809,Flanker,2021.2.0,239.2041200526173,
neutral right,0,k,neutral.png,neutral.png,neutral.png,right_arrow.png,neutral.png,neutral.png,neutral.png,,,,,6,5,41,5,,,,,,,,,,,,,162.47058979999974,None,,,,,,,,,,,,,,,,,,,,,,,,,,,,,,163.47972749999963,None,163.47972749999963,None,163.47972749999963,None,163.47972749999963,None,163.47972749999963,None,163.47972749999963,None,163.47972749999963,None,k,1,0.6278373999998621,163.47972749999963,None,,,,,,,,,,,,,22,001,2022_Oct_22_1809,Flanker,2021.2.0,239.2041200526173,
congruent-right.jpg,1,k,right_arrow.png,right_arrow.png,right_arrow.png,right_arrow.png,right_arrow.png,right_arrow.png,right_arrow.png,,,,,7,0,42,2,,,,,,,,,,,,,164.12206199999991,None,,,,,,,,,,,,,,,,,,,,,,,,,,,,,,165.13565619999963,None,165.13565619999963,None,165.13565619999963,None,165.13565619999963,None,165.13565619999963,None,165.13565619999963,None,165.13565619999963,None,k,1,0.4037342000001445,165.13565619999963,None,,,,,,,,,,,,,22,001,2022_Oct_22_1809,Flanker,2021.2.0,239.2041200526173,
incongruent-right.jpg,0,k,left_arrow.png,left_arrow.png,left_arrow.png,right_arrow.png,left_arrow.png,left_arrow.png,left_arrow.png,,,,,7,1,43,3,,,,,,,,,,,,,165.55275519999986,None,,,,,,,,,,,,,,,,,,,,,,,,,,,,,,166.56640339999967,None,166.56640339999967,None,166.56640339999967,None,166.56640339999967,None,166.56640339999967,None,166.56640339999967,None,166.56640339999967,None,k,1,0.5333897000000434,166.56640339999967,None,,,,,,,,,,,,,22,001,2022_Oct_22_1809,Flanker,2021.2.0,239.2041200526173,
incongruent-left.jpg,0,a,right_arrow.png,right_arrow.png,right_arrow.png,left_arrow.png,right_arrow.png,right_arrow.png,right_arrow.png,,,,,7,2,44,1,,,,,,,,,,,,,167.1171334999999,None,,,,,,,,,,,,,,,,,,,,,,,,,,,,,,168.13067479999972,None,168.13067479999972,None,168.13067479999972,None,168.13067479999972,None,168.13067479999972,None,168.13067479999972,None,168.13067479999972,None,a,1,0.5291378000001714,168.13067479999972,None,,,,,,,,,,,,,22,001,2022_Oct_22_1809,Flanker,2021.2.0,239.2041200526173,
incongruent-right.jpg,0,k,left_arrow.png,left_arrow.png,left_arrow.png,right_arrow.png,left_arrow.png,left_arrow.png,left_arrow.png,,,,,7,3,45,3,,,,,,,,,,,,,168.67271869999968,None,,,,,,,,,,,,,,,,,,,,,,,,,,,,,,169.68225729999995,None,169.68225729999995,None,169.68225729999995,None,169.68225729999995,None,169.68225729999995,None,169.68225729999995,None,169.68225729999995,None,k,1,0.5137270000000171,169.68225729999995,None,,,,,,,,,,,,,22,001,2022_Oct_22_1809,Flanker,2021.2.0,239.2041200526173,
incongruent-left.jpg,0,a,right_arrow.png,right_arrow.png,right_arrow.png,left_arrow.png,right_arrow.png,right_arrow.png,right_arrow.png,,,,,7,4,46,1,,,,,,,,,,,,,170.20773229999986,None,,,,,,,,,,,,,,,,,,,,,,,,,,,,,,171.21717739999985,None,171.21717739999985,None,171.21717739999985,None,171.21717739999985,None,171.21717739999985,None,171.21717739999985,None,171.21717739999985,None,a,1,0.39504710000028354,171.21717739999985,None,,,,,,,,,,,,,22,001,2022_Oct_22_1809,Flanker,2021.2.0,239.2041200526173,
incongruent-right.jpg,0,k,left_arrow.png,left_arrow.png,left_arrow.png,right_arrow.png,left_arrow.png,left_arrow.png,left_arrow.png,,,,,7,5,47,3,,,,,,,,,,,,,171.6259084999997,None,,,,,,,,,,,,,,,,,,,,,,,,,,,,,,172.63959129999967,None,172.63959129999967,None,172.63959129999967,None,172.63959129999967,None,172.63959129999967,None,172.63959129999967,None,172.63959129999967,None,k,1,0.46078609999995024,172.63959129999967,None,,,,,,,,,,,,,22,001,2022_Oct_22_1809,Flanker,2021.2.0,239.2041200526173,
,,,,,,,,,,,,,,,,,,,,,,,,,,,,,,,,,,,,,,,,,,,,,,,,,,,,,,,,,,,,,,,,,,,,,,,,,,,,,,,,173.1275341999999,None,space,23.896085800000037,173.1275341999999,None,,,,,,,22,001,2022_Oct_22_1809,Flanker,2021.2.0,239.2041200526173,
incongruent-right.jpg,0,k,left_arrow.png,left_arrow.png,left_arrow.png,right_arrow.png,left_arrow.png,left_arrow.png,left_arrow.png,,,,,,,,,0,0,0,3,,,,,,,,,197.04483469999968,None,,,,,,,,,,,,,,,,,,,,,,,,,,,,,,198.05386669999962,None,198.05386669999962,None,198.05386669999962,None,198.05386669999962,None,198.05386669999962,None,198.05386669999962,None,198.05386669999962,None,k,1,1.114126199999646,198.05386669999962,None,,,,,,,,,,,,,22,001,2022_Oct_22_1809,Flanker,2021.2.0,239.2041200526173,
incongruent-right.jpg,0,k,left_arrow.png,left_arrow.png,left_arrow.png,right_arrow.png,left_arrow.png,left_arrow.png,left_arrow.png,,,,,,,,,0,1,1,3,,,,,,,,,199.18032829999993,None,,,,,,,,,,,,,,,,,,,,,,,,,,,,,,200.19390199999998,None,200.19390199999998,None,200.19390199999998,None,200.19390199999998,None,200.19390199999998,None,200.19390199999998,None,200.19390199999998,None,k,1,0.4862060999998903,200.19390199999998,None,,,,,,,,,,,,,22,001,2022_Oct_22_1809,Flanker,2021.2.0,239.2041200526173,
neutral right,0,k,neutral.png,neutral.png,neutral.png,right_arrow.png,neutral.png,neutral.png,neutral.png,,,,,,,,,0,2,2,5,,,,,,,,,200.69444669999984,None,,,,,,,,,,,,,,,,,,,,,,,,,,,,,,201.7038407,None,201.7038407,None,201.7038407,None,201.7038407,None,201.7038407,None,201.7038407,None,201.7038407,None,k,1,0.37648300000000745,201.7038407,None,,,,,,,,,,,,,22,001,2022_Oct_22_1809,Flanker,2021.2.0,239.2041200526173,
incongruent-right.jpg,0,k,left_arrow.png,left_arrow.png,left_arrow.png,right_arrow.png,left_arrow.png,left_arrow.png,left_arrow.png,,,,,,,,,0,3,3,3,,,,,,,,,202.0959886999999,None,,,,,,,,,,,,,,,,,,,,,,,,,,,,,,203.1053182999999,None,203.1053182999999,None,203.1053182999999,None,203.1053182999999,None,203.1053182999999,None,203.1053182999999,None,203.1053182999999,None,k,1,0.519238100000166,203.1053182999999,None,,,,,,,,,,,,,22,001,2022_Oct_22_1809,Flanker,2021.2.0,239.2041200526173,
incongruent-left.jpg,0,a,right_arrow.png,right_arrow.png,right_arrow.png,left_arrow.png,right_arrow.png,right_arrow.png,right_arrow.png,,,,,,,,,0,4,4,1,,,,,,,,,203.63912189999974,None,,,,,,,,,,,,,,,,,,,,,,,,,,,,,,204.64858249999997,None,204.64858249999997,None,204.64858249999997,None,204.64858249999997,None,204.64858249999997,None,204.64858249999997,None,204.64858249999997,None,a,1,0.47216270000035365,204.64858249999997,None,,,,,,,,,,,,,22,001,2022_Oct_22_1809,Flanker,2021.2.0,239.2041200526173,
neutral right,0,k,neutral.png,neutral.png,neutral.png,right_arrow.png,neutral.png,neutral.png,neutral.png,,,,,,,,,0,5,5,5,,,,,,,,,205.13228649999974,None,,,,,,,,,,,,,,,,,,,,,,,,,,,,,,206.1418675,None,206.1418675,None,206.1418675,None,206.1418675,None,206.1418675,None,206.1418675,None,206.1418675,None,k,1,0.643337800000154,206.1418675,None,,,,,,,,,,,,,22,001,2022_Oct_22_1809,Flanker,2021.2.0,239.2041200526173,
incongruent-left.jpg,0,a,right_arrow.png,right_arrow.png,right_arrow.png,left_arrow.png,right_arrow.png,right_arrow.png,right_arrow.png,,,,,,,,,1,0,6,1,,,,,,,,,206.8009348999999,None,,,,,,,,,,,,,,,,,,,,,,,,,,,,,,207.8102902999999,None,207.8102902999999,None,207.8102902999999,None,207.8102902999999,None,207.8102902999999,None,207.8102902999999,None,207.8102902999999,None,a,1,0.4948984000002383,207.8102902999999,None,,,,,,,,,,,,,22,001,2022_Oct_22_1809,Flanker,2021.2.0,239.2041200526173,
neutral left,0,a,neutral.png,neutral.png,neutral.png,left_arrow.png,neutral.png,neutral.png,neutral.png,,,,,,,,,1,1,7,4,,,,,,,,,208.31918309999992,None,,,,,,,,,,,,,,,,,,,,,,,,,,,,,,209.32858309999983,None,209.32858309999983,None,209.32858309999983,None,209.32858309999983,None,209.32858309999983,None,209.32858309999983,None,209.32858309999983,None,a,1,0.38479069999993953,209.32858309999983,None,,,,,,,,,,,,,22,001,2022_Oct_22_1809,Flanker,2021.2.0,239.2041200526173,
incongruent-left.jpg,0,a,right_arrow.png,right_arrow.png,right_arrow.png,left_arrow.png,right_arrow.png,right_arrow.png,right_arrow.png,,,,,,,,,1,2,8,1,,,,,,,,,209.7290223,None,,,,,,,,,,,,,,,,,,,,,,,,,,,,,,210.7467432999997,None,210.7467432999997,None,210.7467432999997,None,210.7467432999997,None,210.7467432999997,None,210.7467432999997,None,210.7467432999997,None,a,1,0.4871984999999768,210.7467432999997,None,,,,,,,,,,,,,22,001,2022_Oct_22_1809,Flanker,2021.2.0,239.2041200526173,
incongruent-left.jpg,0,a,right_arrow.png,right_arrow.png,right_arrow.png,left_arrow.png,right_arrow.png,right_arrow.png,right_arrow.png,,,,,,,,,1,3,9,1,,,,,,,,,211.24731619999966,None,,,,,,,,,,,,,,,,,,,,,,,,,,,,,,212.25642889999972,None,212.25642889999972,None,212.25642889999972,None,212.25642889999972,None,212.25642889999972,None,212.25642889999972,None,212.25642889999972,None,a,1,0.48936189999994895,212.25642889999972,None,,,,,,,,,,,,,22,001,2022_Oct_22_1809,Flanker,2021.2.0,239.2041200526173,
congruent-right.jpg,1,k,right_arrow.png,right_arrow.png,right_arrow.png,right_arrow.png,right_arrow.png,right_arrow.png,right_arrow.png,,,,,,,,,1,4,10,2,,,,,,,,,212.7573841999997,None,,,,,,,,,,,,,,,,,,,,,,,,,,,,,,213.7666279,None,213.7666279,None,213.7666279,None,213.7666279,None,213.7666279,None,213.7666279,None,213.7666279,None,k,1,0.4676226999999926,213.7666279,None,,,,,,,,,,,,,22,001,2022_Oct_22_1809,Flanker,2021.2.0,239.2041200526173,
incongruent-right.jpg,0,k,left_arrow.png,left_arrow.png,left_arrow.png,right_arrow.png,left_arrow.png,left_arrow.png,left_arrow.png,,,,,,,,,1,5,11,3,,,,,,,,,214.25045969999974,None,,,,,,,,,,,,,,,,,,,,,,,,,,,,,,215.2640448999996,None,215.2640448999996,None,215.2640448999996,None,215.2640448999996,None,215.2640448999996,None,215.2640448999996,None,215.2640448999996,None,k,1,0.4423837999997886,215.2640448999996,None,,,,,,,,,,,,,22,001,2022_Oct_22_1809,Flanker,2021.2.0,239.2041200526173,
incongruent-left.jpg,0,a,right_arrow.png,right_arrow.png,right_arrow.png,left_arrow.png,right_arrow.png,right_arrow.png,right_arrow.png,,,,,,,,,2,0,12,1,,,,,,,,,215.7229113999997,None,,,,,,,,,,,,,,,,,,,,,,,,,,,,,,216.7278293999998,None,216.7278293999998,None,216.7278293999998,None,216.7278293999998,None,216.7278293999998,None,216.7278293999998,None,216.7278293999998,None,a,1,0.43467629999986457,216.7278293999998,None,,,,,,,,,,,,,22,001,2022_Oct_22_1809,Flanker,2021.2.0,239.2041200526173,
neutral left,0,a,neutral.png,neutral.png,neutral.png,left_arrow.png,neutral.png,neutral.png,neutral.png,,,,,,,,,2,1,13,4,,,,,,,,,217.17867289999958,None,,,,,,,,,,,,,,,,,,,,,,,,,,,,,,218.18774069999972,None,218.18774069999972,None,218.18774069999972,None,218.18774069999972,None,218.18774069999972,None,218.18774069999972,None,218.18774069999972,None,a,1,0.6228574000001572,218.18774069999972,None,,,,,,,,,,,,,22,001,2022_Oct_22_1809,Flanker,2021.2.0,239.2041200526173,
neutral left,0,a,neutral.png,neutral.png,neutral.png,left_arrow.png,neutral.png,neutral.png,neutral.png,,,,,,,,,2,2,14,4,,,,,,,,,218.8303407999997,None,,,,,,,,,,,,,,,,,,,,,,,,,,,,,,219.84390689999964,None,219.84390689999964,None,219.84390689999964,None,219.84390689999964,None,219.84390689999964,None,219.84390689999964,None,219.84390689999964,None,a,1,0.3911806000000979,219.84390689999964,None,,,,,,,,,,,,,22,001,2022_Oct_22_1809,Flanker,2021.2.0,239.2041200526173,
incongruent-left.jpg,0,a,right_arrow.png,right_arrow.png,right_arrow.png,left_arrow.png,right_arrow.png,right_arrow.png,right_arrow.png,,,,,,,,,2,3,15,1,,,,,,,,,220.25273489999972,None,,,,,,,,,,,,,,,,,,,,,,,,,,,,,,221.26192139999966,None,221.26192139999966,None,221.26192139999966,None,221.26192139999966,None,221.26192139999966,None,221.26192139999966,None,221.26192139999966,None,a,1,0.42940790000011475,221.26192139999966,None,,,,,,,,,,,,,22,001,2022_Oct_22_1809,Flanker,2021.2.0,239.2041200526173,
incongruent-right.jpg,0,k,left_arrow.png,left_arrow.png,left_arrow.png,right_arrow.png,left_arrow.png,left_arrow.png,left_arrow.png,,,,,,,,,2,4,16,3,,,,,,,,,221.7042065999999,None,,,,,,,,,,,,,,,,,,,,,,,,,,,,,,222.71352079999997,None,222.71352079999997,None,222.71352079999997,None,222.71352079999997,None,222.71352079999997,None,222.71352079999997,None,222.71352079999997,None,k,1,0.4418706999999813,222.71352079999997,None,,,,,,,,,,,,,22,001,2022_Oct_22_1809,Flanker,2021.2.0,239.2041200526173,
congruent-left.jpg,1,a,left_arrow.png,left_arrow.png,left_arrow.png,left_arrow.png,left_arrow.png,left_arrow.png,left_arrow.png,,,,,,,,,2,5,17,0,,,,,,,,,223.17250739999963,None,,,,,,,,,,,,,,,,,,,,,,,,,,,,,,224.18590779999977,None,224.18590779999977,None,224.18590779999977,None,224.18590779999977,None,224.18590779999977,None,224.18590779999977,None,224.18590779999977,None,a,1,0.4177635000000919,224.18590779999977,None,,,,,,,,,,,,,22,001,2022_Oct_22_1809,Flanker,2021.2.0,239.2041200526173,
congruent-right.jpg,1,k,right_arrow.png,right_arrow.png,right_arrow.png,right_arrow.png,right_arrow.png,right_arrow.png,right_arrow.png,,,,,,,,,3,0,18,2,,,,,,,,,224.61981719999994,None,,,,,,,,,,,,,,,,,,,,,,,,,,,,,,225.6291059,None,225.6291059,None,225.6291059,None,225.6291059,None,225.6291059,None,225.6291059,None,225.6291059,None,k,1,0.44646860000011657,225.6291059,None,,,,,,,,,,,,,22,001,2022_Oct_22_1809,Flanker,2021.2.0,239.2041200526173,
neutral right,0,k,neutral.png,neutral.png,neutral.png,right_arrow.png,neutral.png,neutral.png,neutral.png,,,,,,,,,3,1,19,5,,,,,,,,,226.08804369999962,None,,,,,,,,,,,,,,,,,,,,,,,,,,,,,,227.1014897,None,227.1014897,None,227.1014897,None,227.1014897,None,227.1014897,None,227.1014897,None,227.1014897,None,k,1,0.3824515999999676,227.1014897,None,,,,,,,,,,,,,22,001,2022_Oct_22_1809,Flanker,2021.2.0,239.2041200526173,
congruent-left.jpg,1,a,left_arrow.png,left_arrow.png,left_arrow.png,left_arrow.png,left_arrow.png,left_arrow.png,left_arrow.png,,,,,,,,,3,2,20,0,,,,,,,,,227.5017656,None,,,,,,,,,,,,,,,,,,,,,,,,,,,,,,228.5154897999996,None,228.5154897999996,None,228.5154897999996,None,228.5154897999996,None,228.5154897999996,None,228.5154897999996,None,228.5154897999996,None,a,1,0.39263309999978446,228.5154897999996,None,,,,,,,,,,,,,22,001,2022_Oct_22_1809,Flanker,2021.2.0,239.2041200526173,
neutral left,0,a,neutral.png,neutral.png,neutral.png,left_arrow.png,neutral.png,neutral.png,neutral.png,,,,,,,,,3,3,21,4,,,,,,,,,228.92436139999973,None,,,,,,,,,,,,,,,,,,,,,,,,,,,,,,229.93784289999985,None,229.93784289999985,None,229.93784289999985,None,229.93784289999985,None,229.93784289999985,None,229.93784289999985,None,229.93784289999985,None,a,1,0.37841119999984585,229.93784289999985,None,,,,,,,,,,,,,22,001,2022_Oct_22_1809,Flanker,2021.2.0,239.2041200526173,
neutral right,0,k,neutral.png,neutral.png,neutral.png,right_arrow.png,neutral.png,neutral.png,neutral.png,,,,,,,,,3,4,22,5,,,,,,,,,230.32998759999964,None,,,,,,,,,,,,,,,,,,,,,,,,,,,,,,231.33930389999978,None,231.33930389999978,None,231.33930389999978,None,231.33930389999978,None,231.33930389999978,None,231.33930389999978,None,231.33930389999978,None,k,1,0.6810638999995717,231.33930389999978,None,,,,,,,,,,,,,22,001,2022_Oct_22_1809,Flanker,2021.2.0,239.2041200526173,
neutral left,0,a,neutral.png,neutral.png,neutral.png,left_arrow.png,neutral.png,neutral.png,neutral.png,,,,,,,,,3,5,23,4,,,,,,,,,232.03159079999978,None,,,,,,,,,,,,,,,,,,,,,,,,,,,,,,233.03678359999958,None,233.03678359999958,None,233.03678359999958,None,233.03678359999958,None,233.03678359999958,None,233.03678359999958,None,233.03678359999958,None,a,1,0.44781060000013895,233.03678359999958,None,,,,,,,,,,,,,22,001,2022_Oct_22_1809,Flanker,2021.2.0,239.2041200526173,
neutral right,0,k,neutral.png,neutral.png,neutral.png,right_arrow.png,neutral.png,neutral.png,neutral.png,,,,,,,,,4,0,24,5,,,,,,,,,233.4956474999999,None,,,,,,,,,,,,,,,,,,,,,,,,,,,,,,234.5050073999996,None,234.5050073999996,None,234.5050073999996,None,234.5050073999996,None,234.5050073999996,None,234.5050073999996,None,234.5050073999996,None,k,1,0.37178990000029444,234.5050073999996,None,,,,,,,,,,,,,22,001,2022_Oct_22_1809,Flanker,2021.2.0,239.2041200526173,
incongruent-left.jpg,0,a,right_arrow.png,right_arrow.png,right_arrow.png,left_arrow.png,right_arrow.png,right_arrow.png,right_arrow.png,,,,,,,,,4,1,25,1,,,,,,,,,234.8890578999999,None,,,,,,,,,,,,,,,,,,,,,,,,,,,,,,235.89818309999964,None,235.89818309999964,None,235.89818309999964,None,235.89818309999964,None,235.89818309999964,None,235.89818309999964,None,235.89818309999964,None,a,1,0.4587701999998899,235.89818309999964,None,,,,,,,,,,,,,22,001,2022_Oct_22_1809,Flanker,2021.2.0,239.2041200526173,
incongruent-right.jpg,0,k,left_arrow.png,left_arrow.png,left_arrow.png,right_arrow.png,left_arrow.png,left_arrow.png,left_arrow.png,,,,,,,,,4,2,26,3,,,,,,,,,236.37368669999978,None,,,,,,,,,,,,,,,,,,,,,,,,,,,,,,237.3873211,None,237.3873211,None,237.3873211,None,237.3873211,None,237.3873211,None,237.3873211,None,237.3873211,None,k,1,0.49785830000018905,237.3873211,None,,,,,,,,,,,,,22,001,2022_Oct_22_1809,Flanker,2021.2.0,239.2041200526173,
neutral left,0,a,neutral.png,neutral.png,neutral.png,left_arrow.png,neutral.png,neutral.png,neutral.png,,,,,,,,,4,3,27,4,,,,,,,,,237.90468509999982,None,,,,,,,,,,,,,,,,,,,,,,,,,,,,,,238.91810099999975,None,238.91810099999975,None,238.91810099999975,None,238.91810099999975,None,238.91810099999975,None,238.91810099999975,None,238.91810099999975,None,a,1,0.423253499999646,238.91810099999975,None,,,,,,,,,,,,,22,001,2022_Oct_22_1809,Flanker,2021.2.0,239.2041200526173,
congruent-left.jpg,1,a,left_arrow.png,left_arrow.png,left_arrow.png,left_arrow.png,left_arrow.png,left_arrow.png,left_arrow.png,,,,,,,,,4,4,28,0,,,,,,,,,239.36016309999968,None,,,,,,,,,,,,,,,,,,,,,,,,,,,,,,240.3738927999998,None,240.3738927999998,None,240.3738927999998,None,240.3738927999998,None,240.3738927999998,None,240.3738927999998,None,240.3738927999998,None,a,1,0.40784270000040124,240.3738927999998,None,,,,,,,,,,,,,22,001,2022_Oct_22_1809,Flanker,2021.2.0,239.2041200526173,
incongruent-right.jpg,0,k,left_arrow.png,left_arrow.png,left_arrow.png,right_arrow.png,left_arrow.png,left_arrow.png,left_arrow.png,,,,,,,,,4,5,29,3,,,,,,,,,240.79919849999987,None,,,,,,,,,,,,,,,,,,,,,,,,,,,,,,241.81709359999968,None,241.81709359999968,None,241.81709359999968,None,241.81709359999968,None,241.81709359999968,None,241.81709359999968,None,241.81709359999968,None,k,1,0.6849581000001308,241.81709359999968,None,,,,,,,,,,,,,22,001,2022_Oct_22_1809,Flanker,2021.2.0,239.2041200526173,
neutral left,0,a,neutral.png,neutral.png,neutral.png,left_arrow.png,neutral.png,neutral.png,neutral.png,,,,,,,,,5,0,30,4,,,,,,,,,242.5179575999996,None,,,,,,,,,,,,,,,,,,,,,,,,,,,,,,243.53142389999994,None,243.53142389999994,None,243.53142389999994,None,243.53142389999994,None,243.53142389999994,None,243.53142389999994,None,243.53142389999994,None,a,1,0.41887490000044636,243.53142389999994,None,,,,,,,,,,,,,22,001,2022_Oct_22_1809,Flanker,2021.2.0,239.2041200526173,
congruent-right.jpg,1,k,right_arrow.png,right_arrow.png,right_arrow.png,right_arrow.png,right_arrow.png,right_arrow.png,right_arrow.png,,,,,,,,,5,1,31,2,,,,,,,,,243.9653973999998,None,,,,,,,,,,,,,,,,,,,,,,,,,,,,,,244.9747371999997,None,244.9747371999997,None,244.9747371999997,None,244.9747371999997,None,244.9747371999997,None,244.9747371999997,None,244.9747371999997,None,k,1,0.6474809999999707,244.9747371999997,None,,,,,,,,,,,,,22,001,2022_Oct_22_1809,Flanker,2021.2.0,239.2041200526173,
incongruent-left.jpg,0,a,right_arrow.png,right_arrow.png,right_arrow.png,left_arrow.png,right_arrow.png,right_arrow.png,right_arrow.png,,,,,,,,,5,2,32,1,,,,,,,,,245.63376219999964,None,,,,,,,,,,,,,,,,,,,,,,,,,,,,,,246.64721819999977,None,246.64721819999977,None,246.64721819999977,None,246.64721819999977,None,246.64721819999977,None,246.64721819999977,None,246.64721819999977,None,a,1,0.41547069999978703,246.64721819999977,None,,,,,,,,,,,,,22,001,2022_Oct_22_1809,Flanker,2021.2.0,239.2041200526173,
congruent-left.jpg,1,a,left_arrow.png,left_arrow.png,left_arrow.png,left_arrow.png,left_arrow.png,left_arrow.png,left_arrow.png,,,,,,,,,5,3,33,0,,,,,,,,,247.08088359999965,None,,,,,,,,,,,,,,,,,,,,,,,,,,,,,,248.09445419999975,None,248.09445419999975,None,248.09445419999975,None,248.09445419999975,None,248.09445419999975,None,248.09445419999975,None,248.09445419999975,None,a,1,0.37645659999998315,248.09445419999975,None,,,,,,,,,,,,,22,001,2022_Oct_22_1809,Flanker,2021.2.0,239.2041200526173,
congruent-left.jpg,1,a,left_arrow.png,left_arrow.png,left_arrow.png,left_arrow.png,left_arrow.png,left_arrow.png,left_arrow.png,,,,,,,,,5,4,34,0,,,,,,,,,248.48669299999983,None,,,,,,,,,,,,,,,,,,,,,,,,,,,,,,249.5002639999998,None,249.5002639999998,None,249.5002639999998,None,249.5002639999998,None,249.5002639999998,None,249.5002639999998,None,249.5002639999998,None,a,1,0.4588451999998142,249.5002639999998,None,,,,,,,,,,,,,22,001,2022_Oct_22_1809,Flanker,2021.2.0,239.2041200526173,
congruent-left.jpg,1,a,left_arrow.png,left_arrow.png,left_arrow.png,left_arrow.png,left_arrow.png,left_arrow.png,left_arrow.png,,,,,,,,,5,5,35,0,,,,,,,,,249.97588449999967,None,,,,,,,,,,,,,,,,,,,,,,,,,,,,,,250.9852148,None,250.9852148,None,250.9852148,None,250.9852148,None,250.9852148,None,250.9852148,None,250.9852148,None,a,1,0.40578969999978654,250.9852148,None,,,,,,,,,,,,,22,001,2022_Oct_22_1809,Flanker,2021.2.0,239.2041200526173,
neutral right,0,k,neutral.png,neutral.png,neutral.png,right_arrow.png,neutral.png,neutral.png,neutral.png,,,,,,,,,6,0,36,5,,,,,,,,,251.4022146999996,None,,,,,,,,,,,,,,,,,,,,,,,,,,,,,,252.4158682999996,None,252.4158682999996,None,252.4158682999996,None,252.4158682999996,None,252.4158682999996,None,252.4158682999996,None,252.4158682999996,None,k,1,0.4237153999997645,252.4158682999996,None,,,,,,,,,,,,,22,001,2022_Oct_22_1809,Flanker,2021.2.0,239.2041200526173,
congruent-right.jpg,1,k,right_arrow.png,right_arrow.png,right_arrow.png,right_arrow.png,right_arrow.png,right_arrow.png,right_arrow.png,,,,,,,,,6,1,37,2,,,,,,,,,252.85780709999972,None,,,,,,,,,,,,,,,,,,,,,,,,,,,,,,253.87172959999998,None,253.87172959999998,None,253.87172959999998,None,253.87172959999998,None,253.87172959999998,None,253.87172959999998,None,253.87172959999998,None,k,1,0.38394090000019787,253.87172959999998,None,,,,,,,,,,,,,22,001,2022_Oct_22_1809,Flanker,2021.2.0,239.2041200526173,
congruent-right.jpg,1,k,right_arrow.png,right_arrow.png,right_arrow.png,right_arrow.png,right_arrow.png,right_arrow.png,right_arrow.png,,,,,,,,,6,2,38,2,,,,,,,,,254.27208969999992,None,,,,,,,,,,,,,,,,,,,,,,,,,,,,,,255.28556219999973,None,255.28556219999973,None,255.28556219999973,None,255.28556219999973,None,255.28556219999973,None,255.28556219999973,None,255.28556219999973,None,k,1,0.3862223000000995,255.28556219999973,None,,,,,,,,,,,,,22,001,2022_Oct_22_1809,Flanker,2021.2.0,239.2041200526173,
congruent-left.jpg,1,a,left_arrow.png,left_arrow.png,left_arrow.png,left_arrow.png,left_arrow.png,left_arrow.png,left_arrow.png,,,,,,,,,6,3,39,0,,,,,,,,,255.6863441999999,None,,,,,,,,,,,,,,,,,,,,,,,,,,,,,,256.69954069999994,None,256.69954069999994,None,256.69954069999994,None,256.69954069999994,None,256.69954069999994,None,256.69954069999994,None,256.69954069999994,None,a,1,0.42849500000011176,256.69954069999994,None,,,,,,,,,,,,,22,001,2022_Oct_22_1809,Flanker,2021.2.0,239.2041200526173,
congruent-right.jpg,1,k,right_arrow.png,right_arrow.png,right_arrow.png,right_arrow.png,right_arrow.png,right_arrow.png,right_arrow.png,,,,,,,,,6,4,40,2,,,,,,,,,257.1418136999996,None,,,,,,,,,,,,,,,,,,,,,,,,,,,,,,258.15530039999976,None,258.15530039999976,None,258.15530039999976,None,258.15530039999976,None,258.15530039999976,None,258.15530039999976,None,258.15530039999976,None,k,1,0.42905039999959627,258.15530039999976,None,,,,,,,,,,,,,22,001,2022_Oct_22_1809,Flanker,2021.2.0,239.2041200526173,
neutral right,0,k,neutral.png,neutral.png,neutral.png,right_arrow.png,neutral.png,neutral.png,neutral.png,,,,,,,,,6,5,41,5,,,,,,,,,258.5972678999997,None,,,,,,,,,,,,,,,,,,,,,,,,,,,,,,259.6151402999999,None,259.6151402999999,None,259.6151402999999,None,259.6151402999999,None,259.6151402999999,None,259.6151402999999,None,259.6151402999999,None,k,1,0.40132180000000517,259.6151402999999,None,,,,,,,,,,,,,22,001,2022_Oct_22_1809,Flanker,2021.2.0,239.2041200526173,
neutral right,0,k,neutral.png,neutral.png,neutral.png,right_arrow.png,neutral.png,neutral.png,neutral.png,,,,,,,,,7,0,42,5,,,,,,,,,260.0323573999999,None,,,,,,,,,,,,,,,,,,,,,,,,,,,,,,261.0457575999999,None,261.0457575999999,None,261.0457575999999,None,261.0457575999999,None,261.0457575999999,None,261.0457575999999,None,261.0457575999999,None,k,1,0.4110548000003291,261.0457575999999,None,,,,,,,,,,,,,22,001,2022_Oct_22_1809,Flanker,2021.2.0,239.2041200526173,
neutral left,0,a,neutral.png,neutral.png,neutral.png,left_arrow.png,neutral.png,neutral.png,neutral.png,,,,,,,,,7,1,43,4,,,,,,,,,261.4713824999999,None,,,,,,,,,,,,,,,,,,,,,,,,,,,,,,262.4764839999998,None,262.4764839999998,None,262.4764839999998,None,262.4764839999998,None,262.4764839999998,None,262.4764839999998,None,262.4764839999998,None,a,1,0.3961042999999336,262.4764839999998,None,,,,,,,,,,,,,22,001,2022_Oct_22_1809,Flanker,2021.2.0,239.2041200526173,
congruent-right.jpg,1,k,right_arrow.png,right_arrow.png,right_arrow.png,right_arrow.png,right_arrow.png,right_arrow.png,right_arrow.png,,,,,,,,,7,2,44,2,,,,,,,,,262.8853933999999,None,,,,,,,,,,,,,,,,,,,,,,,,,,,,,,263.89871989999983,None,263.89871989999983,None,263.89871989999983,None,263.89871989999983,None,263.89871989999983,None,263.89871989999983,None,263.89871989999983,None,k,1,0.45436979999976757,263.89871989999983,None,,,,,,,,,,,,,22,001,2022_Oct_22_1809,Flanker,2021.2.0,239.2041200526173,
congruent-left.jpg,1,a,left_arrow.png,left_arrow.png,left_arrow.png,left_arrow.png,left_arrow.png,left_arrow.png,left_arrow.png,,,,,,,,,7,3,45,0,,,,,,,,,264.3665496999997,None,,,,,,,,,,,,,,,,,,,,,,,,,,,,,,265.3755689999998,None,265.3755689999998,None,265.3755689999998,None,265.3755689999998,None,265.3755689999998,None,265.3755689999998,None,265.3755689999998,None,a,1,0.43340310000030513,265.3755689999998,None,,,,,,,,,,,,,22,001,2022_Oct_22_1809,Flanker,2021.2.0,239.2041200526173,
incongruent-right.jpg,0,k,left_arrow.png,left_arrow.png,left_arrow.png,right_arrow.png,left_arrow.png,left_arrow.png,left_arrow.png,,,,,,,,,7,4,46,3,,,,,,,,,265.8258576999997,None,,,,,,,,,,,,,,,,,,,,,,,,,,,,,,266.83956309999985,None,266.83956309999985,None,266.83956309999985,None,266.83956309999985,None,266.83956309999985,None,266.83956309999985,None,266.83956309999985,None,k,1,0.43359890000010637,266.83956309999985,None,,,,,,,,,,,,,22,001,2022_Oct_22_1809,Flanker,2021.2.0,239.2041200526173,
congruent-right.jpg,1,k,right_arrow.png,right_arrow.png,right_arrow.png,right_arrow.png,right_arrow.png,right_arrow.png,right_arrow.png,,,,,,,,,7,5,47,2,,,,,,,,,267.28980679999995,None,,,,,,,,,,,,,,,,,,,,,,,,,,,,,,268.2992297999999,None,268.2992297999999,None,268.2992297999999,None,268.2992297999999,None,268.2992297999999,None,268.2992297999999,None,268.2992297999999,None,k,1,0.3904026000000158,268.2992297999999,None,,,,,,,,,,,,,22,001,2022_Oct_22_1809,Flanker,2021.2.0,239.2041200526173,
,,,,,,,,,,,,,,,,,,,,,,,,,,,,,,,,,,,,,,,,,,,,,,,,,,,,,,,,,,,,,,,,,,,,,,,,,,,,,,,,268.72047829999974,None,space,10.378297400000065,268.72047829999974,None,,,,,,,22,001,2022_Oct_22_1809,Flanker,2021.2.0,239.2041200526173,
incongruent-right.jpg,0,k,left_arrow.png,left_arrow.png,left_arrow.png,right_arrow.png,left_arrow.png,left_arrow.png,left_arrow.png,,,,,,,,,,,,,0,0,0,3,,,,,279.12326329999996,None,,,,,,,,,,,,,,,,,,,,,,,,,,,,,,280.1284308999998,None,280.1284308999998,None,280.1284308999998,None,280.1284308999998,None,280.1284308999998,None,280.1284308999998,None,280.1284308999998,None,k,1,0.7146051999998235,280.1284308999998,None,,,,,,,,,,,,,22,001,2022_Oct_22_1809,Flanker,2021.2.0,239.2041200526173,
neutral left,0,a,neutral.png,neutral.png,neutral.png,left_arrow.png,neutral.png,neutral.png,neutral.png,,,,,,,,,,,,,0,1,1,4,,,,,280.85455969999975,None,,,,,,,,,,,,,,,,,,,,,,,,,,,,,,281.87192209999967,None,281.87192209999967,None,281.87192209999967,None,281.87192209999967,None,281.87192209999967,None,281.87192209999967,None,281.87192209999967,None,a,1,0.41129670000009355,281.87192209999967,None,,,,,,,,,,,,,22,001,2022_Oct_22_1809,Flanker,2021.2.0,239.2041200526173,
incongruent-left.jpg,0,a,right_arrow.png,right_arrow.png,right_arrow.png,left_arrow.png,right_arrow.png,right_arrow.png,right_arrow.png,,,,,,,,,,,,,0,2,2,1,,,,,282.3015310999999,None,,,,,,,,,,,,,,,,,,,,,,,,,,,,,,283.31127689999994,None,283.31127689999994,None,283.31127689999994,None,283.31127689999994,None,283.31127689999994,None,283.31127689999994,None,283.31127689999994,None,a,1,0.44441149999966,283.31127689999994,None,,,,,,,,,,,,,22,001,2022_Oct_22_1809,Flanker,2021.2.0,239.2041200526173,
congruent-left.jpg,1,a,left_arrow.png,left_arrow.png,left_arrow.png,left_arrow.png,left_arrow.png,left_arrow.png,left_arrow.png,,,,,,,,,,,,,0,3,3,0,,,,,283.7700484999996,None,,,,,,,,,,,,,,,,,,,,,,,,,,,,,,284.7751234999996,None,284.7751234999996,None,284.7751234999996,None,284.7751234999996,None,284.7751234999996,None,284.7751234999996,None,284.7751234999996,None,a,1,0.38044719999970766,284.7751234999996,None,,,,,,,,,,,,,22,001,2022_Oct_22_1809,Flanker,2021.2.0,239.2041200526173,
congruent-right.jpg,1,k,right_arrow.png,right_arrow.png,right_arrow.png,right_arrow.png,right_arrow.png,right_arrow.png,right_arrow.png,,,,,,,,,,,,,0,4,4,2,,,,,285.1674320999996,None,,,,,,,,,,,,,,,,,,,,,,,,,,,,,,286.1769586999999,None,286.1769586999999,None,286.1769586999999,None,286.1769586999999,None,286.1769586999999,None,286.1769586999999,None,286.1769586999999,None,k,1,0.4190966999999546,286.1769586999999,None,,,,,,,,,,,,,22,001,2022_Oct_22_1809,Flanker,2021.2.0,239.2041200526173,
congruent-right.jpg,1,k,right_arrow.png,right_arrow.png,right_arrow.png,right_arrow.png,right_arrow.png,right_arrow.png,right_arrow.png,,,,,,,,,,,,,0,5,5,2,,,,,286.6103175999997,None,,,,,,,,,,,,,,,,,,,,,,,,,,,,,,287.6198083999998,None,287.6198083999998,None,287.6198083999998,None,287.6198083999998,None,287.6198083999998,None,287.6198083999998,None,287.6198083999998,None,k,1,0.38446650000014415,287.6198083999998,None,,,,,,,,,,,,,22,001,2022_Oct_22_1809,Flanker,2021.2.0,239.2041200526173,
incongruent-left.jpg,0,a,right_arrow.png,right_arrow.png,right_arrow.png,left_arrow.png,right_arrow.png,right_arrow.png,right_arrow.png,,,,,,,,,,,,,1,0,6,1,,,,,288.0202678999999,None,,,,,,,,,,,,,,,,,,,,,,,,,,,,,,289.0338439999996,None,289.0338439999996,None,289.0338439999996,None,289.0338439999996,None,289.0338439999996,None,289.0338439999996,None,289.0338439999996,None,a,1,0.4425048000002789,289.0338439999996,None,,,,,,,,,,,,,22,001,2022_Oct_22_1809,Flanker,2021.2.0,239.2041200526173,
neutral right,0,k,neutral.png,neutral.png,neutral.png,right_arrow.png,neutral.png,neutral.png,neutral.png,,,,,,,,,,,,,1,1,7,5,,,,,289.49277219999976,None,,,,,,,,,,,,,,,,,,,,,,,,,,,,,,290.5062433999997,None,290.5062433999997,None,290.5062433999997,None,290.5062433999997,None,290.5062433999997,None,290.5062433999997,None,290.5062433999997,None,k,1,0.4024739999999838,290.5062433999997,None,,,,,,,,,,,,,22,001,2022_Oct_22_1809,Flanker,2021.2.0,239.2041200526173,
congruent-left.jpg,1,a,left_arrow.png,left_arrow.png,left_arrow.png,left_arrow.png,left_arrow.png,left_arrow.png,left_arrow.png,,,,,,,,,,,,,1,2,8,0,,,,,290.9234695,None,,,,,,,,,,,,,,,,,,,,,,,,,,,,,,291.9329361,None,291.9329361,None,291.9329361,None,291.9329361,None,291.9329361,None,291.9329361,None,291.9329361,None,a,1,0.4236568000001171,291.9329361,None,,,,,,,,,,,,,22,001,2022_Oct_22_1809,Flanker,2021.2.0,239.2041200526173,
neutral left,0,a,neutral.png,neutral.png,neutral.png,left_arrow.png,neutral.png,neutral.png,neutral.png,,,,,,,,,,,,,1,3,9,4,,,,,292.3749942999998,None,,,,,,,,,,,,,,,,,,,,,,,,,,,,,,293.38846139999987,None,293.38846139999987,None,293.38846139999987,None,293.38846139999987,None,293.38846139999987,None,293.38846139999987,None,293.38846139999987,None,a,1,0.35241990000031365,293.38846139999987,None,,,,,,,,,,,,,22,001,2022_Oct_22_1809,Flanker,2021.2.0,239.2041200526173,
congruent-left.jpg,1,a,left_arrow.png,left_arrow.png,left_arrow.png,left_arrow.png,left_arrow.png,left_arrow.png,left_arrow.png,,,,,,,,,,,,,1,4,10,0,,,,,293.755713,None,,,,,,,,,,,,,,,,,,,,,,,,,,,,,,294.7690911999998,None,294.7690911999998,None,294.7690911999998,None,294.7690911999998,None,294.7690911999998,None,294.7690911999998,None,294.7690911999998,None,a,1,0.3959037000004173,294.7690911999998,None,,,,,,,,,,,,,22,001,2022_Oct_22_1809,Flanker,2021.2.0,239.2041200526173,
neutral right,0,k,neutral.png,neutral.png,neutral.png,right_arrow.png,neutral.png,neutral.png,neutral.png,,,,,,,,,,,,,1,5,11,5,,,,,295.1779829999996,None,,,,,,,,,,,,,,,,,,,,,,,,,,,,,,296.1874687999998,None,296.1874687999998,None,296.1874687999998,None,296.1874687999998,None,296.1874687999998,None,296.1874687999998,None,296.1874687999998,None,k,1,0.3857788000000255,296.1874687999998,None,,,,,,,,,,,,,22,001,2022_Oct_22_1809,Flanker,2021.2.0,239.2041200526173,
congruent-right.jpg,1,k,right_arrow.png,right_arrow.png,right_arrow.png,right_arrow.png,right_arrow.png,right_arrow.png,right_arrow.png,,,,,,,,,,,,,2,0,12,2,,,,,296.5877953999998,None,,,,,,,,,,,,,,,,,,,,,,,,,,,,,,297.5972431,None,297.5972431,None,297.5972431,None,297.5972431,None,297.5972431,None,297.5972431,None,297.5972431,None,k,1,0.42437410000002274,297.5972431,None,,,,,,,,,,,,,22,001,2022_Oct_22_1809,Flanker,2021.2.0,239.2041200526173,
congruent-left.jpg,1,a,left_arrow.png,left_arrow.png,left_arrow.png,left_arrow.png,left_arrow.png,left_arrow.png,left_arrow.png,,,,,,,,,,,,,2,1,13,0,,,,,298.0392304999996,None,,,,,,,,,,,,,,,,,,,,,,,,,,,,,,299.0446331999997,None,299.0446331999997,None,299.0446331999997,None,299.0446331999997,None,299.0446331999997,None,299.0446331999997,None,299.0446331999997,None,a,1,0.4088827999999012,299.0446331999997,None,,,,,,,,,,,,,22,001,2022_Oct_22_1809,Flanker,2021.2.0,239.2041200526173,
incongruent-right.jpg,0,k,left_arrow.png,left_arrow.png,left_arrow.png,right_arrow.png,left_arrow.png,left_arrow.png,left_arrow.png,,,,,,,,,,,,,2,2,14,3,,,,,299.47000579999985,None,,,,,,,,,,,,,,,,,,,,,,,,,,,,,,300.4833441999999,None,300.4833441999999,None,300.4833441999999,None,300.4833441999999,None,300.4833441999999,None,300.4833441999999,None,300.4833441999999,None,k,1,0.4503866999998536,300.4833441999999,None,,,,,,,,,,,,,22,001,2022_Oct_22_1809,Flanker,2021.2.0,239.2041200526173,
congruent-right.jpg,1,k,right_arrow.png,right_arrow.png,right_arrow.png,right_arrow.png,right_arrow.png,right_arrow.png,right_arrow.png,,,,,,,,,,,,,2,3,15,2,,,,,300.95081419999997,None,,,,,,,,,,,,,,,,,,,,,,,,,,,,,,301.9643149999997,None,301.9643149999997,None,301.9643149999997,None,301.9643149999997,None,301.9643149999997,None,301.9643149999997,None,301.9643149999997,None,k,1,0.3537186999997175,301.9643149999997,None,,,,,,,,,,,,,22,001,2022_Oct_22_1809,Flanker,2021.2.0,239.2041200526173,
neutral left,0,a,neutral.png,neutral.png,neutral.png,left_arrow.png,neutral.png,neutral.png,neutral.png,,,,,,,,,,,,,2,4,16,4,,,,,302.33146659999966,None,,,,,,,,,,,,,,,,,,,,,,,,,,,,,,303.34054719999995,None,303.34054719999995,None,303.34054719999995,None,303.34054719999995,None,303.34054719999995,None,303.34054719999995,None,303.34054719999995,None,a,1,0.4499127999997654,303.34054719999995,None,,,,,,,,,,,,,22,001,2022_Oct_22_1809,Flanker,2021.2.0,239.2041200526173,
neutral left,0,a,neutral.png,neutral.png,neutral.png,left_arrow.png,neutral.png,neutral.png,neutral.png,,,,,,,,,,,,,2,5,17,4,,,,,303.80770779999966,None,,,,,,,,,,,,,,,,,,,,,,,,,,,,,,304.8215455999998,None,304.8215455999998,None,304.8215455999998,None,304.8215455999998,None,304.8215455999998,None,304.8215455999998,None,304.8215455999998,None,a,1,0.4727947999999742,304.8215455999998,None,,,,,,,,,,,,,22,001,2022_Oct_22_1809,Flanker,2021.2.0,239.2041200526173,
congruent-right.jpg,1,k,right_arrow.png,right_arrow.png,right_arrow.png,right_arrow.png,right_arrow.png,right_arrow.png,right_arrow.png,,,,,,,,,,,,,3,0,18,2,,,,,305.30512699999963,None,,,,,,,,,,,,,,,,,,,,,,,,,,,,,,306.3189748,None,306.3189748,None,306.3189748,None,306.3189748,None,306.3189748,None,306.3189748,None,306.3189748,None,k,1,0.44753670000000056,306.3189748,None,,,,,,,,,,,,,22,001,2022_Oct_22_1809,Flanker,2021.2.0,239.2041200526173,
incongruent-left.jpg,0,a,right_arrow.png,right_arrow.png,right_arrow.png,left_arrow.png,right_arrow.png,right_arrow.png,right_arrow.png,,,,,,,,,,,,,3,1,19,1,,,,,306.77786769999966,None,,,,,,,,,,,,,,,,,,,,,,,,,,,,,,307.78281849999985,None,307.78281849999985,None,307.78281849999985,None,307.78281849999985,None,307.78281849999985,None,307.78281849999985,None,307.78281849999985,None,a,1,0.4161631000001762,307.78281849999985,None,,,,,,,,,,,,,22,001,2022_Oct_22_1809,Flanker,2021.2.0,239.2041200526173,
congruent-right.jpg,1,k,right_arrow.png,right_arrow.png,right_arrow.png,right_arrow.png,right_arrow.png,right_arrow.png,right_arrow.png,,,,,,,,,,,,,3,2,20,2,,,,,308.2165630999998,None,,,,,,,,,,,,,,,,,,,,,,,,,,,,,,309.2301633999996,None,309.2301633999996,None,309.2301633999996,None,309.2301633999996,None,309.2301633999996,None,309.2301633999996,None,309.2301633999996,None,k,1,0.7127801999999974,309.2301633999996,None,,,,,,,,,,,,,22,001,2022_Oct_22_1809,Flanker,2021.2.0,239.2041200526173,
neutral left,0,a,neutral.png,neutral.png,neutral.png,left_arrow.png,neutral.png,neutral.png,neutral.png,,,,,,,,,,,,,3,3,21,4,,,,,309.9558955999996,None,,,,,,,,,,,,,,,,,,,,,,,,,,,,,,310.9657462,None,310.9657462,None,310.9657462,None,310.9657462,None,310.9657462,None,310.9657462,None,310.9657462,None,a,1,0.401409799999783,310.9657462,None,,,,,,,,,,,,,22,001,2022_Oct_22_1809,Flanker,2021.2.0,239.2041200526173,
incongruent-left.jpg,0,a,right_arrow.png,right_arrow.png,right_arrow.png,left_arrow.png,right_arrow.png,right_arrow.png,right_arrow.png,,,,,,,,,,,,,3,4,22,1,,,,,311.38240529999985,None,,,,,,,,,,,,,,,,,,,,,,,,,,,,,,312.3959745999996,None,312.3959745999996,None,312.3959745999996,None,312.3959745999996,None,312.3959745999996,None,312.3959745999996,None,312.3959745999996,None,a,1,0.42787270000007993,312.3959745999996,None,,,,,,,,,,,,,22,001,2022_Oct_22_1809,Flanker,2021.2.0,239.2041200526173,
incongruent-right.jpg,0,k,left_arrow.png,left_arrow.png,left_arrow.png,right_arrow.png,left_arrow.png,left_arrow.png,left_arrow.png,,,,,,,,,,,,,3,5,23,3,,,,,312.8422822999996,None,,,,,,,,,,,,,,,,,,,,,,,,,,,,,,313.85198379999974,None,313.85198379999974,None,313.85198379999974,None,313.85198379999974,None,313.85198379999974,None,313.85198379999974,None,313.85198379999974,None,k,1,0.49961530000018683,313.85198379999974,None,,,,,,,,,,,,,22,001,2022_Oct_22_1809,Flanker,2021.2.0,239.2041200526173,
neutral right,0,k,neutral.png,neutral.png,neutral.png,right_arrow.png,neutral.png,neutral.png,neutral.png,,,,,,,,,,,,,4,0,24,5,,,,,314.3688823999996,None,,,,,,,,,,,,,,,,,,,,,,,,,,,,,,315.3783088,None,315.3783088,None,315.3783088,None,315.3783088,None,315.3783088,None,315.3783088,None,315.3783088,None,k,1,0.38143499999978303,315.3783088,None,,,,,,,,,,,,,22,001,2022_Oct_22_1809,Flanker,2021.2.0,239.2041200526173,
neutral right,0,k,neutral.png,neutral.png,neutral.png,right_arrow.png,neutral.png,neutral.png,neutral.png,,,,,,,,,,,,,4,1,25,5,,,,,315.77873339999996,None,,,,,,,,,,,,,,,,,,,,,,,,,,,,,,316.78843119999965,None,316.78843119999965,None,316.78843119999965,None,316.78843119999965,None,316.78843119999965,None,316.78843119999965,None,316.78843119999965,None,k,1,0.35548190000008617,316.78843119999965,None,,,,,,,,,,,,,22,001,2022_Oct_22_1809,Flanker,2021.2.0,239.2041200526173,
incongruent-left.jpg,0,a,right_arrow.png,right_arrow.png,right_arrow.png,left_arrow.png,right_arrow.png,right_arrow.png,right_arrow.png,,,,,,,,,,,,,4,2,26,1,,,,,317.1635325999996,None,,,,,,,,,,,,,,,,,,,,,,,,,,,,,,318.1773400999996,None,318.1773400999996,None,318.1773400999996,None,318.1773400999996,None,318.1773400999996,None,318.1773400999996,None,318.1773400999996,None,a,1,0.4068019999999706,318.1773400999996,None,,,,,,,,,,,,,22,001,2022_Oct_22_1809,Flanker,2021.2.0,239.2041200526173,
incongruent-left.jpg,0,a,right_arrow.png,right_arrow.png,right_arrow.png,left_arrow.png,right_arrow.png,right_arrow.png,right_arrow.png,,,,,,,,,,,,,4,3,27,1,,,,,318.6025575999997,None,,,,,,,,,,,,,,,,,,,,,,,,,,,,,,319.6163618999999,None,319.6163618999999,None,319.6163618999999,None,319.6163618999999,None,319.6163618999999,None,319.6163618999999,None,319.6163618999999,None,a,1,0.4399516999997104,319.6163618999999,None,,,,,,,,,,,,,22,001,2022_Oct_22_1809,Flanker,2021.2.0,239.2041200526173,
neutral left,0,a,neutral.png,neutral.png,neutral.png,left_arrow.png,neutral.png,neutral.png,neutral.png,,,,,,,,,,,,,4,4,28,4,,,,,320.0751902999996,None,,,,,,,,,,,,,,,,,,,,,,,,,,,,,,321.08482289999984,None,321.08482289999984,None,321.08482289999984,None,321.08482289999984,None,321.08482289999984,None,321.08482289999984,None,321.08482289999984,None,a,1,0.4036954000002879,321.08482289999984,None,,,,,,,,,,,,,22,001,2022_Oct_22_1809,Flanker,2021.2.0,239.2041200526173,
incongruent-right.jpg,0,k,left_arrow.png,left_arrow.png,left_arrow.png,right_arrow.png,left_arrow.png,left_arrow.png,left_arrow.png,,,,,,,,,,,,,4,5,29,3,,,,,321.5014748999997,None,,,,,,,,,,,,,,,,,,,,,,,,,,,,,,322.5150388999996,None,322.5150388999996,None,322.5150388999996,None,322.5150388999996,None,322.5150388999996,None,322.5150388999996,None,322.5150388999996,None,k,1,0.4296719999997549,322.5150388999996,None,,,,,,,,,,,,,22,001,2022_Oct_22_1809,Flanker,2021.2.0,239.2041200526173,
congruent-left.jpg,1,a,left_arrow.png,left_arrow.png,left_arrow.png,left_arrow.png,left_arrow.png,left_arrow.png,left_arrow.png,,,,,,,,,,,,,5,0,30,0,,,,,322.9613525999998,None,,,,,,,,,,,,,,,,,,,,,,,,,,,,,,323.9709622999999,None,323.9709622999999,None,323.9709622999999,None,323.9709622999999,None,323.9709622999999,None,323.9709622999999,None,323.9709622999999,None,a,1,0.39797139999973297,323.9709622999999,None,,,,,,,,,,,,,22,001,2022_Oct_22_1809,Flanker,2021.2.0,239.2041200526173,
neutral left,0,a,neutral.png,neutral.png,neutral.png,left_arrow.png,neutral.png,neutral.png,neutral.png,,,,,,,,,,,,,5,1,31,4,,,,,324.3881044999998,None,,,,,,,,,,,,,,,,,,,,,,,,,,,,,,325.4014430999996,None,325.4014430999996,None,325.4014430999996,None,325.4014430999996,None,325.4014430999996,None,325.4014430999996,None,325.4014430999996,None,a,1,0.38366640000003827,325.4014430999996,None,,,,,,,,,,,,,22,001,2022_Oct_22_1809,Flanker,2021.2.0,239.2041200526173,
incongruent-right.jpg,0,k,left_arrow.png,left_arrow.png,left_arrow.png,right_arrow.png,left_arrow.png,left_arrow.png,left_arrow.png,,,,,,,,,,,,,5,2,32,3,,,,,325.80215759999965,None,,,,,,,,,,,,,,,,,,,,,,,,,,,,,,326.8156823999998,None,326.8156823999998,None,326.8156823999998,None,326.8156823999998,None,326.8156823999998,None,326.8156823999998,None,326.8156823999998,None,k,1,0.4259073999996872,326.8156823999998,None,,,,,,,,,,,,,22,001,2022_Oct_22_1809,Flanker,2021.2.0,239.2041200526173,
incongruent-right.jpg,0,k,left_arrow.png,left_arrow.png,left_arrow.png,right_arrow.png,left_arrow.png,left_arrow.png,left_arrow.png,,,,,,,,,,,,,5,3,33,3,,,,,327.25781159999997,None,,,,,,,,,,,,,,,,,,,,,,,,,,,,,,328.27146459999994,None,328.27146459999994,None,328.27146459999994,None,328.27146459999994,None,328.27146459999994,None,328.27146459999994,None,328.27146459999994,None,k,1,0.49847700000009354,328.27146459999994,None,,,,,,,,,,,,,22,001,2022_Oct_22_1809,Flanker,2021.2.0,239.2041200526173,
congruent-left.jpg,1,a,left_arrow.png,left_arrow.png,left_arrow.png,left_arrow.png,left_arrow.png,left_arrow.png,left_arrow.png,,,,,,,,,,,,,5,4,34,0,,,,,328.7885801999996,None,,,,,,,,,,,,,,,,,,,,,,,,,,,,,,329.7978291999998,None,329.7978291999998,None,329.7978291999998,None,329.7978291999998,None,329.7978291999998,None,329.7978291999998,None,329.7978291999998,None,a,1,0.37185550000003786,329.7978291999998,None,,,,,,,,,,,,,22,001,2022_Oct_22_1809,Flanker,2021.2.0,239.2041200526173,
neutral right,0,k,neutral.png,neutral.png,neutral.png,right_arrow.png,neutral.png,neutral.png,neutral.png,,,,,,,,,,,,,5,5,35,5,,,,,330.1815459999998,None,,,,,,,,,,,,,,,,,,,,,,,,,,,,,,331.1910466999998,None,331.1910466999998,None,331.1910466999998,None,331.1910466999998,None,331.1910466999998,None,331.1910466999998,None,331.1910466999998,None,k,1,0.3468265999999858,331.1910466999998,None,,,,,,,,,,,,,22,001,2022_Oct_22_1809,Flanker,2021.2.0,239.2041200526173,
congruent-left.jpg,1,a,left_arrow.png,left_arrow.png,left_arrow.png,left_arrow.png,left_arrow.png,left_arrow.png,left_arrow.png,,,,,,,,,,,,,6,0,36,0,,,,,331.5498769999999,None,,,,,,,,,,,,,,,,,,,,,,,,,,,,,,332.5632117,None,332.5632117,None,332.5632117,None,332.5632117,None,332.5632117,None,332.5632117,None,332.5632117,None,a,1,0.3429116000002068,332.5632117,None,,,,,,,,,,,,,22,001,2022_Oct_22_1809,Flanker,2021.2.0,239.2041200526173,
incongruent-right.jpg,0,k,left_arrow.png,left_arrow.png,left_arrow.png,right_arrow.png,left_arrow.png,left_arrow.png,left_arrow.png,,,,,,,,,,,,,6,1,37,3,,,,,332.921918,None,,,,,,,,,,,,,,,,,,,,,,,,,,,,,,333.9315391,None,333.9315391,None,333.9315391,None,333.9315391,None,333.9315391,None,333.9315391,None,333.9315391,None,k,1,0.4227230999999847,333.9315391,None,,,,,,,,,,,,,22,001,2022_Oct_22_1809,Flanker,2021.2.0,239.2041200526173,
congruent-left.jpg,1,a,left_arrow.png,left_arrow.png,left_arrow.png,left_arrow.png,left_arrow.png,left_arrow.png,left_arrow.png,,,,,,,,,,,,,6,2,38,0,,,,,334.36512189999985,None,,,,,,,,,,,,,,,,,,,,,,,,,,,,,,335.3748051999996,None,335.3748051999996,None,335.3748051999996,None,335.3748051999996,None,335.3748051999996,None,335.3748051999996,None,335.3748051999996,None,a,1,0.3876090999997359,335.3748051999996,None,,,,,,,,,,,,,22,001,2022_Oct_22_1809,Flanker,2021.2.0,239.2041200526173,
incongruent-right.jpg,0,k,left_arrow.png,left_arrow.png,left_arrow.png,right_arrow.png,left_arrow.png,left_arrow.png,left_arrow.png,,,,,,,,,,,,,6,3,39,3,,,,,335.7749339999996,None,,,,,,,,,,,,,,,,,,,,,,,,,,,,,,336.7887343999996,None,336.7887343999996,None,336.7887343999996,None,336.7887343999996,None,336.7887343999996,None,336.7887343999996,None,336.7887343999996,None,k,1,0.49396489999980986,336.7887343999996,None,,,,,,,,,,,,,22,001,2022_Oct_22_1809,Flanker,2021.2.0,239.2041200526173,
neutral left,0,a,neutral.png,neutral.png,neutral.png,left_arrow.png,neutral.png,neutral.png,neutral.png,,,,,,,,,,,,,6,4,40,4,,,,,337.2974016999997,None,,,,,,,,,,,,,,,,,,,,,,,,,,,,,,338.3113553999997,None,338.3113553999997,None,338.3113553999997,None,338.3113553999997,None,338.3113553999997,None,338.3113553999997,None,338.3113553999997,None,a,1,0.3954913000002307,338.3113553999997,None,,,,,,,,,,,,,22,001,2022_Oct_22_1809,Flanker,2021.2.0,239.2041200526173,
incongruent-left.jpg,0,a,right_arrow.png,right_arrow.png,right_arrow.png,left_arrow.png,right_arrow.png,right_arrow.png,right_arrow.png,,,,,,,,,,,,,6,5,41,1,,,,,338.7200459999999,None,,,,,,,,,,,,,,,,,,,,,,,,,,,,,,339.7333137999999,None,339.7333137999999,None,339.7333137999999,None,339.7333137999999,None,339.7333137999999,None,339.7333137999999,None,339.7333137999999,None,a,1,0.5977615000001606,339.7333137999999,None,,,,,,,,,,,,,22,001,2022_Oct_22_1809,Flanker,2021.2.0,239.2041200526173,
neutral right,0,k,neutral.png,neutral.png,neutral.png,right_arrow.png,neutral.png,neutral.png,neutral.png,,,,,,,,,,,,,7,0,42,5,,,,,340.34229049999976,None,,,,,,,,,,,,,,,,,,,,,,,,,,,,,,341.3602541999999,None,341.3602541999999,None,341.3602541999999,None,341.3602541999999,None,341.3602541999999,None,341.3602541999999,None,341.3602541999999,None,k,1,0.41902470000013636,341.3602541999999,None,,,,,,,,,,,,,22,001,2022_Oct_22_1809,Flanker,2021.2.0,239.2041200526173,
congruent-right.jpg,1,k,right_arrow.png,right_arrow.png,right_arrow.png,right_arrow.png,right_arrow.png,right_arrow.png,right_arrow.png,,,,,,,,,,,,,7,1,43,2,,,,,341.7938288999999,None,,,,,,,,,,,,,,,,,,,,,,,,,,,,,,342.8032407999999,None,342.8032407999999,None,342.8032407999999,None,342.8032407999999,None,342.8032407999999,None,342.8032407999999,None,342.8032407999999,None,k,1,0.3681926999997813,342.8032407999999,None,,,,,,,,,,,,,22,001,2022_Oct_22_1809,Flanker,2021.2.0,239.2041200526173,
neutral right,0,k,neutral.png,neutral.png,neutral.png,right_arrow.png,neutral.png,neutral.png,neutral.png,,,,,,,,,,,,,7,2,44,5,,,,,343.1916377999996,None,,,,,,,,,,,,,,,,,,,,,,,,,,,,,,344.2050228999997,None,344.2050228999997,None,344.2050228999997,None,344.2050228999997,None,344.2050228999997,None,344.2050228999997,None,344.2050228999997,None,k,1,0.3908424000001105,344.2050228999997,None,,,,,,,,,,,,,22,001,2022_Oct_22_1809,Flanker,2021.2.0,239.2041200526173,
congruent-right.jpg,1,k,right_arrow.png,right_arrow.png,right_arrow.png,right_arrow.png,right_arrow.png,right_arrow.png,right_arrow.png,,,,,,,,,,,,,7,3,45,2,,,,,344.61349249999967,None,,,,,,,,,,,,,,,,,,,,,,,,,,,,,,345.62312649999967,None,345.62312649999967,None,345.62312649999967,None,345.62312649999967,None,345.62312649999967,None,345.62312649999967,None,345.62312649999967,None,k,1,0.3886959999999817,345.62312649999967,None,,,,,,,,,,,,,22,001,2022_Oct_22_1809,Flanker,2021.2.0,239.2041200526173,
neutral right,0,k,neutral.png,neutral.png,neutral.png,right_arrow.png,neutral.png,neutral.png,neutral.png,,,,,,,,,,,,,7,4,46,5,,,,,346.02330589999974,None,,,,,,,,,,,,,,,,,,,,,,,,,,,,,,347.0368776999999,None,347.0368776999999,None,347.0368776999999,None,347.0368776999999,None,347.0368776999999,None,347.0368776999999,None,347.0368776999999,None,k,1,0.35916520000000673,347.0368776999999,None,,,,,,,,,,,,,22,001,2022_Oct_22_1809,Flanker,2021.2.0,239.2041200526173,
incongruent-left.jpg,0,a,right_arrow.png,right_arrow.png,right_arrow.png,left_arrow.png,right_arrow.png,right_arrow.png,right_arrow.png,,,,,,,,,,,,,7,5,47,1,,,,,347.41229989999965,None,,,,,,,,,,,,,,,,,,,,,,,,,,,,,,348.42188769999984,None,348.42188769999984,None,348.42188769999984,None,348.42188769999984,None,348.42188769999984,None,348.42188769999984,None,348.42188769999984,None,a,1,0.42233470000019224,348.42188769999984,None,,,,,,,,,,,,,22,001,2022_Oct_22_1809,Flanker,2021.2.0,239.2041200526173,
,,,,,,,,,,,,,,,,,,,,,,,,,,,,,,,,,,,,,,,,,,,,,,,,,,,,,,,,,,,,,,,,,,,,,,,,,,,,,,,,348.86388229999966,None,space,1.3965136000001621,348.86388229999966,None,,,,,,,22,001,2022_Oct_22_1809,Flanker,2021.2.0,239.2041200526173,
,,,,,,,,,,,,,,,,,,,,,,,,,,,,,,,,,,,,,,,,,,,,,,,,,,,,,,,,,,,,,,,,,,,,,,,,,,,,,,,,,,,,,,350.2737253999999,None,space,9.155930399999761,350.2737253999999,None,22,001,2022_Oct_22_1809,Flanker,2021.2.0,239.2041200526173,
