images,congruentcy,corrAns,arrow_1,arrow_2,arrow_3,target,arrow_5,arrow_6,arrow_7,practice.thisRepN,practice.thisTrialN,practice.thisN,practice.thisIndex,trials.thisRepN,trials.thisTrialN,trials.thisN,trials.thisIndex,trials_2.thisRepN,trials_2.thisTrialN,trials_2.thisN,trials_2.thisIndex,trials_3.thisRepN,trials_3.thisTrialN,trials_3.thisN,trials_3.thisIndex,instr_text.started,instr_text.stopped,instr_resp.keys,instr_resp.rt,polygon.started,polygon.stopped,arrow1_.started,arrow1_.stopped,arrow2_.started,arrow2_.stopped,arrow3_.started,arrow3_.stopped,target_p.started,target_p.stopped,arrow5_.started,arrow5_.stopped,arrow6_.started,arrow6_.stopped,arrow7_.started,arrow7_.stopped,key_resp_P.keys,key_resp_P.corr,key_resp_P.rt,key_resp_P.started,key_resp_P.stopped,text_2.started,text_2.stopped,text_3.started,text_3.stopped,text_4.started,text_4.stopped,key_resp_2.keys,key_resp_2.rt,key_resp_2.started,key_resp_2.stopped,arrow1.started,arrow1.stopped,arrow2.started,arrow2.stopped,arrow3.started,arrow3.stopped,target_t.started,target_t.stopped,arrow5.started,arrow5.stopped,arrow6.started,arrow6.stopped,arrow7.started,arrow7.stopped,key_resp.keys,key_resp.corr,key_resp.rt,key_resp.started,key_resp.stopped,text_5.started,text_5.stopped,key_resp_3.keys,key_resp_3.rt,key_resp_3.started,key_resp_3.stopped,text_6.started,text_6.stopped,key_resp_4.keys,key_resp_4.rt,key_resp_4.started,key_resp_4.stopped,participant,session,date,expName,psychopyVersion,frameRate,
,,,,,,,,,,,,,,,,,,,,,,,,,,11.819288400000005,None,space,30.06122940000023,,,,,,,,,,,,,,,,,,,,,,,,,,,,,,,,,,,,,,,,,,,,,,,,,,,,,,,,,,,,,,,23,001,2022_Oct_22_1848,Flanker,2021.2.0,239.54907282360125,
congruent-left.jpg,1,a,left_arrow.png,left_arrow.png,left_arrow.png,left_arrow.png,left_arrow.png,left_arrow.png,left_arrow.png,0,0,0,0,,,,,,,,,,,,,,,,,41.91139900000053,None,42.91204520000065,None,42.91204520000065,None,42.91204520000065,None,42.91204520000065,None,42.91204520000065,None,42.91204520000065,None,42.91204520000065,None,a,1,0.6486853999995219,42.91204520000065,None,43.58809160000055,None,,,,,,,,,,,,,,,,,,,,,,,,,,,,,,,,,,,,,,,,23,001,2022_Oct_22_1848,Flanker,2021.2.0,239.54907282360125,
neutral left,0,a,neutral.png,neutral.png,neutral.png,left_arrow.png,neutral.png,neutral.png,neutral.png,0,1,1,4,,,,,,,,,,,,,,,,,45.08938399999988,None,46.094617599999765,None,46.094617599999765,None,46.094617599999765,None,46.094617599999765,None,46.094617599999765,None,46.094617599999765,None,46.094617599999765,None,a,1,0.5625580999994781,46.094617599999765,None,46.670736600000055,None,,,,,,,,,,,,,,,,,,,,,,,,,,,,,,,,,,,,,,,,23,001,2022_Oct_22_1848,Flanker,2021.2.0,239.54907282360125,
neutral left,0,a,neutral.png,neutral.png,neutral.png,left_arrow.png,neutral.png,neutral.png,neutral.png,0,2,2,4,,,,,,,,,,,,,,,,,48.175994600000195,None,49.18145730000015,None,49.18145730000015,None,49.18145730000015,None,49.18145730000015,None,49.18145730000015,None,49.18145730000015,None,49.18145730000015,None,a,1,0.43608710000080464,49.18145730000015,None,49.63171909999983,None,,,,,,,,,,,,,,,,,,,,,,,,,,,,,,,,,,,,,,,,23,001,2022_Oct_22_1848,Flanker,2021.2.0,239.54907282360125,
incongruent-left.jpg,0,a,right_arrow.png,right_arrow.png,right_arrow.png,left_arrow.png,right_arrow.png,right_arrow.png,right_arrow.png,0,3,3,1,,,,,,,,,,,,,,,,,51.13354059999983,None,52.14289330000065,None,52.14289330000065,None,52.14289330000065,None,52.14289330000065,None,52.14289330000065,None,52.14289330000065,None,52.14289330000065,None,a,1,0.8191780999995899,52.14289330000065,None,52.976943100000426,None,,,,,,,,,,,,,,,,,,,,,,,,,,,,,,,,,,,,,,,,23,001,2022_Oct_22_1848,Flanker,2021.2.0,239.54907282360125,
congruent-right.jpg,1,k,right_arrow.png,right_arrow.png,right_arrow.png,right_arrow.png,right_arrow.png,right_arrow.png,right_arrow.png,0,4,4,2,,,,,,,,,,,,,,,,,54.48269429999982,None,55.492235900000196,None,55.492235900000196,None,55.492235900000196,None,55.492235900000196,None,55.492235900000196,None,55.492235900000196,None,55.492235900000196,None,k,1,0.534187600000223,55.492235900000196,None,56.0426722000002,None,,,,,,,,,,,,,,,,,,,,,,,,,,,,,,,,,,,,,,,,23,001,2022_Oct_22_1848,Flanker,2021.2.0,239.54907282360125,
incongruent-left.jpg,0,a,right_arrow.png,right_arrow.png,right_arrow.png,left_arrow.png,right_arrow.png,right_arrow.png,right_arrow.png,0,5,5,1,,,,,,,,,,,,,,,,,57.548559800000476,None,58.55380109999987,None,58.55380109999987,None,58.55380109999987,None,58.55380109999987,None,58.55380109999987,None,58.55380109999987,None,58.55380109999987,None,a,1,0.4650704000005135,58.55380109999987,None,59.03768760000003,None,,,,,,,,,,,,,,,,,,,,,,,,,,,,,,,,,,,,,,,,23,001,2022_Oct_22_1848,Flanker,2021.2.0,239.54907282360125,
incongruent-right.jpg,0,k,left_arrow.png,left_arrow.png,left_arrow.png,right_arrow.png,left_arrow.png,left_arrow.png,left_arrow.png,1,0,6,3,,,,,,,,,,,,,,,,,60.53924730000017,None,61.54872979999982,None,61.54872979999982,None,61.54872979999982,None,61.54872979999982,None,61.54872979999982,None,61.54872979999982,None,61.54872979999982,None,k,1,0.5185496000003695,61.54872979999982,None,62.082438999999795,None,,,,,,,,,,,,,,,,,,,,,,,,,,,,,,,,,,,,,,,,23,001,2022_Oct_22_1848,Flanker,2021.2.0,239.54907282360125,
neutral right,0,k,neutral.png,neutral.png,neutral.png,right_arrow.png,neutral.png,neutral.png,neutral.png,1,1,7,5,,,,,,,,,,,,,,,,,63.584033699999964,None,64.59343220000028,None,64.59343220000028,None,64.59343220000028,None,64.59343220000028,None,64.59343220000028,None,64.59343220000028,None,64.59343220000028,None,k,1,0.5462458000001789,64.59343220000028,None,65.15236390000064,None,,,,,,,,,,,,,,,,,,,,,,,,,,,,,,,,,,,,,,,,23,001,2022_Oct_22_1848,Flanker,2021.2.0,239.54907282360125,
neutral right,0,k,neutral.png,neutral.png,neutral.png,right_arrow.png,neutral.png,neutral.png,neutral.png,1,2,8,5,,,,,,,,,,,,,,,,,66.65417700000035,None,67.66342420000001,None,67.66342420000001,None,67.66342420000001,None,67.66342420000001,None,67.66342420000001,None,67.66342420000001,None,67.66342420000001,None,k,1,0.5007175999999163,67.66342420000001,None,68.18058060000021,None,,,,,,,,,,,,,,,,,,,,,,,,,,,,,,,,,,,,,,,,23,001,2022_Oct_22_1848,Flanker,2021.2.0,239.54907282360125,
neutral right,0,k,neutral.png,neutral.png,neutral.png,right_arrow.png,neutral.png,neutral.png,neutral.png,1,3,9,5,,,,,,,,,,,,,,,,,69.68215940000027,None,70.69587450000017,None,70.69587450000017,None,70.69587450000017,None,70.69587450000017,None,70.69587450000017,None,70.69587450000017,None,70.69587450000017,None,k,1,0.46867590000056225,70.69587450000017,None,71.1796003999998,None,,,,,,,,,,,,,,,,,,,,,,,,,,,,,,,,,,,,,,,,23,001,2022_Oct_22_1848,Flanker,2021.2.0,239.54907282360125,
congruent-right.jpg,1,k,right_arrow.png,right_arrow.png,right_arrow.png,right_arrow.png,right_arrow.png,right_arrow.png,right_arrow.png,1,4,10,2,,,,,,,,,,,,,,,,,72.68555500000002,None,73.69477189999998,None,73.69477189999998,None,73.69477189999998,None,73.69477189999998,None,73.69477189999998,None,73.69477189999998,None,73.69477189999998,None,k,1,0.4141463999994812,73.69477189999998,None,74.12022840000009,None,,,,,,,,,,,,,,,,,,,,,,,,,,,,,,,,,,,,,,,,23,001,2022_Oct_22_1848,Flanker,2021.2.0,239.54907282360125,
congruent-left.jpg,1,a,left_arrow.png,left_arrow.png,left_arrow.png,left_arrow.png,left_arrow.png,left_arrow.png,left_arrow.png,1,5,11,0,,,,,,,,,,,,,,,,,75.62606250000044,None,76.63538150000022,None,76.63538150000022,None,76.63538150000022,None,76.63538150000022,None,76.63538150000022,None,76.63538150000022,None,76.63538150000022,None,a,1,0.39408739999998943,76.63538150000022,None,77.04421460000049,None,,,,,,,,,,,,,,,,,,,,,,,,,,,,,,,,,,,,,,,,23,001,2022_Oct_22_1848,Flanker,2021.2.0,239.54907282360125,
congruent-right.jpg,1,k,right_arrow.png,right_arrow.png,right_arrow.png,right_arrow.png,right_arrow.png,right_arrow.png,right_arrow.png,2,0,12,2,,,,,,,,,,,,,,,,,78.54582399999981,None,79.55529170000045,None,79.55529170000045,None,79.55529170000045,None,79.55529170000045,None,79.55529170000045,None,79.55529170000045,None,79.55529170000045,None,k,1,0.4344273999995494,79.55529170000045,None,80.00152660000003,None,,,,,,,,,,,,,,,,,,,,,,,,,,,,,,,,,,,,,,,,23,001,2022_Oct_22_1848,Flanker,2021.2.0,239.54907282360125,
incongruent-left.jpg,0,a,right_arrow.png,right_arrow.png,right_arrow.png,left_arrow.png,right_arrow.png,right_arrow.png,right_arrow.png,2,1,13,1,,,,,,,,,,,,,,,,,81.50306009999986,None,82.5124265000004,None,82.5124265000004,None,82.5124265000004,None,82.5124265000004,None,82.5124265000004,None,82.5124265000004,None,82.5124265000004,None,a,1,0.3659303999993426,82.5124265000004,None,82.89619949999997,None,,,,,,,,,,,,,,,,,,,,,,,,,,,,,,,,,,,,,,,,23,001,2022_Oct_22_1848,Flanker,2021.2.0,239.54907282360125,
incongruent-right.jpg,0,k,left_arrow.png,left_arrow.png,left_arrow.png,right_arrow.png,left_arrow.png,left_arrow.png,left_arrow.png,2,2,14,3,,,,,,,,,,,,,,,,,84.39780880000035,None,85.41185020000012,None,85.41185020000012,None,85.41185020000012,None,85.41185020000012,None,85.41185020000012,None,85.41185020000012,None,85.41185020000012,None,k,1,0.5306901000003563,85.41185020000012,None,85.95360700000037,None,,,,,,,,,,,,,,,,,,,,,,,,,,,,,,,,,,,,,,,,23,001,2022_Oct_22_1848,Flanker,2021.2.0,239.54907282360125,
incongruent-right.jpg,0,k,left_arrow.png,left_arrow.png,left_arrow.png,right_arrow.png,left_arrow.png,left_arrow.png,left_arrow.png,2,3,15,3,,,,,,,,,,,,,,,,,87.45520959999976,None,88.46892750000006,None,88.46892750000006,None,88.46892750000006,None,88.46892750000006,None,88.46892750000006,None,88.46892750000006,None,88.46892750000006,None,k,1,0.5220259999996415,88.46892750000006,None,89.00274090000039,None,,,,,,,,,,,,,,,,,,,,,,,,,,,,,,,,,,,,,,,,23,001,2022_Oct_22_1848,Flanker,2021.2.0,239.54907282360125,
congruent-left.jpg,1,a,left_arrow.png,left_arrow.png,left_arrow.png,left_arrow.png,left_arrow.png,left_arrow.png,left_arrow.png,2,4,16,0,,,,,,,,,,,,,,,,,90.50429140000051,None,91.51804189999984,None,91.51804189999984,None,91.51804189999984,None,91.51804189999984,None,91.51804189999984,None,91.51804189999984,None,91.51804189999984,None,a,1,0.45744379999996454,91.51804189999984,None,91.99336279999989,None,,,,,,,,,,,,,,,,,,,,,,,,,,,,,,,,,,,,,,,,23,001,2022_Oct_22_1848,Flanker,2021.2.0,239.54907282360125,
incongruent-left.jpg,0,a,right_arrow.png,right_arrow.png,right_arrow.png,left_arrow.png,right_arrow.png,right_arrow.png,right_arrow.png,2,5,17,1,,,,,,,,,,,,,,,,,93.49937000000045,None,94.5043639000005,None,94.5043639000005,None,94.5043639000005,None,94.5043639000005,None,94.5043639000005,None,94.5043639000005,None,94.5043639000005,None,a,1,0.46345519999977114,94.5043639000005,None,94.97993130000032,None,,,,,,,,,,,,,,,,,,,,,,,,,,,,,,,,,,,,,,,,23,001,2022_Oct_22_1848,Flanker,2021.2.0,239.54907282360125,
neutral right,0,k,neutral.png,neutral.png,neutral.png,right_arrow.png,neutral.png,neutral.png,neutral.png,3,0,18,5,,,,,,,,,,,,,,,,,96.48175540000011,None,97.49085430000014,None,97.49085430000014,None,97.49085430000014,None,97.49085430000014,None,97.49085430000014,None,97.49085430000014,None,97.49085430000014,None,k,1,0.5335666999999376,97.49085430000014,None,98.04146440000022,None,,,,,,,,,,,,,,,,,,,,,,,,,,,,,,,,,,,,,,,,23,001,2022_Oct_22_1848,Flanker,2021.2.0,239.54907282360125,
neutral left,0,a,neutral.png,neutral.png,neutral.png,left_arrow.png,neutral.png,neutral.png,neutral.png,3,1,19,4,,,,,,,,,,,,,,,,,99.5472079000001,None,100.54826790000061,None,100.54826790000061,None,100.54826790000061,None,100.54826790000061,None,100.54826790000061,None,100.54826790000061,None,100.54826790000061,None,a,1,0.36432869999953255,100.54826790000061,None,100.93216500000017,None,,,,,,,,,,,,,,,,,,,,,,,,,,,,,,,,,,,,,,,,23,001,2022_Oct_22_1848,Flanker,2021.2.0,239.54907282360125,
congruent-left.jpg,1,a,left_arrow.png,left_arrow.png,left_arrow.png,left_arrow.png,left_arrow.png,left_arrow.png,left_arrow.png,3,2,20,0,,,,,,,,,,,,,,,,,102.43777150000005,None,103.4473151000002,None,103.4473151000002,None,103.4473151000002,None,103.4473151000002,None,103.4473151000002,None,103.4473151000002,None,103.4473151000002,None,a,1,0.44991490000029444,103.4473151000002,None,103.91441850000047,None,,,,,,,,,,,,,,,,,,,,,,,,,,,,,,,,,,,,,,,,23,001,2022_Oct_22_1848,Flanker,2021.2.0,239.54907282360125,
incongruent-right.jpg,0,k,left_arrow.png,left_arrow.png,left_arrow.png,right_arrow.png,left_arrow.png,left_arrow.png,left_arrow.png,3,3,21,3,,,,,,,,,,,,,,,,,105.41624599999977,None,106.42969220000032,None,106.42969220000032,None,106.42969220000032,None,106.42969220000032,None,106.42969220000032,None,106.42969220000032,None,106.42969220000032,None,k,1,0.524046499999713,106.42969220000032,None,106.97176089999994,None,,,,,,,,,,,,,,,,,,,,,,,,,,,,,,,,,,,,,,,,23,001,2022_Oct_22_1848,Flanker,2021.2.0,239.54907282360125,
neutral left,0,a,neutral.png,neutral.png,neutral.png,left_arrow.png,neutral.png,neutral.png,neutral.png,3,4,22,4,,,,,,,,,,,,,,,,,108.47364900000048,None,109.48722080000061,None,109.48722080000061,None,109.48722080000061,None,109.48722080000061,None,109.48722080000061,None,109.48722080000061,None,109.48722080000061,None,a,1,0.3546027000002141,109.48722080000061,None,109.85399180000059,None,,,,,,,,,,,,,,,,,,,,,,,,,,,,,,,,,,,,,,,,23,001,2022_Oct_22_1848,Flanker,2021.2.0,239.54907282360125,
congruent-right.jpg,1,k,right_arrow.png,right_arrow.png,right_arrow.png,right_arrow.png,right_arrow.png,right_arrow.png,right_arrow.png,3,5,23,2,,,,,,,,,,,,,,,,,111.35558190000029,None,112.36915480000062,None,112.36915480000062,None,112.36915480000062,None,112.36915480000062,None,112.36915480000062,None,112.36915480000062,None,112.36915480000062,None,k,1,0.42510850000053324,112.36915480000062,None,112.81137380000018,None,,,,,,,,,,,,,,,,,,,,,,,,,,,,,,,,,,,,,,,,23,001,2022_Oct_22_1848,Flanker,2021.2.0,239.54907282360125,
,,,,,,,,,,,,,,,,,,,,,,,,,,,,,,,,,,,,,,,,,,,,,,,,,,,,,114.32553220000045,None,116.31930050000028,None,space,3.579918700000235,116.31930050000028,None,,,,,,,,,,,,,,,,,,,,,,,,,,,,,,,,23,001,2022_Oct_22_1848,Flanker,2021.2.0,239.54907282360125,
incongruent-left.jpg,0,a,right_arrow.png,right_arrow.png,right_arrow.png,left_arrow.png,right_arrow.png,right_arrow.png,right_arrow.png,,,,,0,0,0,1,,,,,,,,,,,,,119.92315440000039,None,,,,,,,,,,,,,,,,,,,,,,,,,,,,,,120.92823550000048,None,120.92823550000048,None,120.92823550000048,None,120.92823550000048,None,120.92823550000048,None,120.92823550000048,None,120.92823550000048,None,a,1,1.9233733999999458,120.92823550000048,None,,,,,,,,,,,,,23,001,2022_Oct_22_1848,Flanker,2021.2.0,239.54907282360125,
congruent-right.jpg,1,k,right_arrow.png,right_arrow.png,right_arrow.png,right_arrow.png,right_arrow.png,right_arrow.png,right_arrow.png,,,,,0,1,1,2,,,,,,,,,,,,,122.86363729999994,None,,,,,,,,,,,,,,,,,,,,,,,,,,,,,,123.87720780000018,None,123.87720780000018,None,123.87720780000018,None,123.87720780000018,None,123.87720780000018,None,123.87720780000018,None,123.87720780000018,None,k,1,0.566740000000209,123.87720780000018,None,,,,,,,,,,,,,23,001,2022_Oct_22_1848,Flanker,2021.2.0,239.54907282360125,
neutral left,0,a,neutral.png,neutral.png,neutral.png,left_arrow.png,neutral.png,neutral.png,neutral.png,,,,,0,2,2,4,,,,,,,,,,,,,124.46130480000011,None,,,,,,,,,,,,,,,,,,,,,,,,,,,,,,125.47063150000031,None,125.47063150000031,None,125.47063150000031,None,125.47063150000031,None,125.47063150000031,None,125.47063150000031,None,125.47063150000031,None,a,1,0.4934211999998297,125.47063150000031,None,,,,,,,,,,,,,23,001,2022_Oct_22_1848,Flanker,2021.2.0,239.54907282360125,
neutral right,0,k,neutral.png,neutral.png,neutral.png,right_arrow.png,neutral.png,neutral.png,neutral.png,,,,,0,3,3,5,,,,,,,,,,,,,125.97944449999977,None,,,,,,,,,,,,,,,,,,,,,,,,,,,,,,126.98889940000026,None,126.98889940000026,None,126.98889940000026,None,126.98889940000026,None,126.98889940000026,None,126.98889940000026,None,126.98889940000026,None,k,1,0.6713661000003412,126.98889940000026,None,,,,,,,,,,,,,23,001,2022_Oct_22_1848,Flanker,2021.2.0,239.54907282360125,
congruent-right.jpg,1,k,right_arrow.png,right_arrow.png,right_arrow.png,right_arrow.png,right_arrow.png,right_arrow.png,right_arrow.png,,,,,0,4,4,2,,,,,,,,,,,,,127.67291800000021,None,,,,,,,,,,,,,,,,,,,,,,,,,,,,,,128.68229239999982,None,128.68229239999982,None,128.68229239999982,None,128.68229239999982,None,128.68229239999982,None,128.68229239999982,None,128.68229239999982,None,k,1,0.6582042000000001,128.68229239999982,None,,,,,,,,,,,,,23,001,2022_Oct_22_1848,Flanker,2021.2.0,239.54907282360125,
incongruent-left.jpg,0,a,right_arrow.png,right_arrow.png,right_arrow.png,left_arrow.png,right_arrow.png,right_arrow.png,right_arrow.png,,,,,0,5,5,1,,,,,,,,,,,,,129.35803190000024,None,,,,,,,,,,,,,,,,,,,,,,,,,,,,,,130.3675675000004,None,130.3675675000004,None,130.3675675000004,None,130.3675675000004,None,130.3675675000004,None,130.3675675000004,None,130.3675675000004,None,a,1,0.5251693999998679,130.3675675000004,None,,,,,,,,,,,,,23,001,2022_Oct_22_1848,Flanker,2021.2.0,239.54907282360125,
incongruent-left.jpg,0,a,right_arrow.png,right_arrow.png,right_arrow.png,left_arrow.png,right_arrow.png,right_arrow.png,right_arrow.png,,,,,1,0,6,1,,,,,,,,,,,,,130.90966480000043,None,,,,,,,,,,,,,,,,,,,,,,,,,,,,,,131.9193135000005,None,131.9193135000005,None,131.9193135000005,None,131.9193135000005,None,131.9193135000005,None,131.9193135000005,None,131.9193135000005,None,a,1,0.5176080000001093,131.9193135000005,None,,,,,,,,,,,,,23,001,2022_Oct_22_1848,Flanker,2021.2.0,239.54907282360125,
incongruent-right.jpg,0,k,left_arrow.png,left_arrow.png,left_arrow.png,right_arrow.png,left_arrow.png,left_arrow.png,left_arrow.png,,,,,1,1,7,3,,,,,,,,,,,,,132.45298679999996,None,,,,,,,,,,,,,,,,,,,,,,,,,,,,,,133.46237519999977,None,133.46237519999977,None,133.46237519999977,None,133.46237519999977,None,133.46237519999977,None,133.46237519999977,None,133.46237519999977,None,k,1,0.5107787999995708,133.46237519999977,None,,,,,,,,,,,,,23,001,2022_Oct_22_1848,Flanker,2021.2.0,239.54907282360125,
incongruent-right.jpg,0,k,left_arrow.png,left_arrow.png,left_arrow.png,right_arrow.png,left_arrow.png,left_arrow.png,left_arrow.png,,,,,1,2,8,3,,,,,,,,,,,,,133.9879404000003,None,,,,,,,,,,,,,,,,,,,,,,,,,,,,,,135.0016284000003,None,135.0016284000003,None,135.0016284000003,None,135.0016284000003,None,135.0016284000003,None,135.0016284000003,None,135.0016284000003,None,k,1,0.7078882999994676,135.0016284000003,None,,,,,,,,,,,,,23,001,2022_Oct_22_1848,Flanker,2021.2.0,239.54907282360125,
neutral right,0,k,neutral.png,neutral.png,neutral.png,right_arrow.png,neutral.png,neutral.png,neutral.png,,,,,1,3,9,5,,,,,,,,,,,,,135.72751789999984,None,,,,,,,,,,,,,,,,,,,,,,,,,,,,,,136.7450359000004,None,136.7450359000004,None,136.7450359000004,None,136.7450359000004,None,136.7450359000004,None,136.7450359000004,None,136.7450359000004,None,k,1,0.7005870000002687,136.7450359000004,None,,,,,,,,,,,,,23,001,2022_Oct_22_1848,Flanker,2021.2.0,239.54907282360125,
congruent-right.jpg,1,k,right_arrow.png,right_arrow.png,right_arrow.png,right_arrow.png,right_arrow.png,right_arrow.png,right_arrow.png,,,,,1,4,10,2,,,,,,,,,,,,,137.4625463000002,None,,,,,,,,,,,,,,,,,,,,,,,,,,,,,,138.47186359999978,None,138.47186359999978,None,138.47186359999978,None,138.47186359999978,None,138.47186359999978,None,138.47186359999978,None,138.47186359999978,None,k,1,0.5259616000003007,138.47186359999978,None,,,,,,,,,,,,,23,001,2022_Oct_22_1848,Flanker,2021.2.0,239.54907282360125,
neutral left,0,a,neutral.png,neutral.png,neutral.png,left_arrow.png,neutral.png,neutral.png,neutral.png,,,,,1,5,11,4,,,,,,,,,,,,,139.0140978999998,None,,,,,,,,,,,,,,,,,,,,,,,,,,,,,,140.02350170000045,None,140.02350170000045,None,140.02350170000045,None,140.02350170000045,None,140.02350170000045,None,140.02350170000045,None,140.02350170000045,None,a,1,0.47855359999994107,140.02350170000045,None,,,,,,,,,,,,,23,001,2022_Oct_22_1848,Flanker,2021.2.0,239.54907282360125,
incongruent-left.jpg,0,a,right_arrow.png,right_arrow.png,right_arrow.png,left_arrow.png,right_arrow.png,right_arrow.png,right_arrow.png,,,,,2,0,12,1,,,,,,,,,,,,,140.5159789999998,None,,,,,,,,,,,,,,,,,,,,,,,,,,,,,,141.52925420000065,None,141.52925420000065,None,141.52925420000065,None,141.52925420000065,None,141.52925420000065,None,141.52925420000065,None,141.52925420000065,None,a,1,0.5810196000002179,141.52925420000065,None,,,,,,,,,,,,,23,001,2022_Oct_22_1848,Flanker,2021.2.0,239.54907282360125,
neutral left,0,a,neutral.png,neutral.png,neutral.png,left_arrow.png,neutral.png,neutral.png,neutral.png,,,,,2,1,13,4,,,,,,,,,,,,,142.12988399999995,None,,,,,,,,,,,,,,,,,,,,,,,,,,,,,,143.14346850000038,None,143.14346850000038,None,143.14346850000038,None,143.14346850000038,None,143.14346850000038,None,143.14346850000038,None,143.14346850000038,None,a,1,0.49498660000062955,143.14346850000038,None,,,,,,,,,,,,,23,001,2022_Oct_22_1848,Flanker,2021.2.0,239.54907282360125,
neutral right,0,k,neutral.png,neutral.png,neutral.png,right_arrow.png,neutral.png,neutral.png,neutral.png,,,,,2,2,14,5,,,,,,,,,,,,,143.65236520000053,None,,,,,,,,,,,,,,,,,,,,,,,,,,,,,,144.66592130000026,None,144.66592130000026,None,144.66592130000026,None,144.66592130000026,None,144.66592130000026,None,144.66592130000026,None,144.66592130000026,None,k,1,0.42074809999940044,144.66592130000026,None,,,,,,,,,,,,,23,001,2022_Oct_22_1848,Flanker,2021.2.0,239.54907282360125,
congruent-left.jpg,1,a,left_arrow.png,left_arrow.png,left_arrow.png,left_arrow.png,left_arrow.png,left_arrow.png,left_arrow.png,,,,,2,3,15,0,,,,,,,,,,,,,145.09978599999977,None,,,,,,,,,,,,,,,,,,,,,,,,,,,,,,146.10913789999995,None,146.10913789999995,None,146.10913789999995,None,146.10913789999995,None,146.10913789999995,None,146.10913789999995,None,146.10913789999995,None,a,1,0.4737217000001692,146.10913789999995,None,,,,,,,,,,,,,23,001,2022_Oct_22_1848,Flanker,2021.2.0,239.54907282360125,
neutral left,0,a,neutral.png,neutral.png,neutral.png,left_arrow.png,neutral.png,neutral.png,neutral.png,,,,,2,4,16,4,,,,,,,,,,,,,146.6016752000005,None,,,,,,,,,,,,,,,,,,,,,,,,,,,,,,147.61496940000052,None,147.61496940000052,None,147.61496940000052,None,147.61496940000052,None,147.61496940000052,None,147.61496940000052,None,147.61496940000052,None,a,1,0.48011550000046554,147.61496940000052,None,,,,,,,,,,,,,23,001,2022_Oct_22_1848,Flanker,2021.2.0,239.54907282360125,
incongruent-left.jpg,0,a,right_arrow.png,right_arrow.png,right_arrow.png,left_arrow.png,right_arrow.png,right_arrow.png,right_arrow.png,,,,,2,5,17,1,,,,,,,,,,,,,148.10709289999977,None,,,,,,,,,,,,,,,,,,,,,,,,,,,,,,149.12484720000066,None,149.12484720000066,None,149.12484720000066,None,149.12484720000066,None,149.12484720000066,None,149.12484720000066,None,149.12484720000066,None,a,1,0.5544332999998005,149.12484720000066,None,,,,,,,,,,,,,23,001,2022_Oct_22_1848,Flanker,2021.2.0,239.54907282360125,
congruent-left.jpg,1,a,left_arrow.png,left_arrow.png,left_arrow.png,left_arrow.png,left_arrow.png,left_arrow.png,left_arrow.png,,,,,3,0,18,0,,,,,,,,,,,,,149.69210300000032,None,,,,,,,,,,,,,,,,,,,,,,,,,,,,,,150.7017560000004,None,150.7017560000004,None,150.7017560000004,None,150.7017560000004,None,150.7017560000004,None,150.7017560000004,None,150.7017560000004,None,a,1,0.4658902000001035,150.7017560000004,None,,,,,,,,,,,,,23,001,2022_Oct_22_1848,Flanker,2021.2.0,239.54907282360125,
neutral right,0,k,neutral.png,neutral.png,neutral.png,right_arrow.png,neutral.png,neutral.png,neutral.png,,,,,3,1,19,5,,,,,,,,,,,,,151.1854242999998,None,,,,,,,,,,,,,,,,,,,,,,,,,,,,,,152.1989508000006,None,152.1989508000006,None,152.1989508000006,None,152.1989508000006,None,152.1989508000006,None,152.1989508000006,None,152.1989508000006,None,k,1,0.5927845999995043,152.1989508000006,None,,,,,,,,,,,,,23,001,2022_Oct_22_1848,Flanker,2021.2.0,239.54907282360125,
incongruent-right.jpg,0,k,left_arrow.png,left_arrow.png,left_arrow.png,right_arrow.png,left_arrow.png,left_arrow.png,left_arrow.png,,,,,3,2,20,3,,,,,,,,,,,,,152.80822640000042,None,,,,,,,,,,,,,,,,,,,,,,,,,,,,,,153.8177039000002,None,153.8177039000002,None,153.8177039000002,None,153.8177039000002,None,153.8177039000002,None,153.8177039000002,None,153.8177039000002,None,k,1,0.542230500000187,153.8177039000002,None,,,,,,,,,,,,,23,001,2022_Oct_22_1848,Flanker,2021.2.0,239.54907282360125,
congruent-right.jpg,1,k,right_arrow.png,right_arrow.png,right_arrow.png,right_arrow.png,right_arrow.png,right_arrow.png,right_arrow.png,,,,,3,3,21,2,,,,,,,,,,,,,154.3762224000002,None,,,,,,,,,,,,,,,,,,,,,,,,,,,,,,155.38577580000037,None,155.38577580000037,None,155.38577580000037,None,155.38577580000037,None,155.38577580000037,None,155.38577580000037,None,155.38577580000037,None,k,1,0.4383570999998483,155.38577580000037,None,,,,,,,,,,,,,23,001,2022_Oct_22_1848,Flanker,2021.2.0,239.54907282360125,
congruent-right.jpg,1,k,right_arrow.png,right_arrow.png,right_arrow.png,right_arrow.png,right_arrow.png,right_arrow.png,right_arrow.png,,,,,3,4,22,2,,,,,,,,,,,,,155.8361085000006,None,,,,,,,,,,,,,,,,,,,,,,,,,,,,,,156.84984179999992,None,156.84984179999992,None,156.84984179999992,None,156.84984179999992,None,156.84984179999992,None,156.84984179999992,None,156.84984179999992,None,k,1,0.44645889999992505,156.84984179999992,None,,,,,,,,,,,,,23,001,2022_Oct_22_1848,Flanker,2021.2.0,239.54907282360125,
neutral right,0,k,neutral.png,neutral.png,neutral.png,right_arrow.png,neutral.png,neutral.png,neutral.png,,,,,3,5,23,5,,,,,,,,,,,,,157.30853149999984,None,,,,,,,,,,,,,,,,,,,,,,,,,,,,,,158.31820920000064,None,158.31820920000064,None,158.31820920000064,None,158.31820920000064,None,158.31820920000064,None,158.31820920000064,None,158.31820920000064,None,k,1,0.41831530000035855,158.31820920000064,None,,,,,,,,,,,,,23,001,2022_Oct_22_1848,Flanker,2021.2.0,239.54907282360125,
incongruent-right.jpg,0,k,left_arrow.png,left_arrow.png,left_arrow.png,right_arrow.png,left_arrow.png,left_arrow.png,left_arrow.png,,,,,4,0,24,3,,,,,,,,,,,,,158.75177540000004,None,,,,,,,,,,,,,,,,,,,,,,,,,,,,,,159.76110130000052,None,159.76110130000052,None,159.76110130000052,None,159.76110130000052,None,159.76110130000052,None,159.76110130000052,None,159.76110130000052,None,a,0,0.33598820000042906,159.76110130000052,None,,,,,,,,,,,,,23,001,2022_Oct_22_1848,Flanker,2021.2.0,239.54907282360125,
congruent-left.jpg,1,a,left_arrow.png,left_arrow.png,left_arrow.png,left_arrow.png,left_arrow.png,left_arrow.png,left_arrow.png,,,,,4,1,25,0,,,,,,,,,,,,,160.11147710000023,None,,,,,,,,,,,,,,,,,,,,,,,,,,,,,,161.12104100000033,None,161.12104100000033,None,161.12104100000033,None,161.12104100000033,None,161.12104100000033,None,161.12104100000033,None,161.12104100000033,None,a,1,0.6240889999999126,161.12104100000033,None,,,,,,,,,,,,,23,001,2022_Oct_22_1848,Flanker,2021.2.0,239.54907282360125,
congruent-right.jpg,1,k,right_arrow.png,right_arrow.png,right_arrow.png,right_arrow.png,right_arrow.png,right_arrow.png,right_arrow.png,,,,,4,2,26,2,,,,,,,,,,,,,161.76325319999978,None,,,,,,,,,,,,,,,,,,,,,,,,,,,,,,162.7769705999999,None,162.7769705999999,None,162.7769705999999,None,162.7769705999999,None,162.7769705999999,None,162.7769705999999,None,162.7769705999999,None,k,1,0.5923434999995152,162.7769705999999,None,,,,,,,,,,,,,23,001,2022_Oct_22_1848,Flanker,2021.2.0,239.54907282360125,
congruent-left.jpg,1,a,left_arrow.png,left_arrow.png,left_arrow.png,left_arrow.png,left_arrow.png,left_arrow.png,left_arrow.png,,,,,4,3,27,0,,,,,,,,,,,,,163.38595070000065,None,,,,,,,,,,,,,,,,,,,,,,,,,,,,,,164.3995162000001,None,164.3995162000001,None,164.3995162000001,None,164.3995162000001,None,164.3995162000001,None,164.3995162000001,None,164.3995162000001,None,a,1,0.537850100000469,164.3995162000001,None,,,,,,,,,,,,,23,001,2022_Oct_22_1848,Flanker,2021.2.0,239.54907282360125,
neutral left,0,a,neutral.png,neutral.png,neutral.png,left_arrow.png,neutral.png,neutral.png,neutral.png,,,,,4,4,28,4,,,,,,,,,,,,,164.95015630000034,None,,,,,,,,,,,,,,,,,,,,,,,,,,,,,,165.95960550000018,None,165.95960550000018,None,165.95960550000018,None,165.95960550000018,None,165.95960550000018,None,165.95960550000018,None,165.95960550000018,None,a,1,0.4740092000001823,165.95960550000018,None,,,,,,,,,,,,,23,001,2022_Oct_22_1848,Flanker,2021.2.0,239.54907282360125,
congruent-left.jpg,1,a,left_arrow.png,left_arrow.png,left_arrow.png,left_arrow.png,left_arrow.png,left_arrow.png,left_arrow.png,,,,,4,5,29,0,,,,,,,,,,,,,166.4516904000002,None,,,,,,,,,,,,,,,,,,,,,,,,,,,,,,167.46114709999983,None,167.46114709999983,None,167.46114709999983,None,167.46114709999983,None,167.46114709999983,None,167.46114709999983,None,167.46114709999983,None,a,1,0.48463989999982005,167.46114709999983,None,,,,,,,,,,,,,23,001,2022_Oct_22_1848,Flanker,2021.2.0,239.54907282360125,
neutral left,0,a,neutral.png,neutral.png,neutral.png,left_arrow.png,neutral.png,neutral.png,neutral.png,,,,,5,0,30,4,,,,,,,,,,,,,167.96163220000017,None,,,,,,,,,,,,,,,,,,,,,,,,,,,,,,168.9752214,None,168.9752214,None,168.9752214,None,168.9752214,None,168.9752214,None,168.9752214,None,168.9752214,None,a,1,0.44277669999974023,168.9752214,None,,,,,,,,,,,,,23,001,2022_Oct_22_1848,Flanker,2021.2.0,239.54907282360125,
congruent-left.jpg,1,a,left_arrow.png,left_arrow.png,left_arrow.png,left_arrow.png,left_arrow.png,left_arrow.png,left_arrow.png,,,,,5,1,31,0,,,,,,,,,,,,,169.43403050000052,None,,,,,,,,,,,,,,,,,,,,,,,,,,,,,,170.45178060000035,None,170.45178060000035,None,170.45178060000035,None,170.45178060000035,None,170.45178060000035,None,170.45178060000035,None,170.45178060000035,None,a,1,0.40642250000018976,170.45178060000035,None,,,,,,,,,,,,,23,001,2022_Oct_22_1848,Flanker,2021.2.0,239.54907282360125,
incongruent-left.jpg,0,a,right_arrow.png,right_arrow.png,right_arrow.png,left_arrow.png,right_arrow.png,right_arrow.png,right_arrow.png,,,,,5,2,32,1,,,,,,,,,,,,,170.87723689999984,None,,,,,,,,,,,,,,,,,,,,,,,,,,,,,,171.88682560000052,None,171.88682560000052,None,171.88682560000052,None,171.88682560000052,None,171.88682560000052,None,171.88682560000052,None,171.88682560000052,None,a,1,0.5077037000000928,171.88682560000052,None,,,,,,,,,,,,,23,001,2022_Oct_22_1848,Flanker,2021.2.0,239.54907282360125,
neutral left,0,a,neutral.png,neutral.png,neutral.png,left_arrow.png,neutral.png,neutral.png,neutral.png,,,,,5,3,33,4,,,,,,,,,,,,,172.41210779999983,None,,,,,,,,,,,,,,,,,,,,,,,,,,,,,,173.42159340000035,None,173.42159340000035,None,173.42159340000035,None,173.42159340000035,None,173.42159340000035,None,173.42159340000035,None,173.42159340000035,None,a,1,0.41302559999985533,173.42159340000035,None,,,,,,,,,,,,,23,001,2022_Oct_22_1848,Flanker,2021.2.0,239.54907282360125,
incongruent-right.jpg,0,k,left_arrow.png,left_arrow.png,left_arrow.png,right_arrow.png,left_arrow.png,left_arrow.png,left_arrow.png,,,,,5,4,34,3,,,,,,,,,,,,,173.84704479999982,None,,,,,,,,,,,,,,,,,,,,,,,,,,,,,,174.86479400000007,None,174.86479400000007,None,174.86479400000007,None,174.86479400000007,None,174.86479400000007,None,174.86479400000007,None,174.86479400000007,None,k,1,0.4821357999999236,174.86479400000007,None,,,,,,,,,,,,,23,001,2022_Oct_22_1848,Flanker,2021.2.0,239.54907282360125,
incongruent-left.jpg,0,a,right_arrow.png,right_arrow.png,right_arrow.png,left_arrow.png,right_arrow.png,right_arrow.png,right_arrow.png,,,,,5,5,35,1,,,,,,,,,,,,,175.3653414999999,None,,,,,,,,,,,,,,,,,,,,,,,,,,,,,,176.3745703000004,None,176.3745703000004,None,176.3745703000004,None,176.3745703000004,None,176.3745703000004,None,176.3745703000004,None,176.3745703000004,None,a,1,0.5004422000001796,176.3745703000004,None,,,,,,,,,,,,,23,001,2022_Oct_22_1848,Flanker,2021.2.0,239.54907282360125,
congruent-right.jpg,1,k,right_arrow.png,right_arrow.png,right_arrow.png,right_arrow.png,right_arrow.png,right_arrow.png,right_arrow.png,,,,,6,0,36,2,,,,,,,,,,,,,176.8918217999999,None,,,,,,,,,,,,,,,,,,,,,,,,,,,,,,177.8970586000005,None,177.8970586000005,None,177.8970586000005,None,177.8970586000005,None,177.8970586000005,None,177.8970586000005,None,177.8970586000005,None,k,1,0.5221098000001803,177.8970586000005,None,,,,,,,,,,,,,23,001,2022_Oct_22_1848,Flanker,2021.2.0,239.54907282360125,
incongruent-right.jpg,0,k,left_arrow.png,left_arrow.png,left_arrow.png,right_arrow.png,left_arrow.png,left_arrow.png,left_arrow.png,,,,,6,1,37,3,,,,,,,,,,,,,178.4309972000001,None,,,,,,,,,,,,,,,,,,,,,,,,,,,,,,179.44050359999983,None,179.44050359999983,None,179.44050359999983,None,179.44050359999983,None,179.44050359999983,None,179.44050359999983,None,179.44050359999983,None,k,1,0.5149397000004683,179.44050359999983,None,,,,,,,,,,,,,23,001,2022_Oct_22_1848,Flanker,2021.2.0,239.54907282360125,
incongruent-right.jpg,0,k,left_arrow.png,left_arrow.png,left_arrow.png,right_arrow.png,left_arrow.png,left_arrow.png,left_arrow.png,,,,,6,2,38,3,,,,,,,,,,,,,179.97449310000047,None,,,,,,,,,,,,,,,,,,,,,,,,,,,,,,180.98379980000027,None,180.98379980000027,None,180.98379980000027,None,180.98379980000027,None,180.98379980000027,None,180.98379980000027,None,180.98379980000027,None,k,1,0.44391320000067935,180.98379980000027,None,,,,,,,,,,,,,23,001,2022_Oct_22_1848,Flanker,2021.2.0,239.54907282360125,
congruent-right.jpg,1,k,right_arrow.png,right_arrow.png,right_arrow.png,right_arrow.png,right_arrow.png,right_arrow.png,right_arrow.png,,,,,6,3,39,2,,,,,,,,,,,,,181.44247580000047,None,,,,,,,,,,,,,,,,,,,,,,,,,,,,,,182.45619390000047,None,182.45619390000047,None,182.45619390000047,None,182.45619390000047,None,182.45619390000047,None,182.45619390000047,None,182.45619390000047,None,k,1,0.41963310000028287,182.45619390000047,None,,,,,,,,,,,,,23,001,2022_Oct_22_1848,Flanker,2021.2.0,239.54907282360125,
congruent-left.jpg,1,a,left_arrow.png,left_arrow.png,left_arrow.png,left_arrow.png,left_arrow.png,left_arrow.png,left_arrow.png,,,,,6,4,40,0,,,,,,,,,,,,,182.8898506000005,None,,,,,,,,,,,,,,,,,,,,,,,,,,,,,,183.89932260000023,None,183.89932260000023,None,183.89932260000023,None,183.89932260000023,None,183.89932260000023,None,183.89932260000023,None,183.89932260000023,None,a,1,0.40871270000025106,183.89932260000023,None,,,,,,,,,,,,,23,001,2022_Oct_22_1848,Flanker,2021.2.0,239.54907282360125,
neutral left,0,a,neutral.png,neutral.png,neutral.png,left_arrow.png,neutral.png,neutral.png,neutral.png,,,,,6,5,41,4,,,,,,,,,,,,,184.32471110000006,None,,,,,,,,,,,,,,,,,,,,,,,,,,,,,,185.33841399999983,None,185.33841399999983,None,185.33841399999983,None,185.33841399999983,None,185.33841399999983,None,185.33841399999983,None,185.33841399999983,None,a,1,0.45807569999942643,185.33841399999983,None,,,,,,,,,,,,,23,001,2022_Oct_22_1848,Flanker,2021.2.0,239.54907282360125,
neutral right,0,k,neutral.png,neutral.png,neutral.png,right_arrow.png,neutral.png,neutral.png,neutral.png,,,,,7,0,42,5,,,,,,,,,,,,,185.81406400000014,None,,,,,,,,,,,,,,,,,,,,,,,,,,,,,,186.82747389999986,None,186.82747389999986,None,186.82747389999986,None,186.82747389999986,None,186.82747389999986,None,186.82747389999986,None,186.82747389999986,None,k,1,0.5049497999998493,186.82747389999986,None,,,,,,,,,,,,,23,001,2022_Oct_22_1848,Flanker,2021.2.0,239.54907282360125,
incongruent-left.jpg,0,a,right_arrow.png,right_arrow.png,right_arrow.png,left_arrow.png,right_arrow.png,right_arrow.png,right_arrow.png,,,,,7,1,43,1,,,,,,,,,,,,,187.34479420000025,None,,,,,,,,,,,,,,,,,,,,,,,,,,,,,,188.3622845,None,188.3622845,None,188.3622845,None,188.3622845,None,188.3622845,None,188.3622845,None,188.3622845,None,a,1,0.45049289999951725,188.3622845,None,,,,,,,,,,,,,23,001,2022_Oct_22_1848,Flanker,2021.2.0,239.54907282360125,
neutral right,0,k,neutral.png,neutral.png,neutral.png,right_arrow.png,neutral.png,neutral.png,neutral.png,,,,,7,2,44,5,,,,,,,,,,,,,188.82961109999997,None,,,,,,,,,,,,,,,,,,,,,,,,,,,,,,189.83899610000026,None,189.83899610000026,None,189.83899610000026,None,189.83899610000026,None,189.83899610000026,None,189.83899610000026,None,189.83899610000026,None,k,1,0.3579833999992843,189.83899610000026,None,,,,,,,,,,,,,23,001,2022_Oct_22_1848,Flanker,2021.2.0,239.54907282360125,
incongruent-right.jpg,0,k,left_arrow.png,left_arrow.png,left_arrow.png,right_arrow.png,left_arrow.png,left_arrow.png,left_arrow.png,,,,,7,3,45,3,,,,,,,,,,,,,190.21441049999976,None,,,,,,,,,,,,,,,,,,,,,,,,,,,,,,191.22798000000057,None,191.22798000000057,None,191.22798000000057,None,191.22798000000057,None,191.22798000000057,None,191.22798000000057,None,191.22798000000057,None,k,1,0.49703649999992194,191.22798000000057,None,,,,,,,,,,,,,23,001,2022_Oct_22_1848,Flanker,2021.2.0,239.54907282360125,
neutral right,0,k,neutral.png,neutral.png,neutral.png,right_arrow.png,neutral.png,neutral.png,neutral.png,,,,,7,4,46,5,,,,,,,,,,,,,191.7369392999999,None,,,,,,,,,,,,,,,,,,,,,,,,,,,,,,192.75057809999998,None,192.75057809999998,None,192.75057809999998,None,192.75057809999998,None,192.75057809999998,None,192.75057809999998,None,192.75057809999998,None,k,1,0.42267660000015894,192.75057809999998,None,,,,,,,,,,,,,23,001,2022_Oct_22_1848,Flanker,2021.2.0,239.54907282360125,
congruent-left.jpg,1,a,left_arrow.png,left_arrow.png,left_arrow.png,left_arrow.png,left_arrow.png,left_arrow.png,left_arrow.png,,,,,7,5,47,0,,,,,,,,,,,,,193.1842204000004,None,,,,,,,,,,,,,,,,,,,,,,,,,,,,,,194.19764290000057,None,194.19764290000057,None,194.19764290000057,None,194.19764290000057,None,194.19764290000057,None,194.19764290000057,None,194.19764290000057,None,a,1,0.44776660000025004,194.19764290000057,None,,,,,,,,,,,,,23,001,2022_Oct_22_1848,Flanker,2021.2.0,239.54907282360125,
,,,,,,,,,,,,,,,,,,,,,,,,,,,,,,,,,,,,,,,,,,,,,,,,,,,,,,,,,,,,,,,,,,,,,,,,,,,,,,,,194.6731510999998,None,space,4.516890700000658,194.6731510999998,None,,,,,,,23,001,2022_Oct_22_1848,Flanker,2021.2.0,239.54907282360125,
neutral right,0,k,neutral.png,neutral.png,neutral.png,right_arrow.png,neutral.png,neutral.png,neutral.png,,,,,,,,,0,0,0,5,,,,,,,,,199.21139360000052,None,,,,,,,,,,,,,,,,,,,,,,,,,,,,,,200.21668839999984,None,200.21668839999984,None,200.21668839999984,None,200.21668839999984,None,200.21668839999984,None,200.21668839999984,None,200.21668839999984,None,k,1,0.5255389999992985,200.21668839999984,None,,,,,,,,,,,,,23,001,2022_Oct_22_1848,Flanker,2021.2.0,239.54907282360125,
incongruent-right.jpg,0,k,left_arrow.png,left_arrow.png,left_arrow.png,right_arrow.png,left_arrow.png,left_arrow.png,left_arrow.png,,,,,,,,,0,1,1,3,,,,,,,,,200.75880909999978,None,,,,,,,,,,,,,,,,,,,,,,,,,,,,,,201.77655539999978,None,201.77655539999978,None,201.77655539999978,None,201.77655539999978,None,201.77655539999978,None,201.77655539999978,None,201.77655539999978,None,k,1,0.47790210000039224,201.77655539999978,None,,,,,,,,,,,,,23,001,2022_Oct_22_1848,Flanker,2021.2.0,239.54907282360125,
neutral left,0,a,neutral.png,neutral.png,neutral.png,left_arrow.png,neutral.png,neutral.png,neutral.png,,,,,,,,,0,2,2,4,,,,,,,,,202.2687538,None,,,,,,,,,,,,,,,,,,,,,,,,,,,,,,203.2823116999998,None,203.2823116999998,None,203.2823116999998,None,203.2823116999998,None,203.2823116999998,None,203.2823116999998,None,203.2823116999998,None,a,1,0.4283774999994421,203.2823116999998,None,,,,,,,,,,,,,23,001,2022_Oct_22_1848,Flanker,2021.2.0,239.54907282360125,
neutral left,0,a,neutral.png,neutral.png,neutral.png,left_arrow.png,neutral.png,neutral.png,neutral.png,,,,,,,,,0,3,3,4,,,,,,,,,203.72448970000005,None,,,,,,,,,,,,,,,,,,,,,,,,,,,,,,204.73386350000055,None,204.73386350000055,None,204.73386350000055,None,204.73386350000055,None,204.73386350000055,None,204.73386350000055,None,204.73386350000055,None,a,1,0.40104689999952825,204.73386350000055,None,,,,,,,,,,,,,23,001,2022_Oct_22_1848,Flanker,2021.2.0,239.54907282360125,
incongruent-left.jpg,0,a,right_arrow.png,right_arrow.png,right_arrow.png,left_arrow.png,right_arrow.png,right_arrow.png,right_arrow.png,,,,,,,,,0,4,4,1,,,,,,,,,205.15095230000043,None,,,,,,,,,,,,,,,,,,,,,,,,,,,,,,206.16456370000014,None,206.16456370000014,None,206.16456370000014,None,206.16456370000014,None,206.16456370000014,None,206.16456370000014,None,206.16456370000014,None,a,1,0.4666354999999385,206.16456370000014,None,,,,,,,,,,,,,23,001,2022_Oct_22_1848,Flanker,2021.2.0,239.54907282360125,
congruent-right.jpg,1,k,right_arrow.png,right_arrow.png,right_arrow.png,right_arrow.png,right_arrow.png,right_arrow.png,right_arrow.png,,,,,,,,,0,5,5,2,,,,,,,,,206.6483728000003,None,,,,,,,,,,,,,,,,,,,,,,,,,,,,,,207.65800930000023,None,207.65800930000023,None,207.65800930000023,None,207.65800930000023,None,207.65800930000023,None,207.65800930000023,None,207.65800930000023,None,a,0,0.4292248000001564,207.65800930000023,None,,,,,,,,,,,,,23,001,2022_Oct_22_1848,Flanker,2021.2.0,239.54907282360125,
neutral left,0,a,neutral.png,neutral.png,neutral.png,left_arrow.png,neutral.png,neutral.png,neutral.png,,,,,,,,,1,0,6,4,,,,,,,,,208.10028710000006,None,,,,,,,,,,,,,,,,,,,,,,,,,,,,,,209.11357690000023,None,209.11357690000023,None,209.11357690000023,None,209.11357690000023,None,209.11357690000023,None,209.11357690000023,None,209.11357690000023,None,a,1,0.5740396999999575,209.11357690000023,None,,,,,,,,,,,,,23,001,2022_Oct_22_1848,Flanker,2021.2.0,239.54907282360125,
incongruent-left.jpg,0,a,right_arrow.png,right_arrow.png,right_arrow.png,left_arrow.png,right_arrow.png,right_arrow.png,right_arrow.png,,,,,,,,,1,1,7,1,,,,,,,,,209.70591409999997,None,,,,,,,,,,,,,,,,,,,,,,,,,,,,,,210.71944880000046,None,210.71944880000046,None,210.71944880000046,None,210.71944880000046,None,210.71944880000046,None,210.71944880000046,None,210.71944880000046,None,a,1,0.49623110000084125,210.71944880000046,None,,,,,,,,,,,,,23,001,2022_Oct_22_1848,Flanker,2021.2.0,239.54907282360125,
incongruent-right.jpg,0,k,left_arrow.png,left_arrow.png,left_arrow.png,right_arrow.png,left_arrow.png,left_arrow.png,left_arrow.png,,,,,,,,,1,2,8,3,,,,,,,,,211.22834860000057,None,,,,,,,,,,,,,,,,,,,,,,,,,,,,,,212.23765520000052,None,212.23765520000052,None,212.23765520000052,None,212.23765520000052,None,212.23765520000052,None,212.23765520000052,None,212.23765520000052,None,k,1,0.43424899999990885,212.23765520000052,None,,,,,,,,,,,,,23,001,2022_Oct_22_1848,Flanker,2021.2.0,239.54907282360125,
congruent-right.jpg,1,k,right_arrow.png,right_arrow.png,right_arrow.png,right_arrow.png,right_arrow.png,right_arrow.png,right_arrow.png,,,,,,,,,1,3,9,2,,,,,,,,,212.688134,None,,,,,,,,,,,,,,,,,,,,,,,,,,,,,,213.69769040000028,None,213.69769040000028,None,213.69769040000028,None,213.69769040000028,None,213.69769040000028,None,213.69769040000028,None,213.69769040000028,None,k,1,0.4223848999999973,213.69769040000028,None,,,,,,,,,,,,,23,001,2022_Oct_22_1848,Flanker,2021.2.0,239.54907282360125,
incongruent-left.jpg,0,a,right_arrow.png,right_arrow.png,right_arrow.png,left_arrow.png,right_arrow.png,right_arrow.png,right_arrow.png,,,,,,,,,1,4,10,1,,,,,,,,,214.13153430000057,None,,,,,,,,,,,,,,,,,,,,,,,,,,,,,,215.1450464999998,None,215.1450464999998,None,215.1450464999998,None,215.1450464999998,None,215.1450464999998,None,215.1450464999998,None,215.1450464999998,None,a,1,0.5752354999995077,215.1450464999998,None,,,,,,,,,,,,,23,001,2022_Oct_22_1848,Flanker,2021.2.0,239.54907282360125,
neutral left,0,a,neutral.png,neutral.png,neutral.png,left_arrow.png,neutral.png,neutral.png,neutral.png,,,,,,,,,1,5,11,4,,,,,,,,,215.73744119999992,None,,,,,,,,,,,,,,,,,,,,,,,,,,,,,,216.75091599999996,None,216.75091599999996,None,216.75091599999996,None,216.75091599999996,None,216.75091599999996,None,216.75091599999996,None,216.75091599999996,None,a,1,0.4497418999999354,216.75091599999996,None,,,,,,,,,,,,,23,001,2022_Oct_22_1848,Flanker,2021.2.0,239.54907282360125,
incongruent-right.jpg,0,k,left_arrow.png,left_arrow.png,left_arrow.png,right_arrow.png,left_arrow.png,left_arrow.png,left_arrow.png,,,,,,,,,2,0,12,3,,,,,,,,,217.21824819999983,None,,,,,,,,,,,,,,,,,,,,,,,,,,,,,,218.22746689999985,None,218.22746689999985,None,218.22746689999985,None,218.22746689999985,None,218.22746689999985,None,218.22746689999985,None,218.22746689999985,None,k,1,0.501304300000811,218.22746689999985,None,,,,,,,,,,,,,23,001,2022_Oct_22_1848,Flanker,2021.2.0,239.54907282360125,
congruent-right.jpg,1,k,right_arrow.png,right_arrow.png,right_arrow.png,right_arrow.png,right_arrow.png,right_arrow.png,right_arrow.png,,,,,,,,,2,1,13,2,,,,,,,,,218.74454820000028,None,,,,,,,,,,,,,,,,,,,,,,,,,,,,,,219.75827149999986,None,219.75827149999986,None,219.75827149999986,None,219.75827149999986,None,219.75827149999986,None,219.75827149999986,None,219.75827149999986,None,k,1,0.39464239999961137,219.75827149999986,None,,,,,,,,,,,,,23,001,2022_Oct_22_1848,Flanker,2021.2.0,239.54907282360125,
neutral right,0,k,neutral.png,neutral.png,neutral.png,right_arrow.png,neutral.png,neutral.png,neutral.png,,,,,,,,,2,2,14,5,,,,,,,,,220.1668838000005,None,,,,,,,,,,,,,,,,,,,,,,,,,,,,,,221.1806415000001,None,221.1806415000001,None,221.1806415000001,None,221.1806415000001,None,221.1806415000001,None,221.1806415000001,None,221.1806415000001,None,k,1,0.41243589999976393,221.1806415000001,None,,,,,,,,,,,,,23,001,2022_Oct_22_1848,Flanker,2021.2.0,239.54907282360125,
neutral left,0,a,neutral.png,neutral.png,neutral.png,left_arrow.png,neutral.png,neutral.png,neutral.png,,,,,,,,,2,3,15,4,,,,,,,,,221.6059290000003,None,,,,,,,,,,,,,,,,,,,,,,,,,,,,,,222.62379190000047,None,222.62379190000047,None,222.62379190000047,None,222.62379190000047,None,222.62379190000047,None,222.62379190000047,None,222.62379190000047,None,a,1,0.5055453999993915,222.62379190000047,None,,,,,,,,,,,,,23,001,2022_Oct_22_1848,Flanker,2021.2.0,239.54907282360125,
neutral left,0,a,neutral.png,neutral.png,neutral.png,left_arrow.png,neutral.png,neutral.png,neutral.png,,,,,,,,,2,4,16,4,,,,,,,,,223.1409450000001,None,,,,,,,,,,,,,,,,,,,,,,,,,,,,,,224.15027139999984,None,224.15027139999984,None,224.15027139999984,None,224.15027139999984,None,224.15027139999984,None,224.15027139999984,None,224.15027139999984,None,a,1,0.44323629999962577,224.15027139999984,None,,,,,,,,,,,,,23,001,2022_Oct_22_1848,Flanker,2021.2.0,239.54907282360125,
incongruent-left.jpg,0,a,right_arrow.png,right_arrow.png,right_arrow.png,left_arrow.png,right_arrow.png,right_arrow.png,right_arrow.png,,,,,,,,,2,5,17,1,,,,,,,,,224.60946090000016,None,,,,,,,,,,,,,,,,,,,,,,,,,,,,,,225.6184987000006,None,225.6184987000006,None,225.6184987000006,None,225.6184987000006,None,225.6184987000006,None,225.6184987000006,None,225.6184987000006,None,a,1,0.49523000000044703,225.6184987000006,None,,,,,,,,,,,,,23,001,2022_Oct_22_1848,Flanker,2021.2.0,239.54907282360125,
incongruent-left.jpg,0,a,right_arrow.png,right_arrow.png,right_arrow.png,left_arrow.png,right_arrow.png,right_arrow.png,right_arrow.png,,,,,,,,,3,0,18,1,,,,,,,,,226.12746070000048,None,,,,,,,,,,,,,,,,,,,,,,,,,,,,,,227.14110560000063,None,227.14110560000063,None,227.14110560000063,None,227.14110560000063,None,227.14110560000063,None,227.14110560000063,None,227.14110560000063,None,k,0,0.5728386999999202,227.14110560000063,None,,,,,,,,,,,,,23,001,2022_Oct_22_1848,Flanker,2021.2.0,239.54907282360125,
congruent-right.jpg,1,k,right_arrow.png,right_arrow.png,right_arrow.png,right_arrow.png,right_arrow.png,right_arrow.png,right_arrow.png,,,,,,,,,3,1,19,2,,,,,,,,,227.7332505000004,None,,,,,,,,,,,,,,,,,,,,,,,,,,,,,,228.75112890000037,None,228.75112890000037,None,228.75112890000037,None,228.75112890000037,None,228.75112890000037,None,228.75112890000037,None,228.75112890000037,None,k,1,0.4752133000001777,228.75112890000037,None,,,,,,,,,,,,,23,001,2022_Oct_22_1848,Flanker,2021.2.0,239.54907282360125,
neutral right,0,k,neutral.png,neutral.png,neutral.png,right_arrow.png,neutral.png,neutral.png,neutral.png,,,,,,,,,3,2,20,5,,,,,,,,,229.24326910000036,None,,,,,,,,,,,,,,,,,,,,,,,,,,,,,,230.25678729999981,None,230.25678729999981,None,230.25678729999981,None,230.25678729999981,None,230.25678729999981,None,230.25678729999981,None,230.25678729999981,None,k,1,0.4976206999999704,230.25678729999981,None,,,,,,,,,,,,,23,001,2022_Oct_22_1848,Flanker,2021.2.0,239.54907282360125,
neutral right,0,k,neutral.png,neutral.png,neutral.png,right_arrow.png,neutral.png,neutral.png,neutral.png,,,,,,,,,3,3,21,5,,,,,,,,,230.77398470000026,None,,,,,,,,,,,,,,,,,,,,,,,,,,,,,,231.78754990000016,None,231.78754990000016,None,231.78754990000016,None,231.78754990000016,None,231.78754990000016,None,231.78754990000016,None,231.78754990000016,None,k,1,0.4550030999998853,231.78754990000016,None,,,,,,,,,,,,,23,001,2022_Oct_22_1848,Flanker,2021.2.0,239.54907282360125,
neutral right,0,k,neutral.png,neutral.png,neutral.png,right_arrow.png,neutral.png,neutral.png,neutral.png,,,,,,,,,3,4,22,5,,,,,,,,,232.25495599999977,None,,,,,,,,,,,,,,,,,,,,,,,,,,,,,,233.26842440000019,None,233.26842440000019,None,233.26842440000019,None,233.26842440000019,None,233.26842440000019,None,233.26842440000019,None,233.26842440000019,None,k,1,0.40631930000017746,233.26842440000019,None,,,,,,,,,,,,,23,001,2022_Oct_22_1848,Flanker,2021.2.0,239.54907282360125,
incongruent-right.jpg,0,k,left_arrow.png,left_arrow.png,left_arrow.png,right_arrow.png,left_arrow.png,left_arrow.png,left_arrow.png,,,,,,,,,3,5,23,3,,,,,,,,,233.6937324999999,None,,,,,,,,,,,,,,,,,,,,,,,,,,,,,,234.70746130000043,None,234.70746130000043,None,234.70746130000043,None,234.70746130000043,None,234.70746130000043,None,234.70746130000043,None,234.70746130000043,None,k,1,0.5595207000005757,234.70746130000043,None,,,,,,,,,,,,,23,001,2022_Oct_22_1848,Flanker,2021.2.0,239.54907282360125,
incongruent-left.jpg,0,a,right_arrow.png,right_arrow.png,right_arrow.png,left_arrow.png,right_arrow.png,right_arrow.png,right_arrow.png,,,,,,,,,4,0,24,1,,,,,,,,,235.2829287000004,None,,,,,,,,,,,,,,,,,,,,,,,,,,,,,,236.29249640000035,None,236.29249640000035,None,236.29249640000035,None,236.29249640000035,None,236.29249640000035,None,236.29249640000035,None,236.29249640000035,None,a,1,0.4226767000000109,236.29249640000035,None,,,,,,,,,,,,,23,001,2022_Oct_22_1848,Flanker,2021.2.0,239.54907282360125,
neutral right,0,k,neutral.png,neutral.png,neutral.png,right_arrow.png,neutral.png,neutral.png,neutral.png,,,,,,,,,4,1,25,5,,,,,,,,,236.7345559000005,None,,,,,,,,,,,,,,,,,,,,,,,,,,,,,,237.7440247000004,None,237.7440247000004,None,237.7440247000004,None,237.7440247000004,None,237.7440247000004,None,237.7440247000004,None,237.7440247000004,None,k,1,0.46735889999945357,237.7440247000004,None,,,,,,,,,,,,,23,001,2022_Oct_22_1848,Flanker,2021.2.0,239.54907282360125,
congruent-right.jpg,1,k,right_arrow.png,right_arrow.png,right_arrow.png,right_arrow.png,right_arrow.png,right_arrow.png,right_arrow.png,,,,,,,,,4,2,26,2,,,,,,,,,238.22773610000058,None,,,,,,,,,,,,,,,,,,,,,,,,,,,,,,239.2412930999999,None,239.2412930999999,None,239.2412930999999,None,239.2412930999999,None,239.2412930999999,None,239.2412930999999,None,239.2412930999999,None,k,1,0.4023035999998683,239.2412930999999,None,,,,,,,,,,,,,23,001,2022_Oct_22_1848,Flanker,2021.2.0,239.54907282360125,
congruent-left.jpg,1,a,left_arrow.png,left_arrow.png,left_arrow.png,left_arrow.png,left_arrow.png,left_arrow.png,left_arrow.png,,,,,,,,,4,3,27,0,,,,,,,,,239.6584186,None,,,,,,,,,,,,,,,,,,,,,,,,,,,,,,240.66797700000006,None,240.66797700000006,None,240.66797700000006,None,240.66797700000006,None,240.66797700000006,None,240.66797700000006,None,240.66797700000006,None,a,1,0.423918199999207,240.66797700000006,None,,,,,,,,,,,,,23,001,2022_Oct_22_1848,Flanker,2021.2.0,239.54907282360125,
congruent-left.jpg,1,a,left_arrow.png,left_arrow.png,left_arrow.png,left_arrow.png,left_arrow.png,left_arrow.png,left_arrow.png,,,,,,,,,4,4,28,0,,,,,,,,,241.11003140000048,None,,,,,,,,,,,,,,,,,,,,,,,,,,,,,,242.11951050000062,None,242.11951050000062,None,242.11951050000062,None,242.11951050000062,None,242.11951050000062,None,242.11951050000062,None,242.11951050000062,None,a,1,0.4205266000008123,242.11951050000062,None,,,,,,,,,,,,,23,001,2022_Oct_22_1848,Flanker,2021.2.0,239.54907282360125,
incongruent-right.jpg,0,k,left_arrow.png,left_arrow.png,left_arrow.png,right_arrow.png,left_arrow.png,left_arrow.png,left_arrow.png,,,,,,,,,4,5,29,3,,,,,,,,,242.55313600000045,None,,,,,,,,,,,,,,,,,,,,,,,,,,,,,,243.566871,None,243.566871,None,243.566871,None,243.566871,None,243.566871,None,243.566871,None,243.566871,None,k,1,0.5172910999999658,243.566871,None,,,,,,,,,,,,,23,001,2022_Oct_22_1848,Flanker,2021.2.0,239.54907282360125,
congruent-left.jpg,1,a,left_arrow.png,left_arrow.png,left_arrow.png,left_arrow.png,left_arrow.png,left_arrow.png,left_arrow.png,,,,,,,,,5,0,30,0,,,,,,,,,244.10060560000056,None,,,,,,,,,,,,,,,,,,,,,,,,,,,,,,245.1101589,None,245.1101589,None,245.1101589,None,245.1101589,None,245.1101589,None,245.1101589,None,245.1101589,None,a,1,0.5421975999997812,245.1101589,None,,,,,,,,,,,,,23,001,2022_Oct_22_1848,Flanker,2021.2.0,239.54907282360125,
neutral left,0,a,neutral.png,neutral.png,neutral.png,left_arrow.png,neutral.png,neutral.png,neutral.png,,,,,,,,,5,1,31,4,,,,,,,,,245.66910370000005,None,,,,,,,,,,,,,,,,,,,,,,,,,,,,,,246.6827487999999,None,246.6827487999999,None,246.6827487999999,None,246.6827487999999,None,246.6827487999999,None,246.6827487999999,None,246.6827487999999,None,a,1,0.5860378999996101,246.6827487999999,None,,,,,,,,,,,,,23,001,2022_Oct_22_1848,Flanker,2021.2.0,239.54907282360125,
congruent-left.jpg,1,a,left_arrow.png,left_arrow.png,left_arrow.png,left_arrow.png,left_arrow.png,left_arrow.png,left_arrow.png,,,,,,,,,5,2,32,0,,,,,,,,,247.28323180000007,None,,,,,,,,,,,,,,,,,,,,,,,,,,,,,,248.2971004000001,None,248.2971004000001,None,248.2971004000001,None,248.2971004000001,None,248.2971004000001,None,248.2971004000001,None,248.2971004000001,None,a,1,0.46771799999987707,248.2971004000001,None,,,,,,,,,,,,,23,001,2022_Oct_22_1848,Flanker,2021.2.0,239.54907282360125,
congruent-left.jpg,1,a,left_arrow.png,left_arrow.png,left_arrow.png,left_arrow.png,left_arrow.png,left_arrow.png,left_arrow.png,,,,,,,,,5,3,33,0,,,,,,,,,248.7809060999998,None,,,,,,,,,,,,,,,,,,,,,,,,,,,,,,249.79009170000063,None,249.79009170000063,None,249.79009170000063,None,249.79009170000063,None,249.79009170000063,None,249.79009170000063,None,249.79009170000063,None,a,1,0.4070631000004141,249.79009170000063,None,,,,,,,,,,,,,23,001,2022_Oct_22_1848,Flanker,2021.2.0,239.54907282360125,
incongruent-right.jpg,0,k,left_arrow.png,left_arrow.png,left_arrow.png,right_arrow.png,left_arrow.png,left_arrow.png,left_arrow.png,,,,,,,,,5,4,34,3,,,,,,,,,250.21545640000022,None,,,,,,,,,,,,,,,,,,,,,,,,,,,,,,251.2249879000001,None,251.2249879000001,None,251.2249879000001,None,251.2249879000001,None,251.2249879000001,None,251.2249879000001,None,251.2249879000001,None,k,1,0.4362349000002723,251.2249879000001,None,,,,,,,,,,,,,23,001,2022_Oct_22_1848,Flanker,2021.2.0,239.54907282360125,
congruent-right.jpg,1,k,right_arrow.png,right_arrow.png,right_arrow.png,right_arrow.png,right_arrow.png,right_arrow.png,right_arrow.png,,,,,,,,,5,5,35,2,,,,,,,,,251.6754474999998,None,,,,,,,,,,,,,,,,,,,,,,,,,,,,,,252.6890643000006,None,252.6890643000006,None,252.6890643000006,None,252.6890643000006,None,252.6890643000006,None,252.6890643000006,None,252.6890643000006,None,a,0,0.5326856000001499,252.6890643000006,None,,,,,,,,,,,,,23,001,2022_Oct_22_1848,Flanker,2021.2.0,239.54907282360125,
incongruent-right.jpg,0,k,left_arrow.png,left_arrow.png,left_arrow.png,right_arrow.png,left_arrow.png,left_arrow.png,left_arrow.png,,,,,,,,,6,0,36,3,,,,,,,,,253.23954140000023,None,,,,,,,,,,,,,,,,,,,,,,,,,,,,,,254.2490916000006,None,254.2490916000006,None,254.2490916000006,None,254.2490916000006,None,254.2490916000006,None,254.2490916000006,None,254.2490916000006,None,k,1,0.7328492999995433,254.2490916000006,None,,,,,,,,,,,,,23,001,2022_Oct_22_1848,Flanker,2021.2.0,239.54907282360125,
neutral left,0,a,neutral.png,neutral.png,neutral.png,left_arrow.png,neutral.png,neutral.png,neutral.png,,,,,,,,,6,1,37,4,,,,,,,,,254.9998252000005,None,,,,,,,,,,,,,,,,,,,,,,,,,,,,,,256.0134108000002,None,256.0134108000002,None,256.0134108000002,None,256.0134108000002,None,256.0134108000002,None,256.0134108000002,None,256.0134108000002,None,a,1,0.4884572000000844,256.0134108000002,None,,,,,,,,,,,,,23,001,2022_Oct_22_1848,Flanker,2021.2.0,239.54907282360125,
neutral right,0,k,neutral.png,neutral.png,neutral.png,right_arrow.png,neutral.png,neutral.png,neutral.png,,,,,,,,,6,2,38,5,,,,,,,,,256.5138033000003,None,,,,,,,,,,,,,,,,,,,,,,,,,,,,,,257.52324320000025,None,257.52324320000025,None,257.52324320000025,None,257.52324320000025,None,257.52324320000025,None,257.52324320000025,None,257.52324320000025,None,k,1,0.47484809999969,257.52324320000025,None,,,,,,,,,,,,,23,001,2022_Oct_22_1848,Flanker,2021.2.0,239.54907282360125,
congruent-right.jpg,1,k,right_arrow.png,right_arrow.png,right_arrow.png,right_arrow.png,right_arrow.png,right_arrow.png,right_arrow.png,,,,,,,,,6,3,39,2,,,,,,,,,258.01540040000054,None,,,,,,,,,,,,,,,,,,,,,,,,,,,,,,259.0290894,None,259.0290894,None,259.0290894,None,259.0290894,None,259.0290894,None,259.0290894,None,259.0290894,None,k,1,0.5132267999997566,259.0290894,None,,,,,,,,,,,,,23,001,2022_Oct_22_1848,Flanker,2021.2.0,239.54907282360125,
congruent-left.jpg,1,a,left_arrow.png,left_arrow.png,left_arrow.png,left_arrow.png,left_arrow.png,left_arrow.png,left_arrow.png,,,,,,,,,6,4,40,0,,,,,,,,,259.55452180000066,None,,,,,,,,,,,,,,,,,,,,,,,,,,,,,,260.5682271000005,None,260.5682271000005,None,260.5682271000005,None,260.5682271000005,None,260.5682271000005,None,260.5682271000005,None,260.5682271000005,None,a,1,0.5023085999991963,260.5682271000005,None,,,,,,,,,,,,,23,001,2022_Oct_22_1848,Flanker,2021.2.0,239.54907282360125,
congruent-left.jpg,1,a,left_arrow.png,left_arrow.png,left_arrow.png,left_arrow.png,left_arrow.png,left_arrow.png,left_arrow.png,,,,,,,,,6,5,41,0,,,,,,,,,261.0853289000006,None,,,,,,,,,,,,,,,,,,,,,,,,,,,,,,262.0948291000004,None,262.0948291000004,None,262.0948291000004,None,262.0948291000004,None,262.0948291000004,None,262.0948291000004,None,262.0948291000004,None,a,1,0.48787649999940186,262.0948291000004,None,,,,,,,,,,,,,23,001,2022_Oct_22_1848,Flanker,2021.2.0,239.54907282360125,
congruent-left.jpg,1,a,left_arrow.png,left_arrow.png,left_arrow.png,left_arrow.png,left_arrow.png,left_arrow.png,left_arrow.png,,,,,,,,,7,0,42,0,,,,,,,,,262.59526470000037,None,,,,,,,,,,,,,,,,,,,,,,,,,,,,,,263.6048384000005,None,263.6048384000005,None,263.6048384000005,None,263.6048384000005,None,263.6048384000005,None,263.6048384000005,None,263.6048384000005,None,a,1,0.44212210000023333,263.6048384000005,None,,,,,,,,,,,,,23,001,2022_Oct_22_1848,Flanker,2021.2.0,239.54907282360125,
neutral right,0,k,neutral.png,neutral.png,neutral.png,right_arrow.png,neutral.png,neutral.png,neutral.png,,,,,,,,,7,1,43,5,,,,,,,,,264.0637807000003,None,,,,,,,,,,,,,,,,,,,,,,,,,,,,,,265.0728872999998,None,265.0728872999998,None,265.0728872999998,None,265.0728872999998,None,265.0728872999998,None,265.0728872999998,None,265.0728872999998,None,k,1,0.5102351000005001,265.0728872999998,None,,,,,,,,,,,,,23,001,2022_Oct_22_1848,Flanker,2021.2.0,239.54907282360125,
incongruent-left.jpg,0,a,right_arrow.png,right_arrow.png,right_arrow.png,left_arrow.png,right_arrow.png,right_arrow.png,right_arrow.png,,,,,,,,,7,2,44,1,,,,,,,,,265.5985062,None,,,,,,,,,,,,,,,,,,,,,,,,,,,,,,266.60785080000005,None,266.60785080000005,None,266.60785080000005,None,266.60785080000005,None,266.60785080000005,None,266.60785080000005,None,266.60785080000005,None,a,1,0.6234946000004129,266.60785080000005,None,,,,,,,,,,,,,23,001,2022_Oct_22_1848,Flanker,2021.2.0,239.54907282360125,
incongruent-right.jpg,0,k,left_arrow.png,left_arrow.png,left_arrow.png,right_arrow.png,left_arrow.png,left_arrow.png,left_arrow.png,,,,,,,,,7,3,45,3,,,,,,,,,267.2501895000005,None,,,,,,,,,,,,,,,,,,,,,,,,,,,,,,268.2679029000001,None,268.2679029000001,None,268.2679029000001,None,268.2679029000001,None,268.2679029000001,None,268.2679029000001,None,268.2679029000001,None,k,1,0.7476892999993652,268.2679029000001,None,,,,,,,,,,,,,23,001,2022_Oct_22_1848,Flanker,2021.2.0,239.54907282360125,
congruent-right.jpg,1,k,right_arrow.png,right_arrow.png,right_arrow.png,right_arrow.png,right_arrow.png,right_arrow.png,right_arrow.png,,,,,,,,,7,4,46,2,,,,,,,,,269.02708729999995,None,,,,,,,,,,,,,,,,,,,,,,,,,,,,,,270.03656409999985,None,270.03656409999985,None,270.03656409999985,None,270.03656409999985,None,270.03656409999985,None,270.03656409999985,None,270.03656409999985,None,k,1,0.515246400000251,270.03656409999985,None,,,,,,,,,,,,,23,001,2022_Oct_22_1848,Flanker,2021.2.0,239.54907282360125,
incongruent-left.jpg,0,a,right_arrow.png,right_arrow.png,right_arrow.png,left_arrow.png,right_arrow.png,right_arrow.png,right_arrow.png,,,,,,,,,7,5,47,1,,,,,,,,,270.57038400000056,None,,,,,,,,,,,,,,,,,,,,,,,,,,,,,,271.5840939999998,None,271.5840939999998,None,271.5840939999998,None,271.5840939999998,None,271.5840939999998,None,271.5840939999998,None,271.5840939999998,None,a,1,0.5119006999993871,271.5840939999998,None,,,,,,,,,,,,,23,001,2022_Oct_22_1848,Flanker,2021.2.0,239.54907282360125,
,,,,,,,,,,,,,,,,,,,,,,,,,,,,,,,,,,,,,,,,,,,,,,,,,,,,,,,,,,,,,,,,,,,,,,,,,,,,,,,,272.1220916000002,None,space,2.0543087999994896,272.1220916000002,None,,,,,,,23,001,2022_Oct_22_1848,Flanker,2021.2.0,239.54907282360125,
neutral right,0,k,neutral.png,neutral.png,neutral.png,right_arrow.png,neutral.png,neutral.png,neutral.png,,,,,,,,,,,,,0,0,0,5,,,,,274.19931670000005,None,,,,,,,,,,,,,,,,,,,,,,,,,,,,,,275.20888300000024,None,275.20888300000024,None,275.20888300000024,None,275.20888300000024,None,275.20888300000024,None,275.20888300000024,None,275.20888300000024,None,k,1,1.8798314999994545,275.20888300000024,None,,,,,,,,,,,,,23,001,2022_Oct_22_1848,Flanker,2021.2.0,239.54907282360125,
neutral right,0,k,neutral.png,neutral.png,neutral.png,right_arrow.png,neutral.png,neutral.png,neutral.png,,,,,,,,,,,,,0,1,1,5,,,,,277.10241870000027,None,,,,,,,,,,,,,,,,,,,,,,,,,,,,,,278.1161200000006,None,278.1161200000006,None,278.1161200000006,None,278.1161200000006,None,278.1161200000006,None,278.1161200000006,None,278.1161200000006,None,k,1,0.5567700999999943,278.1161200000006,None,,,,,,,,,,,,,23,001,2022_Oct_22_1848,Flanker,2021.2.0,239.54907282360125,
incongruent-left.jpg,0,a,right_arrow.png,right_arrow.png,right_arrow.png,left_arrow.png,right_arrow.png,right_arrow.png,right_arrow.png,,,,,,,,,,,,,0,2,2,1,,,,,278.69150770000033,None,,,,,,,,,,,,,,,,,,,,,,,,,,,,,,279.7012093000003,None,279.7012093000003,None,279.7012093000003,None,279.7012093000003,None,279.7012093000003,None,279.7012093000003,None,279.7012093000003,None,a,1,0.5160126999999193,279.7012093000003,None,,,,,,,,,,,,,23,001,2022_Oct_22_1848,Flanker,2021.2.0,239.54907282360125,
incongruent-left.jpg,0,a,right_arrow.png,right_arrow.png,right_arrow.png,left_arrow.png,right_arrow.png,right_arrow.png,right_arrow.png,,,,,,,,,,,,,0,3,3,1,,,,,280.23480089999975,None,,,,,,,,,,,,,,,,,,,,,,,,,,,,,,281.24838940000063,None,281.24838940000063,None,281.24838940000063,None,281.24838940000063,None,281.24838940000063,None,281.24838940000063,None,281.24838940000063,None,a,1,0.4889234000002034,281.24838940000063,None,,,,,,,,,,,,,23,001,2022_Oct_22_1848,Flanker,2021.2.0,239.54907282360125,
neutral right,0,k,neutral.png,neutral.png,neutral.png,right_arrow.png,neutral.png,neutral.png,neutral.png,,,,,,,,,,,,,0,4,4,5,,,,,281.74892420000015,None,,,,,,,,,,,,,,,,,,,,,,,,,,,,,,282.7583177000006,None,282.7583177000006,None,282.7583177000006,None,282.7583177000006,None,282.7583177000006,None,282.7583177000006,None,282.7583177000006,None,k,1,0.6032310000000507,282.7583177000006,None,,,,,,,,,,,,,23,001,2022_Oct_22_1848,Flanker,2021.2.0,239.54907282360125,
neutral left,0,a,neutral.png,neutral.png,neutral.png,left_arrow.png,neutral.png,neutral.png,neutral.png,,,,,,,,,,,,,0,5,5,4,,,,,283.37565110000014,None,,,,,,,,,,,,,,,,,,,,,,,,,,,,,,284.3850824000001,None,284.3850824000001,None,284.3850824000001,None,284.3850824000001,None,284.3850824000001,None,284.3850824000001,None,284.3850824000001,None,a,1,0.5446584999999686,284.3850824000001,None,,,,,,,,,,,,,23,001,2022_Oct_22_1848,Flanker,2021.2.0,239.54907282360125,
incongruent-left.jpg,0,a,right_arrow.png,right_arrow.png,right_arrow.png,left_arrow.png,right_arrow.png,right_arrow.png,right_arrow.png,,,,,,,,,,,,,1,0,6,1,,,,,284.9442073,None,,,,,,,,,,,,,,,,,,,,,,,,,,,,,,285.9533706000002,None,285.9533706000002,None,285.9533706000002,None,285.9533706000002,None,285.9533706000002,None,285.9533706000002,None,285.9533706000002,None,a,1,0.5366308999991816,285.9533706000002,None,,,,,,,,,,,,,23,001,2022_Oct_22_1848,Flanker,2021.2.0,239.54907282360125,
congruent-left.jpg,1,a,left_arrow.png,left_arrow.png,left_arrow.png,left_arrow.png,left_arrow.png,left_arrow.png,left_arrow.png,,,,,,,,,,,,,1,1,7,0,,,,,286.5039532999999,None,,,,,,,,,,,,,,,,,,,,,,,,,,,,,,287.51349650000066,None,287.51349650000066,None,287.51349650000066,None,287.51349650000066,None,287.51349650000066,None,287.51349650000066,None,287.51349650000066,None,a,1,0.4006951000001209,287.51349650000066,None,,,,,,,,,,,,,23,001,2022_Oct_22_1848,Flanker,2021.2.0,239.54907282360125,
incongruent-left.jpg,0,a,right_arrow.png,right_arrow.png,right_arrow.png,left_arrow.png,right_arrow.png,right_arrow.png,right_arrow.png,,,,,,,,,,,,,1,2,8,1,,,,,287.9306770000003,None,,,,,,,,,,,,,,,,,,,,,,,,,,,,,,288.9400234000004,None,288.9400234000004,None,288.9400234000004,None,288.9400234000004,None,288.9400234000004,None,288.9400234000004,None,288.9400234000004,None,a,1,0.4943383999998332,288.9400234000004,None,,,,,,,,,,,,,23,001,2022_Oct_22_1848,Flanker,2021.2.0,239.54907282360125,
incongruent-right.jpg,0,k,left_arrow.png,left_arrow.png,left_arrow.png,right_arrow.png,left_arrow.png,left_arrow.png,left_arrow.png,,,,,,,,,,,,,1,3,9,3,,,,,289.4488158000004,None,,,,,,,,,,,,,,,,,,,,,,,,,,,,,,290.45821570000044,None,290.45821570000044,None,290.45821570000044,None,290.45821570000044,None,290.45821570000044,None,290.45821570000044,None,290.45821570000044,None,k,1,0.520379700000376,290.45821570000044,None,,,,,,,,,,,,,23,001,2022_Oct_22_1848,Flanker,2021.2.0,239.54907282360125,
congruent-left.jpg,1,a,left_arrow.png,left_arrow.png,left_arrow.png,left_arrow.png,left_arrow.png,left_arrow.png,left_arrow.png,,,,,,,,,,,,,1,4,10,0,,,,,290.99213580000014,None,,,,,,,,,,,,,,,,,,,,,,,,,,,,,,292.0056534000005,None,292.0056534000005,None,292.0056534000005,None,292.0056534000005,None,292.0056534000005,None,292.0056534000005,None,292.0056534000005,None,a,1,0.40510970000013913,292.0056534000005,None,,,,,,,,,,,,,23,001,2022_Oct_22_1848,Flanker,2021.2.0,239.54907282360125,
neutral right,0,k,neutral.png,neutral.png,neutral.png,right_arrow.png,neutral.png,neutral.png,neutral.png,,,,,,,,,,,,,1,5,11,5,,,,,292.4227423000002,None,,,,,,,,,,,,,,,,,,,,,,,,,,,,,,293.4364569999998,None,293.4364569999998,None,293.4364569999998,None,293.4364569999998,None,293.4364569999998,None,293.4364569999998,None,293.4364569999998,None,k,1,0.2865189999993163,293.4364569999998,None,,,,,,,,,,,,,23,001,2022_Oct_22_1848,Flanker,2021.2.0,239.54907282360125,
congruent-right.jpg,1,k,right_arrow.png,right_arrow.png,right_arrow.png,right_arrow.png,right_arrow.png,right_arrow.png,right_arrow.png,,,,,,,,,,,,,2,0,12,2,,,,,293.73662669999976,None,,,,,,,,,,,,,,,,,,,,,,,,,,,,,,294.7460363,None,294.7460363,None,294.7460363,None,294.7460363,None,294.7460363,None,294.7460363,None,294.7460363,None,k,1,0.4971249000000171,294.7460363,None,,,,,,,,,,,,,23,001,2022_Oct_22_1848,Flanker,2021.2.0,239.54907282360125,
neutral left,0,a,neutral.png,neutral.png,neutral.png,left_arrow.png,neutral.png,neutral.png,neutral.png,,,,,,,,,,,,,2,1,13,4,,,,,295.2549061999998,None,,,,,,,,,,,,,,,,,,,,,,,,,,,,,,296.26444040000024,None,296.26444040000024,None,296.26444040000024,None,296.26444040000024,None,296.26444040000024,None,296.26444040000024,None,296.26444040000024,None,a,1,0.4669363000002704,296.26444040000024,None,,,,,,,,,,,,,23,001,2022_Oct_22_1848,Flanker,2021.2.0,239.54907282360125,
congruent-left.jpg,1,a,left_arrow.png,left_arrow.png,left_arrow.png,left_arrow.png,left_arrow.png,left_arrow.png,left_arrow.png,,,,,,,,,,,,,2,2,14,0,,,,,296.74837389999993,None,,,,,,,,,,,,,,,,,,,,,,,,,,,,,,297.76172190000034,None,297.76172190000034,None,297.76172190000034,None,297.76172190000034,None,297.76172190000034,None,297.76172190000034,None,297.76172190000034,None,a,1,0.6258595999997851,297.76172190000034,None,,,,,,,,,,,,,23,001,2022_Oct_22_1848,Flanker,2021.2.0,239.54907282360125,
incongruent-left.jpg,0,a,right_arrow.png,right_arrow.png,right_arrow.png,left_arrow.png,right_arrow.png,right_arrow.png,right_arrow.png,,,,,,,,,,,,,2,3,15,1,,,,,298.40408819999993,None,,,,,,,,,,,,,,,,,,,,,,,,,,,,,,299.40939510000044,None,299.40939510000044,None,299.40939510000044,None,299.40939510000044,None,299.40939510000044,None,299.40939510000044,None,299.40939510000044,None,a,1,0.5784432000000379,299.40939510000044,None,,,,,,,,,,,,,23,001,2022_Oct_22_1848,Flanker,2021.2.0,239.54907282360125,
congruent-left.jpg,1,a,left_arrow.png,left_arrow.png,left_arrow.png,left_arrow.png,left_arrow.png,left_arrow.png,left_arrow.png,,,,,,,,,,,,,2,4,16,0,,,,,300.00160180000057,None,,,,,,,,,,,,,,,,,,,,,,,,,,,,,,301.0068202000002,None,301.0068202000002,None,301.0068202000002,None,301.0068202000002,None,301.0068202000002,None,301.0068202000002,None,301.0068202000002,None,a,1,0.3731921999997212,301.0068202000002,None,,,,,,,,,,,,,23,001,2022_Oct_22_1848,Flanker,2021.2.0,239.54907282360125,
incongruent-left.jpg,0,a,right_arrow.png,right_arrow.png,right_arrow.png,left_arrow.png,right_arrow.png,right_arrow.png,right_arrow.png,,,,,,,,,,,,,2,5,17,1,,,,,301.3989214000003,None,,,,,,,,,,,,,,,,,,,,,,,,,,,,,,302.4084565000003,None,302.4084565000003,None,302.4084565000003,None,302.4084565000003,None,302.4084565000003,None,302.4084565000003,None,302.4084565000003,None,a,1,0.40374659999997675,302.4084565000003,None,,,,,,,,,,,,,23,001,2022_Oct_22_1848,Flanker,2021.2.0,239.54907282360125,
congruent-right.jpg,1,k,right_arrow.png,right_arrow.png,right_arrow.png,right_arrow.png,right_arrow.png,right_arrow.png,right_arrow.png,,,,,,,,,,,,,3,0,18,2,,,,,302.82542809999995,None,,,,,,,,,,,,,,,,,,,,,,,,,,,,,,303.8390687000001,None,303.8390687000001,None,303.8390687000001,None,303.8390687000001,None,303.8390687000001,None,303.8390687000001,None,303.8390687000001,None,k,1,0.3893097000000125,303.8390687000001,None,,,,,,,,,,,,,23,001,2022_Oct_22_1848,Flanker,2021.2.0,239.54907282360125,
neutral left,0,a,neutral.png,neutral.png,neutral.png,left_arrow.png,neutral.png,neutral.png,neutral.png,,,,,,,,,,,,,3,1,19,4,,,,,304.23946090000027,None,,,,,,,,,,,,,,,,,,,,,,,,,,,,,,305.24887089999993,None,305.24887089999993,None,305.24887089999993,None,305.24887089999993,None,305.24887089999993,None,305.24887089999993,None,305.24887089999993,None,a,1,0.411670999999842,305.24887089999993,None,,,,,,,,,,,,,23,001,2022_Oct_22_1848,Flanker,2021.2.0,239.54907282360125,
incongruent-left.jpg,0,a,right_arrow.png,right_arrow.png,right_arrow.png,left_arrow.png,right_arrow.png,right_arrow.png,right_arrow.png,,,,,,,,,,,,,3,2,20,1,,,,,305.67429619999984,None,,,,,,,,,,,,,,,,,,,,,,,,,,,,,,306.68368310000005,None,306.68368310000005,None,306.68368310000005,None,306.68368310000005,None,306.68368310000005,None,306.68368310000005,None,306.68368310000005,None,a,1,0.44126999999934924,306.68368310000005,None,,,,,,,,,,,,,23,001,2022_Oct_22_1848,Flanker,2021.2.0,239.54907282360125,
incongruent-right.jpg,0,k,left_arrow.png,left_arrow.png,left_arrow.png,right_arrow.png,left_arrow.png,left_arrow.png,left_arrow.png,,,,,,,,,,,,,3,3,21,3,,,,,307.14267610000024,None,,,,,,,,,,,,,,,,,,,,,,,,,,,,,,308.1520709000006,None,308.1520709000006,None,308.1520709000006,None,308.1520709000006,None,308.1520709000006,None,308.1520709000006,None,308.1520709000006,None,a,0,0.36492720000023837,308.1520709000006,None,,,,,,,,,,,,,23,001,2022_Oct_22_1848,Flanker,2021.2.0,239.54907282360125,
neutral right,0,k,neutral.png,neutral.png,neutral.png,right_arrow.png,neutral.png,neutral.png,neutral.png,,,,,,,,,,,,,3,4,22,5,,,,,308.5358121999998,None,,,,,,,,,,,,,,,,,,,,,,,,,,,,,,309.54508239999996,None,309.54508239999996,None,309.54508239999996,None,309.54508239999996,None,309.54508239999996,None,309.54508239999996,None,309.54508239999996,None,k,1,0.7083015000007435,309.54508239999996,None,,,,,,,,,,,,,23,001,2022_Oct_22_1848,Flanker,2021.2.0,239.54907282360125,
incongruent-left.jpg,0,a,right_arrow.png,right_arrow.png,right_arrow.png,left_arrow.png,right_arrow.png,right_arrow.png,right_arrow.png,,,,,,,,,,,,,3,5,23,1,,,,,310.2709783,None,,,,,,,,,,,,,,,,,,,,,,,,,,,,,,311.2846322000005,None,311.2846322000005,None,311.2846322000005,None,311.2846322000005,None,311.2846322000005,None,311.2846322000005,None,311.2846322000005,None,a,1,0.7209790000006251,311.2846322000005,None,,,,,,,,,,,,,23,001,2022_Oct_22_1848,Flanker,2021.2.0,239.54907282360125,
neutral right,0,k,neutral.png,neutral.png,neutral.png,right_arrow.png,neutral.png,neutral.png,neutral.png,,,,,,,,,,,,,4,0,24,5,,,,,312.01866450000034,None,,,,,,,,,,,,,,,,,,,,,,,,,,,,,,313.03224970000065,None,313.03224970000065,None,313.03224970000065,None,313.03224970000065,None,313.03224970000065,None,313.03224970000065,None,313.03224970000065,None,k,1,0.4935650999996142,313.03224970000065,None,,,,,,,,,,,,,23,001,2022_Oct_22_1848,Flanker,2021.2.0,239.54907282360125,
congruent-right.jpg,1,k,right_arrow.png,right_arrow.png,right_arrow.png,right_arrow.png,right_arrow.png,right_arrow.png,right_arrow.png,,,,,,,,,,,,,4,1,25,2,,,,,313.54111620000003,None,,,,,,,,,,,,,,,,,,,,,,,,,,,,,,314.55456030000005,None,314.55456030000005,None,314.55456030000005,None,314.55456030000005,None,314.55456030000005,None,314.55456030000005,None,314.55456030000005,None,k,1,0.4195809000002555,314.55456030000005,None,,,,,,,,,,,,,23,001,2022_Oct_22_1848,Flanker,2021.2.0,239.54907282360125,
neutral left,0,a,neutral.png,neutral.png,neutral.png,left_arrow.png,neutral.png,neutral.png,neutral.png,,,,,,,,,,,,,4,2,26,4,,,,,314.98834330000045,None,,,,,,,,,,,,,,,,,,,,,,,,,,,,,,316.00205820000065,None,316.00205820000065,None,316.00205820000065,None,316.00205820000065,None,316.00205820000065,None,316.00205820000065,None,316.00205820000065,None,a,1,0.4841675999996369,316.00205820000065,None,,,,,,,,,,,,,23,001,2022_Oct_22_1848,Flanker,2021.2.0,239.54907282360125,
neutral left,0,a,neutral.png,neutral.png,neutral.png,left_arrow.png,neutral.png,neutral.png,neutral.png,,,,,,,,,,,,,4,3,27,4,,,,,316.5025910000004,None,,,,,,,,,,,,,,,,,,,,,,,,,,,,,,317.51624100000026,None,317.51624100000026,None,317.51624100000026,None,317.51624100000026,None,317.51624100000026,None,317.51624100000026,None,317.51624100000026,None,a,1,0.5140237999994497,317.51624100000026,None,,,,,,,,,,,,,23,001,2022_Oct_22_1848,Flanker,2021.2.0,239.54907282360125,
congruent-left.jpg,1,a,left_arrow.png,left_arrow.png,left_arrow.png,left_arrow.png,left_arrow.png,left_arrow.png,left_arrow.png,,,,,,,,,,,,,4,4,28,0,,,,,318.0417121999999,None,,,,,,,,,,,,,,,,,,,,,,,,,,,,,,319.05099530000007,None,319.05099530000007,None,319.05099530000007,None,319.05099530000007,None,319.05099530000007,None,319.05099530000007,None,319.05099530000007,None,a,1,0.32362540000031004,319.05099530000007,None,,,,,,,,,,,,,23,001,2022_Oct_22_1848,Flanker,2021.2.0,239.54907282360125,
congruent-right.jpg,1,k,right_arrow.png,right_arrow.png,right_arrow.png,right_arrow.png,right_arrow.png,right_arrow.png,right_arrow.png,,,,,,,,,,,,,4,5,29,2,,,,,319.3931757999999,None,,,,,,,,,,,,,,,,,,,,,,,,,,,,,,320.4026504000003,None,320.4026504000003,None,320.4026504000003,None,320.4026504000003,None,320.4026504000003,None,320.4026504000003,None,320.4026504000003,None,k,1,0.4040534000005209,320.4026504000003,None,,,,,,,,,,,,,23,001,2022_Oct_22_1848,Flanker,2021.2.0,239.54907282360125,
congruent-right.jpg,1,k,right_arrow.png,right_arrow.png,right_arrow.png,right_arrow.png,right_arrow.png,right_arrow.png,right_arrow.png,,,,,,,,,,,,,5,0,30,2,,,,,320.81967050000003,None,,,,,,,,,,,,,,,,,,,,,,,,,,,,,,321.83326149999994,None,321.83326149999994,None,321.83326149999994,None,321.83326149999994,None,321.83326149999994,None,321.83326149999994,None,321.83326149999994,None,k,1,0.477860399999372,321.83326149999994,None,,,,,,,,,,,,,23,001,2022_Oct_22_1848,Flanker,2021.2.0,239.54907282360125,
neutral right,0,k,neutral.png,neutral.png,neutral.png,right_arrow.png,neutral.png,neutral.png,neutral.png,,,,,,,,,,,,,5,1,31,5,,,,,322.32560360000025,None,,,,,,,,,,,,,,,,,,,,,,,,,,,,,,323.33894039999996,None,323.33894039999996,None,323.33894039999996,None,323.33894039999996,None,323.33894039999996,None,323.33894039999996,None,323.33894039999996,None,k,1,0.468414699999812,323.33894039999996,None,,,,,,,,,,,,,23,001,2022_Oct_22_1848,Flanker,2021.2.0,239.54907282360125,
neutral left,0,a,neutral.png,neutral.png,neutral.png,left_arrow.png,neutral.png,neutral.png,neutral.png,,,,,,,,,,,,,5,2,32,4,,,,,323.8228429999999,None,,,,,,,,,,,,,,,,,,,,,,,,,,,,,,324.84062110000013,None,324.84062110000013,None,324.84062110000013,None,324.84062110000013,None,324.84062110000013,None,324.84062110000013,None,324.84062110000013,None,a,1,0.9429790000003777,324.84062110000013,None,,,,,,,,,,,,,23,001,2022_Oct_22_1848,Flanker,2021.2.0,239.54907282360125,
congruent-left.jpg,1,a,left_arrow.png,left_arrow.png,left_arrow.png,left_arrow.png,left_arrow.png,left_arrow.png,left_arrow.png,,,,,,,,,,,,,5,3,33,0,,,,,325.80007810000006,None,,,,,,,,,,,,,,,,,,,,,,,,,,,,,,326.80936250000013,None,326.80936250000013,None,326.80936250000013,None,326.80936250000013,None,326.80936250000013,None,326.80936250000013,None,326.80936250000013,None,k,0,0.5024004999995668,326.80936250000013,None,,,,,,,,,,,,,23,001,2022_Oct_22_1848,Flanker,2021.2.0,239.54907282360125,
neutral left,0,a,neutral.png,neutral.png,neutral.png,left_arrow.png,neutral.png,neutral.png,neutral.png,,,,,,,,,,,,,5,4,34,4,,,,,327.32656940000015,None,,,,,,,,,,,,,,,,,,,,,,,,,,,,,,328.3401641999999,None,328.3401641999999,None,328.3401641999999,None,328.3401641999999,None,328.3401641999999,None,328.3401641999999,None,328.3401641999999,None,a,1,1.0678313999997044,328.3401641999999,None,,,,,,,,,,,,,23,001,2022_Oct_22_1848,Flanker,2021.2.0,239.54907282360125,
incongruent-right.jpg,0,k,left_arrow.png,left_arrow.png,left_arrow.png,right_arrow.png,left_arrow.png,left_arrow.png,left_arrow.png,,,,,,,,,,,,,5,5,35,3,,,,,329.42472350000025,None,,,,,,,,,,,,,,,,,,,,,,,,,,,,,,330.43821600000047,None,330.43821600000047,None,330.43821600000047,None,330.43821600000047,None,330.43821600000047,None,330.43821600000047,None,330.43821600000047,None,k,1,0.5058478000000832,330.43821600000047,None,,,,,,,,,,,,,23,001,2022_Oct_22_1848,Flanker,2021.2.0,239.54907282360125,
congruent-right.jpg,1,k,right_arrow.png,right_arrow.png,right_arrow.png,right_arrow.png,right_arrow.png,right_arrow.png,right_arrow.png,,,,,,,,,,,,,6,0,36,2,,,,,330.9553027000002,None,,,,,,,,,,,,,,,,,,,,,,,,,,,,,,331.97317290000046,None,331.97317290000046,None,331.97317290000046,None,331.97317290000046,None,331.97317290000046,None,331.97317290000046,None,331.97317290000046,None,k,1,0.6030826000005618,331.97317290000046,None,,,,,,,,,,,,,23,001,2022_Oct_22_1848,Flanker,2021.2.0,239.54907282360125,
incongruent-right.jpg,0,k,left_arrow.png,left_arrow.png,left_arrow.png,right_arrow.png,left_arrow.png,left_arrow.png,left_arrow.png,,,,,,,,,,,,,6,1,37,3,,,,,332.59035310000036,None,,,,,,,,,,,,,,,,,,,,,,,,,,,,,,333.59988859999976,None,333.59988859999976,None,333.59988859999976,None,333.59988859999976,None,333.59988859999976,None,333.59988859999976,None,333.59988859999976,None,k,1,0.512547799999993,333.59988859999976,None,,,,,,,,,,,,,23,001,2022_Oct_22_1848,Flanker,2021.2.0,239.54907282360125,
incongruent-right.jpg,0,k,left_arrow.png,left_arrow.png,left_arrow.png,right_arrow.png,left_arrow.png,left_arrow.png,left_arrow.png,,,,,,,,,,,,,6,2,38,3,,,,,334.1253966000004,None,,,,,,,,,,,,,,,,,,,,,,,,,,,,,,335.13479110000026,None,335.13479110000026,None,335.13479110000026,None,335.13479110000026,None,335.13479110000026,None,335.13479110000026,None,335.13479110000026,None,k,1,0.48194039999998495,335.13479110000026,None,,,,,,,,,,,,,23,001,2022_Oct_22_1848,Flanker,2021.2.0,239.54907282360125,
congruent-left.jpg,1,a,left_arrow.png,left_arrow.png,left_arrow.png,left_arrow.png,left_arrow.png,left_arrow.png,left_arrow.png,,,,,,,,,,,,,6,3,39,0,,,,,335.6353273000004,None,,,,,,,,,,,,,,,,,,,,,,,,,,,,,,336.64478039999995,None,336.64478039999995,None,336.64478039999995,None,336.64478039999995,None,336.64478039999995,None,336.64478039999995,None,336.64478039999995,None,a,1,0.42809200000010605,336.64478039999995,None,,,,,,,,,,,,,23,001,2022_Oct_22_1848,Flanker,2021.2.0,239.54907282360125,
incongruent-right.jpg,0,k,left_arrow.png,left_arrow.png,left_arrow.png,right_arrow.png,left_arrow.png,left_arrow.png,left_arrow.png,,,,,,,,,,,,,6,4,40,3,,,,,337.08678730000065,None,,,,,,,,,,,,,,,,,,,,,,,,,,,,,,338.0963222999999,None,338.0963222999999,None,338.0963222999999,None,338.0963222999999,None,338.0963222999999,None,338.0963222999999,None,338.0963222999999,None,a,0,0.3127048000005743,338.0963222999999,None,,,,,,,,,,,,,23,001,2022_Oct_22_1848,Flanker,2021.2.0,239.54907282360125,
congruent-right.jpg,1,k,right_arrow.png,right_arrow.png,right_arrow.png,right_arrow.png,right_arrow.png,right_arrow.png,right_arrow.png,,,,,,,,,,,,,6,5,41,2,,,,,338.42167100000006,None,,,,,,,,,,,,,,,,,,,,,,,,,,,,,,339.43525640000007,None,339.43525640000007,None,339.43525640000007,None,339.43525640000007,None,339.43525640000007,None,339.43525640000007,None,339.43525640000007,None,k,1,0.36609669999961625,339.43525640000007,None,,,,,,,,,,,,,23,001,2022_Oct_22_1848,Flanker,2021.2.0,239.54907282360125,
congruent-left.jpg,1,a,left_arrow.png,left_arrow.png,left_arrow.png,left_arrow.png,left_arrow.png,left_arrow.png,left_arrow.png,,,,,,,,,,,,,7,0,42,0,,,,,339.8188684000006,None,,,,,,,,,,,,,,,,,,,,,,,,,,,,,,340.83259140000064,None,340.83259140000064,None,340.83259140000064,None,340.83259140000064,None,340.83259140000064,None,340.83259140000064,None,340.83259140000064,None,a,1,0.49685389999922336,340.83259140000064,None,,,,,,,,,,,,,23,001,2022_Oct_22_1848,Flanker,2021.2.0,239.54907282360125,
incongruent-right.jpg,0,k,left_arrow.png,left_arrow.png,left_arrow.png,right_arrow.png,left_arrow.png,left_arrow.png,left_arrow.png,,,,,,,,,,,,,7,1,43,3,,,,,341.34163780000017,None,,,,,,,,,,,,,,,,,,,,,,,,,,,,,,342.3550135000005,None,342.3550135000005,None,342.3550135000005,None,342.3550135000005,None,342.3550135000005,None,342.3550135000005,None,342.3550135000005,None,k,1,0.48667139999997744,342.3550135000005,None,,,,,,,,,,,,,23,001,2022_Oct_22_1848,Flanker,2021.2.0,239.54907282360125,
congruent-right.jpg,1,k,right_arrow.png,right_arrow.png,right_arrow.png,right_arrow.png,right_arrow.png,right_arrow.png,right_arrow.png,,,,,,,,,,,,,7,2,44,2,,,,,342.8554021,None,,,,,,,,,,,,,,,,,,,,,,,,,,,,,,343.8648202000004,None,343.8648202000004,None,343.8648202000004,None,343.8648202000004,None,343.8648202000004,None,343.8648202000004,None,343.8648202000004,None,k,1,0.44919079999999667,343.8648202000004,None,,,,,,,,,,,,,23,001,2022_Oct_22_1848,Flanker,2021.2.0,239.54907282360125,
neutral right,0,k,neutral.png,neutral.png,neutral.png,right_arrow.png,neutral.png,neutral.png,neutral.png,,,,,,,,,,,,,7,3,45,5,,,,,344.33198960000027,None,,,,,,,,,,,,,,,,,,,,,,,,,,,,,,345.3459603000001,None,345.3459603000001,None,345.3459603000001,None,345.3459603000001,None,345.3459603000001,None,345.3459603000001,None,345.3459603000001,None,k,1,0.40011760000015784,345.3459603000001,None,,,,,,,,,,,,,23,001,2022_Oct_22_1848,Flanker,2021.2.0,239.54907282360125,
neutral left,0,a,neutral.png,neutral.png,neutral.png,left_arrow.png,neutral.png,neutral.png,neutral.png,,,,,,,,,,,,,7,4,46,4,,,,,345.76264830000036,None,,,,,,,,,,,,,,,,,,,,,,,,,,,,,,346.7764367,None,346.7764367,None,346.7764367,None,346.7764367,None,346.7764367,None,346.7764367,None,346.7764367,None,a,1,0.5698502000004737,346.7764367,None,,,,,,,,,,,,,23,001,2022_Oct_22_1848,Flanker,2021.2.0,239.54907282360125,
incongruent-right.jpg,0,k,left_arrow.png,left_arrow.png,left_arrow.png,right_arrow.png,left_arrow.png,left_arrow.png,left_arrow.png,,,,,,,,,,,,,7,5,47,3,,,,,347.36019380000016,None,,,,,,,,,,,,,,,,,,,,,,,,,,,,,,348.3698715999999,None,348.3698715999999,None,348.3698715999999,None,348.3698715999999,None,348.3698715999999,None,348.3698715999999,None,348.3698715999999,None,k,1,0.4566187999998874,348.3698715999999,None,,,,,,,,,,,,,23,001,2022_Oct_22_1848,Flanker,2021.2.0,239.54907282360125,
,,,,,,,,,,,,,,,,,,,,,,,,,,,,,,,,,,,,,,,,,,,,,,,,,,,,,,,,,,,,,,,,,,,,,,,,,,,,,,,,348.8535686000005,None,space,2.045231399999466,348.8535686000005,None,,,,,,,23,001,2022_Oct_22_1848,Flanker,2021.2.0,239.54907282360125,
,,,,,,,,,,,,,,,,,,,,,,,,,,,,,,,,,,,,,,,,,,,,,,,,,,,,,,,,,,,,,,,,,,,,,,,,,,,,,,,,,,,,,,350.9142632000003,None,space,2.2487982000002376,350.9142632000003,None,23,001,2022_Oct_22_1848,Flanker,2021.2.0,239.54907282360125,
