images,congruentcy,corrAns,arrow_1,arrow_2,arrow_3,target,arrow_5,arrow_6,arrow_7,practice.thisRepN,practice.thisTrialN,practice.thisN,practice.thisIndex,trials.thisRepN,trials.thisTrialN,trials.thisN,trials.thisIndex,trials_2.thisRepN,trials_2.thisTrialN,trials_2.thisN,trials_2.thisIndex,trials_3.thisRepN,trials_3.thisTrialN,trials_3.thisN,trials_3.thisIndex,instr_text.started,instr_text.stopped,instr_resp.keys,instr_resp.rt,polygon.started,polygon.stopped,arrow1_.started,arrow1_.stopped,arrow2_.started,arrow2_.stopped,arrow3_.started,arrow3_.stopped,target_p.started,target_p.stopped,arrow5_.started,arrow5_.stopped,arrow6_.started,arrow6_.stopped,arrow7_.started,arrow7_.stopped,key_resp_P.keys,key_resp_P.corr,key_resp_P.rt,key_resp_P.started,key_resp_P.stopped,text_2.started,text_2.stopped,text_3.started,text_3.stopped,text_4.started,text_4.stopped,key_resp_2.keys,key_resp_2.rt,key_resp_2.started,key_resp_2.stopped,arrow1.started,arrow1.stopped,arrow2.started,arrow2.stopped,arrow3.started,arrow3.stopped,target_t.started,target_t.stopped,arrow5.started,arrow5.stopped,arrow6.started,arrow6.stopped,arrow7.started,arrow7.stopped,key_resp.keys,key_resp.corr,key_resp.rt,key_resp.started,key_resp.stopped,text_5.started,text_5.stopped,key_resp_3.keys,key_resp_3.rt,key_resp_3.started,key_resp_3.stopped,text_6.started,text_6.stopped,key_resp_4.keys,key_resp_4.rt,key_resp_4.started,key_resp_4.stopped,participant,session,date,expName,psychopyVersion,frameRate,
,,,,,,,,,,,,,,,,,,,,,,,,,,11.843870500000776,None,space,11.491809099999955,,,,,,,,,,,,,,,,,,,,,,,,,,,,,,,,,,,,,,,,,,,,,,,,,,,,,,,,,,,,,,,24,001,2022_Oct_23_1833,Flanker,2021.2.0,239.80700330586245,
congruent-right.jpg,1,k,right_arrow.png,right_arrow.png,right_arrow.png,right_arrow.png,right_arrow.png,right_arrow.png,right_arrow.png,0,0,0,2,,,,,,,,,,,,,,,,,23.359081700007664,None,24.36445150000509,None,24.36445150000509,None,24.36445150000509,None,24.36445150000509,None,24.36445150000509,None,24.36445150000509,None,24.36445150000509,None,k,1,0.9077527999907034,24.36445150000509,None,25.29852710000705,None,,,,,,,,,,,,,,,,,,,,,,,,,,,,,,,,,,,,,,,,24,001,2022_Oct_23_1833,Flanker,2021.2.0,239.80700330586245,
congruent-left.jpg,1,a,left_arrow.png,left_arrow.png,left_arrow.png,left_arrow.png,left_arrow.png,left_arrow.png,left_arrow.png,0,1,1,0,,,,,,,,,,,,,,,,,26.791770700001507,None,27.801429900006042,None,27.801429900006042,None,27.801429900006042,None,27.801429900006042,None,27.801429900006042,None,27.801429900006042,None,27.801429900006042,None,a,1,0.39895180000166874,27.801429900006042,None,28.218283499998506,None,,,,,,,,,,,,,,,,,,,,,,,,,,,,,,,,,,,,,,,,24,001,2022_Oct_23_1833,Flanker,2021.2.0,239.80700330586245,
neutral right,0,k,neutral.png,neutral.png,neutral.png,right_arrow.png,neutral.png,neutral.png,neutral.png,0,2,2,5,,,,,,,,,,,,,,,,,29.72014630000922,None,30.733527500007767,None,30.733527500007767,None,30.733527500007767,None,30.733527500007767,None,30.733527500007767,None,30.733527500007767,None,30.733527500007767,None,k,1,0.7472163000056753,30.733527500007767,None,31.49260030000005,None,,,,,,,,,,,,,,,,,,,,,,,,,,,,,,,,,,,,,,,,24,001,2022_Oct_23_1833,Flanker,2021.2.0,239.80700330586245,
incongruent-right.jpg,0,k,left_arrow.png,left_arrow.png,left_arrow.png,right_arrow.png,left_arrow.png,left_arrow.png,left_arrow.png,0,3,3,3,,,,,,,,,,,,,,,,,32.99441620000289,None,34.00354590000643,None,34.00354590000643,None,34.00354590000643,None,34.00354590000643,None,34.00354590000643,None,34.00354590000643,None,34.00354590000643,None,k,1,2.1021387000073446,34.00354590000643,None,36.12249700000393,None,,,,,,,,,,,,,,,,,,,,,,,,,,,,,,,,,,,,,,,,24,001,2022_Oct_23_1833,Flanker,2021.2.0,239.80700330586245,
neutral right,0,k,neutral.png,neutral.png,neutral.png,right_arrow.png,neutral.png,neutral.png,neutral.png,0,4,4,5,,,,,,,,,,,,,,,,,37.62408910000522,None,38.63766700000269,None,38.63766700000269,None,38.63766700000269,None,38.63766700000269,None,38.63766700000269,None,38.63766700000269,None,38.63766700000269,None,k,1,0.5163320999999996,38.63766700000269,None,39.17156909999903,None,,,,,,,,,,,,,,,,,,,,,,,,,,,,,,,,,,,,,,,,24,001,2022_Oct_23_1833,Flanker,2021.2.0,239.80700330586245,
incongruent-left.jpg,0,a,right_arrow.png,right_arrow.png,right_arrow.png,left_arrow.png,right_arrow.png,right_arrow.png,right_arrow.png,0,5,5,1,,,,,,,,,,,,,,,,,40.673407399997814,None,41.68257109999831,None,41.68257109999831,None,41.68257109999831,None,41.68257109999831,None,41.68257109999831,None,41.68257109999831,None,41.68257109999831,None,a,1,0.4396331000025384,41.68257109999831,None,42.133027000003494,None,,,,,,,,,,,,,,,,,,,,,,,,,,,,,,,,,,,,,,,,24,001,2022_Oct_23_1833,Flanker,2021.2.0,239.80700330586245,
incongruent-left.jpg,0,a,right_arrow.png,right_arrow.png,right_arrow.png,left_arrow.png,right_arrow.png,right_arrow.png,right_arrow.png,1,0,6,1,,,,,,,,,,,,,,,,,43.634880900004646,None,44.6443680000084,None,44.6443680000084,None,44.6443680000084,None,44.6443680000084,None,44.6443680000084,None,44.6443680000084,None,44.6443680000084,None,a,1,0.5502596000005724,44.6443680000084,None,45.21131230000174,None,,,,,,,,,,,,,,,,,,,,,,,,,,,,,,,,,,,,,,,,24,001,2022_Oct_23_1833,Flanker,2021.2.0,239.80700330586245,
incongruent-left.jpg,0,a,right_arrow.png,right_arrow.png,right_arrow.png,left_arrow.png,right_arrow.png,right_arrow.png,right_arrow.png,1,1,7,1,,,,,,,,,,,,,,,,,46.7128870000015,None,47.722366000001784,None,47.722366000001784,None,47.722366000001784,None,47.722366000001784,None,47.722366000001784,None,47.722366000001784,None,47.722366000001784,None,a,1,0.4330464000086067,47.722366000001784,None,48.17283470000257,None,,,,,,,,,,,,,,,,,,,,,,,,,,,,,,,,,,,,,,,,24,001,2022_Oct_23_1833,Flanker,2021.2.0,239.80700330586245,
incongruent-right.jpg,0,k,left_arrow.png,left_arrow.png,left_arrow.png,right_arrow.png,left_arrow.png,left_arrow.png,left_arrow.png,1,2,8,3,,,,,,,,,,,,,,,,,49.67437510000309,None,50.68794290001097,None,50.68794290001097,None,50.68794290001097,None,50.68794290001097,None,50.68794290001097,None,50.68794290001097,None,50.68794290001097,None,k,1,0.5154866999946535,50.68794290001097,None,51.22183510000468,None,,,,,,,,,,,,,,,,,,,,,,,,,,,,,,,,,,,,,,,,24,001,2022_Oct_23_1833,Flanker,2021.2.0,239.80700330586245,
congruent-left.jpg,1,a,left_arrow.png,left_arrow.png,left_arrow.png,left_arrow.png,left_arrow.png,left_arrow.png,left_arrow.png,1,3,9,0,,,,,,,,,,,,,,,,,52.723679400005494,None,53.73283740000625,None,53.73283740000625,None,53.73283740000625,None,53.73283740000625,None,53.73283740000625,None,53.73283740000625,None,53.73283740000625,None,a,1,0.4229888999980176,53.73283740000625,None,54.174976599999354,None,,,,,,,,,,,,,,,,,,,,,,,,,,,,,,,,,,,,,,,,24,001,2022_Oct_23_1833,Flanker,2021.2.0,239.80700330586245,
neutral left,0,a,neutral.png,neutral.png,neutral.png,left_arrow.png,neutral.png,neutral.png,neutral.png,1,4,10,4,,,,,,,,,,,,,,,,,55.68073770000774,None,56.69024270000227,None,56.69024270000227,None,56.69024270000227,None,56.69024270000227,None,56.69024270000227,None,56.69024270000227,None,56.69024270000227,None,a,1,0.47420679999049753,56.69024270000227,None,57.18252610000491,None,,,,,,,,,,,,,,,,,,,,,,,,,,,,,,,,,,,,,,,,24,001,2022_Oct_23_1833,Flanker,2021.2.0,239.80700330586245,
congruent-left.jpg,1,a,left_arrow.png,left_arrow.png,left_arrow.png,left_arrow.png,left_arrow.png,left_arrow.png,left_arrow.png,1,5,11,0,,,,,,,,,,,,,,,,,58.6882886000094,None,59.697705600003246,None,59.697705600003246,None,59.697705600003246,None,59.697705600003246,None,59.697705600003246,None,59.697705600003246,None,59.697705600003246,None,a,1,0.48333699999784585,59.697705600003246,None,60.19801740000548,None,,,,,,,,,,,,,,,,,,,,,,,,,,,,,,,,,,,,,,,,24,001,2022_Oct_23_1833,Flanker,2021.2.0,239.80700330586245,
congruent-left.jpg,1,a,left_arrow.png,left_arrow.png,left_arrow.png,left_arrow.png,left_arrow.png,left_arrow.png,left_arrow.png,2,0,12,0,,,,,,,,,,,,,,,,,61.69968630000949,None,62.709277400004794,None,62.709277400004794,None,62.709277400004794,None,62.709277400004794,None,62.709277400004794,None,62.709277400004794,None,62.709277400004794,None,a,1,0.39977460000955034,62.709277400004794,None,63.12608170000021,None,,,,,,,,,,,,,,,,,,,,,,,,,,,,,,,,,,,,,,,,24,001,2022_Oct_23_1833,Flanker,2021.2.0,239.80700330586245,
neutral left,0,a,neutral.png,neutral.png,neutral.png,left_arrow.png,neutral.png,neutral.png,neutral.png,2,1,13,4,,,,,,,,,,,,,,,,,64.62768270001106,None,65.63710259999789,None,65.63710259999789,None,65.63710259999789,None,65.63710259999789,None,65.63710259999789,None,65.63710259999789,None,65.63710259999789,None,a,1,0.49639960000058636,65.63710259999789,None,66.14597369999683,None,,,,,,,,,,,,,,,,,,,,,,,,,,,,,,,,,,,,,,,,24,001,2022_Oct_23_1833,Flanker,2021.2.0,239.80700330586245,
neutral right,0,k,neutral.png,neutral.png,neutral.png,right_arrow.png,neutral.png,neutral.png,neutral.png,2,2,14,5,,,,,,,,,,,,,,,,,67.64780210000754,None,68.65697320000618,None,68.65697320000618,None,68.65697320000618,None,68.65697320000618,None,68.65697320000618,None,68.65697320000618,None,68.65697320000618,None,k,1,0.5252529999997932,68.65697320000618,None,69.19927900000766,None,,,,,,,,,,,,,,,,,,,,,,,,,,,,,,,,,,,,,,,,24,001,2022_Oct_23_1833,Flanker,2021.2.0,239.80700330586245,
congruent-right.jpg,1,k,right_arrow.png,right_arrow.png,right_arrow.png,right_arrow.png,right_arrow.png,right_arrow.png,right_arrow.png,2,3,15,2,,,,,,,,,,,,,,,,,70.70086779999838,None,71.71020319999661,None,71.71020319999661,None,71.71020319999661,None,71.71020319999661,None,71.71020319999661,None,71.71020319999661,None,71.71020319999661,None,k,1,0.6083519999956479,71.71020319999661,None,72.3358533999999,None,,,,,,,,,,,,,,,,,,,,,,,,,,,,,,,,,,,,,,,,24,001,2022_Oct_23_1833,Flanker,2021.2.0,239.80700330586245,
neutral left,0,a,neutral.png,neutral.png,neutral.png,left_arrow.png,neutral.png,neutral.png,neutral.png,2,4,16,4,,,,,,,,,,,,,,,,,73.83776970001054,None,74.84728440000617,None,74.84728440000617,None,74.84728440000617,None,74.84728440000617,None,74.84728440000617,None,74.84728440000617,None,74.84728440000617,None,a,1,0.3834210000059102,74.84728440000617,None,75.24753550000605,None,,,,,,,,,,,,,,,,,,,,,,,,,,,,,,,,,,,,,,,,24,001,2022_Oct_23_1833,Flanker,2021.2.0,239.80700330586245,
incongruent-left.jpg,0,a,right_arrow.png,right_arrow.png,right_arrow.png,left_arrow.png,right_arrow.png,right_arrow.png,right_arrow.png,2,5,17,1,,,,,,,,,,,,,,,,,76.74887470000249,None,77.76244960000622,None,77.76244960000622,None,77.76244960000622,None,77.76244960000622,None,77.76244960000622,None,77.76244960000622,None,77.76244960000622,None,a,1,0.4446555000031367,77.76244960000622,None,78.22131100000115,None,,,,,,,,,,,,,,,,,,,,,,,,,,,,,,,,,,,,,,,,24,001,2022_Oct_23_1833,Flanker,2021.2.0,239.80700330586245,
congruent-right.jpg,1,k,right_arrow.png,right_arrow.png,right_arrow.png,right_arrow.png,right_arrow.png,right_arrow.png,right_arrow.png,3,0,18,2,,,,,,,,,,,,,,,,,79.72293740000168,None,80.73653049999848,None,80.73653049999848,None,80.73653049999848,None,80.73653049999848,None,80.73653049999848,None,80.73653049999848,None,80.73653049999848,None,k,1,0.48697869999159593,80.73653049999848,None,81.23696590001055,None,,,,,,,,,,,,,,,,,,,,,,,,,,,,,,,,,,,,,,,,24,001,2022_Oct_23_1833,Flanker,2021.2.0,239.80700330586245,
neutral right,0,k,neutral.png,neutral.png,neutral.png,right_arrow.png,neutral.png,neutral.png,neutral.png,3,1,19,5,,,,,,,,,,,,,,,,,82.73856640000304,None,83.74796819999756,None,83.74796819999756,None,83.74796819999756,None,83.74796819999756,None,83.74796819999756,None,83.74796819999756,None,83.74796819999756,None,k,1,0.38795469999604393,83.74796819999756,None,84.14892669999972,None,,,,,,,,,,,,,,,,,,,,,,,,,,,,,,,,,,,,,,,,24,001,2022_Oct_23_1833,Flanker,2021.2.0,239.80700330586245,
neutral left,0,a,neutral.png,neutral.png,neutral.png,left_arrow.png,neutral.png,neutral.png,neutral.png,3,2,20,4,,,,,,,,,,,,,,,,,85.65414540001075,None,86.6637316999986,None,86.6637316999986,None,86.6637316999986,None,86.6637316999986,None,86.6637316999986,None,86.6637316999986,None,86.6637316999986,None,a,1,0.43281820000265725,86.6637316999986,None,87.11405850001029,None,,,,,,,,,,,,,,,,,,,,,,,,,,,,,,,,,,,,,,,,24,001,2022_Oct_23_1833,Flanker,2021.2.0,239.80700330586245,
incongruent-right.jpg,0,k,left_arrow.png,left_arrow.png,left_arrow.png,right_arrow.png,left_arrow.png,left_arrow.png,left_arrow.png,3,3,21,3,,,,,,,,,,,,,,,,,88.61561400000937,None,89.62921730001108,None,89.62921730001108,None,89.62921730001108,None,89.62921730001108,None,89.62921730001108,None,89.62921730001108,None,89.62921730001108,None,k,1,0.5154753000097116,89.62921730001108,None,90.16310879999946,None,,,,,,,,,,,,,,,,,,,,,,,,,,,,,,,,,,,,,,,,24,001,2022_Oct_23_1833,Flanker,2021.2.0,239.80700330586245,
incongruent-right.jpg,0,k,left_arrow.png,left_arrow.png,left_arrow.png,right_arrow.png,left_arrow.png,left_arrow.png,left_arrow.png,3,4,22,3,,,,,,,,,,,,,,,,,91.66911640000762,None,92.67410430000746,None,92.67410430000746,None,92.67410430000746,None,92.67410430000746,None,92.67410430000746,None,92.67410430000746,None,92.67410430000746,None,k,1,0.44698110000172164,92.67410430000746,None,93.13291080000636,None,,,,,,,,,,,,,,,,,,,,,,,,,,,,,,,,,,,,,,,,24,001,2022_Oct_23_1833,Flanker,2021.2.0,239.80700330586245,
congruent-right.jpg,1,k,right_arrow.png,right_arrow.png,right_arrow.png,right_arrow.png,right_arrow.png,right_arrow.png,right_arrow.png,3,5,23,2,,,,,,,,,,,,,,,,,94.63892260000284,None,95.64421610000136,None,95.64421610000136,None,95.64421610000136,None,95.64421610000136,None,95.64421610000136,None,95.64421610000136,None,95.64421610000136,None,k,1,0.4132707999960985,95.64421610000136,None,96.06936790001055,None,,,,,,,,,,,,,,,,,,,,,,,,,,,,,,,,,,,,,,,,24,001,2022_Oct_23_1833,Flanker,2021.2.0,239.80700330586245,
,,,,,,,,,,,,,,,,,,,,,,,,,,,,,,,,,,,,,,,,,,,,,,,,,,,,,97.58787360000133,None,99.57338739999977,None,space,1.9488646000099834,99.57338739999977,None,,,,,,,,,,,,,,,,,,,,,,,,,,,,,,,,24,001,2022_Oct_23_1833,Flanker,2021.2.0,239.80700330586245,
neutral right,0,k,neutral.png,neutral.png,neutral.png,right_arrow.png,neutral.png,neutral.png,neutral.png,,,,,0,0,0,5,,,,,,,,,,,,,101.54185310000321,None,,,,,,,,,,,,,,,,,,,,,,,,,,,,,,102.54292059999716,None,102.54292059999716,None,102.54292059999716,None,102.54292059999716,None,102.54292059999716,None,102.54292059999716,None,102.54292059999716,None,k,1,1.4758971000119345,102.54292059999716,None,,,,,,,,,,,,,24,001,2022_Oct_23_1833,Flanker,2021.2.0,239.80700330586245,
incongruent-left.jpg,0,a,right_arrow.png,right_arrow.png,right_arrow.png,left_arrow.png,right_arrow.png,right_arrow.png,right_arrow.png,,,,,0,1,1,1,,,,,,,,,,,,,104.03621530000237,None,,,,,,,,,,,,,,,,,,,,,,,,,,,,,,105.04971639999712,None,105.04971639999712,None,105.04971639999712,None,105.04971639999712,None,105.04971639999712,None,105.04971639999712,None,105.04971639999712,None,a,1,0.5050622999988263,105.04971639999712,None,,,,,,,,,,,,,24,001,2022_Oct_23_1833,Flanker,2021.2.0,239.80700330586245,
congruent-left.jpg,1,a,left_arrow.png,left_arrow.png,left_arrow.png,left_arrow.png,left_arrow.png,left_arrow.png,left_arrow.png,,,,,0,2,2,0,,,,,,,,,,,,,105.56730930000776,None,,,,,,,,,,,,,,,,,,,,,,,,,,,,,,106.57636390000698,None,106.57636390000698,None,106.57636390000698,None,106.57636390000698,None,106.57636390000698,None,106.57636390000698,None,106.57636390000698,None,a,1,0.7947117000003345,106.57636390000698,None,,,,,,,,,,,,,24,001,2022_Oct_23_1833,Flanker,2021.2.0,239.80700330586245,
neutral right,0,k,neutral.png,neutral.png,neutral.png,right_arrow.png,neutral.png,neutral.png,neutral.png,,,,,0,3,3,5,,,,,,,,,,,,,107.38554170000134,None,,,,,,,,,,,,,,,,,,,,,,,,,,,,,,108.39911350001057,None,108.39911350001057,None,108.39911350001057,None,108.39911350001057,None,108.39911350001057,None,108.39911350001057,None,108.39911350001057,None,k,1,0.4441281000035815,108.39911350001057,None,,,,,,,,,,,,,24,001,2022_Oct_23_1833,Flanker,2021.2.0,239.80700330586245,
incongruent-right.jpg,0,k,left_arrow.png,left_arrow.png,left_arrow.png,right_arrow.png,left_arrow.png,left_arrow.png,left_arrow.png,,,,,0,4,4,3,,,,,,,,,,,,,108.85802020000119,None,,,,,,,,,,,,,,,,,,,,,,,,,,,,,,109.86740240000654,None,109.86740240000654,None,109.86740240000654,None,109.86740240000654,None,109.86740240000654,None,109.86740240000654,None,109.86740240000654,None,k,1,0.4960385000013048,109.86740240000654,None,,,,,,,,,,,,,24,001,2022_Oct_23_1833,Flanker,2021.2.0,239.80700330586245,
incongruent-left.jpg,0,a,right_arrow.png,right_arrow.png,right_arrow.png,left_arrow.png,right_arrow.png,right_arrow.png,right_arrow.png,,,,,0,5,5,1,,,,,,,,,,,,,110.3762279000075,None,,,,,,,,,,,,,,,,,,,,,,,,,,,,,,111.38561569999729,None,111.38561569999729,None,111.38561569999729,None,111.38561569999729,None,111.38561569999729,None,111.38561569999729,None,111.38561569999729,None,a,1,0.4582680000021355,111.38561569999729,None,,,,,,,,,,,,,24,001,2022_Oct_23_1833,Flanker,2021.2.0,239.80700330586245,
neutral right,0,k,neutral.png,neutral.png,neutral.png,right_arrow.png,neutral.png,neutral.png,neutral.png,,,,,1,0,6,5,,,,,,,,,,,,,111.86111019999953,None,,,,,,,,,,,,,,,,,,,,,,,,,,,,,,112.87053190000006,None,112.87053190000006,None,112.87053190000006,None,112.87053190000006,None,112.87053190000006,None,112.87053190000006,None,112.87053190000006,None,k,1,0.39737379999132827,112.87053190000006,None,,,,,,,,,,,,,24,001,2022_Oct_23_1833,Flanker,2021.2.0,239.80700330586245,
neutral right,0,k,neutral.png,neutral.png,neutral.png,right_arrow.png,neutral.png,neutral.png,neutral.png,,,,,1,1,7,5,,,,,,,,,,,,,113.2792921000073,None,,,,,,,,,,,,,,,,,,,,,,,,,,,,,,114.29286230000434,None,114.29286230000434,None,114.29286230000434,None,114.29286230000434,None,114.29286230000434,None,114.29286230000434,None,114.29286230000434,None,k,1,0.4311792000080459,114.29286230000434,None,,,,,,,,,,,,,24,001,2022_Oct_23_1833,Flanker,2021.2.0,239.80700330586245,
neutral left,0,a,neutral.png,neutral.png,neutral.png,left_arrow.png,neutral.png,neutral.png,neutral.png,,,,,1,2,8,4,,,,,,,,,,,,,114.74366930000542,None,,,,,,,,,,,,,,,,,,,,,,,,,,,,,,115.75274450000143,None,115.75274450000143,None,115.75274450000143,None,115.75274450000143,None,115.75274450000143,None,115.75274450000143,None,115.75274450000143,None,a,1,0.3794777000002796,115.75274450000143,None,,,,,,,,,,,,,24,001,2022_Oct_23_1833,Flanker,2021.2.0,239.80700330586245,
incongruent-right.jpg,0,k,left_arrow.png,left_arrow.png,left_arrow.png,right_arrow.png,left_arrow.png,left_arrow.png,left_arrow.png,,,,,1,3,9,3,,,,,,,,,,,,,116.1448170000076,None,,,,,,,,,,,,,,,,,,,,,,,,,,,,,,117.15840400000161,None,117.15840400000161,None,117.15840400000161,None,117.15840400000161,None,117.15840400000161,None,117.15840400000161,None,117.15840400000161,None,k,1,0.4060248000023421,117.15840400000161,None,,,,,,,,,,,,,24,001,2022_Oct_23_1833,Flanker,2021.2.0,239.80700330586245,
neutral left,0,a,neutral.png,neutral.png,neutral.png,left_arrow.png,neutral.png,neutral.png,neutral.png,,,,,1,4,10,4,,,,,,,,,,,,,117.58399060000374,None,,,,,,,,,,,,,,,,,,,,,,,,,,,,,,118.59742410000763,None,118.59742410000763,None,118.59742410000763,None,118.59742410000763,None,118.59742410000763,None,118.59742410000763,None,118.59742410000763,None,a,1,0.44720130000496283,118.59742410000763,None,,,,,,,,,,,,,24,001,2022_Oct_23_1833,Flanker,2021.2.0,239.80700330586245,
incongruent-right.jpg,0,k,left_arrow.png,left_arrow.png,left_arrow.png,right_arrow.png,left_arrow.png,left_arrow.png,left_arrow.png,,,,,1,5,11,3,,,,,,,,,,,,,119.05663240001013,None,,,,,,,,,,,,,,,,,,,,,,,,,,,,,,120.06565899999987,None,120.06565899999987,None,120.06565899999987,None,120.06565899999987,None,120.06565899999987,None,120.06565899999987,None,120.06565899999987,None,k,1,0.4351544999954058,120.06565899999987,None,,,,,,,,,,,,,24,001,2022_Oct_23_1833,Flanker,2021.2.0,239.80700330586245,
incongruent-left.jpg,0,a,right_arrow.png,right_arrow.png,right_arrow.png,left_arrow.png,right_arrow.png,right_arrow.png,right_arrow.png,,,,,2,0,12,1,,,,,,,,,,,,,120.51621500001056,None,,,,,,,,,,,,,,,,,,,,,,,,,,,,,,121.53387210000074,None,121.53387210000074,None,121.53387210000074,None,121.53387210000074,None,121.53387210000074,None,121.53387210000074,None,121.53387210000074,None,a,1,0.3591683999984525,121.53387210000074,None,,,,,,,,,,,,,24,001,2022_Oct_23_1833,Flanker,2021.2.0,239.80700330586245,
congruent-left.jpg,1,a,left_arrow.png,left_arrow.png,left_arrow.png,left_arrow.png,left_arrow.png,left_arrow.png,left_arrow.png,,,,,2,1,13,0,,,,,,,,,,,,,121.90934959999868,None,,,,,,,,,,,,,,,,,,,,,,,,,,,,,,122.91891560000659,None,122.91891560000659,None,122.91891560000659,None,122.91891560000659,None,122.91891560000659,None,122.91891560000659,None,122.91891560000659,None,a,1,0.43028770000091754,122.91891560000659,None,,,,,,,,,,,,,24,001,2022_Oct_23_1833,Flanker,2021.2.0,239.80700330586245,
incongruent-right.jpg,0,k,left_arrow.png,left_arrow.png,left_arrow.png,right_arrow.png,left_arrow.png,left_arrow.png,left_arrow.png,,,,,2,2,14,3,,,,,,,,,,,,,123.3608191000094,None,,,,,,,,,,,,,,,,,,,,,,,,,,,,,,124.37468610001088,None,124.37468610001088,None,124.37468610001088,None,124.37468610001088,None,124.37468610001088,None,124.37468610001088,None,124.37468610001088,None,k,1,0.38319269999919925,124.37468610001088,None,,,,,,,,,,,,,24,001,2022_Oct_23_1833,Flanker,2021.2.0,239.80700330586245,
congruent-right.jpg,1,k,right_arrow.png,right_arrow.png,right_arrow.png,right_arrow.png,right_arrow.png,right_arrow.png,right_arrow.png,,,,,2,3,15,2,,,,,,,,,,,,,124.77480850000575,None,,,,,,,,,,,,,,,,,,,,,,,,,,,,,,125.78839549999975,None,125.78839549999975,None,125.78839549999975,None,125.78839549999975,None,125.78839549999975,None,125.78839549999975,None,125.78839549999975,None,k,1,0.5932068999973126,125.78839549999975,None,,,,,,,,,,,,,24,001,2022_Oct_23_1833,Flanker,2021.2.0,239.80700330586245,
congruent-left.jpg,1,a,left_arrow.png,left_arrow.png,left_arrow.png,left_arrow.png,left_arrow.png,left_arrow.png,left_arrow.png,,,,,2,4,16,0,,,,,,,,,,,,,126.39781950000906,None,,,,,,,,,,,,,,,,,,,,,,,,,,,,,,127.40678210000624,None,127.40678210000624,None,127.40678210000624,None,127.40678210000624,None,127.40678210000624,None,127.40678210000624,None,127.40678210000624,None,a,1,0.36703599999600556,127.40678210000624,None,,,,,,,,,,,,,24,001,2022_Oct_23_1833,Flanker,2021.2.0,239.80700330586245,
congruent-right.jpg,1,k,right_arrow.png,right_arrow.png,right_arrow.png,right_arrow.png,right_arrow.png,right_arrow.png,right_arrow.png,,,,,2,5,17,2,,,,,,,,,,,,,127.79052280000178,None,,,,,,,,,,,,,,,,,,,,,,,,,,,,,,128.8002400999976,None,128.8002400999976,None,128.8002400999976,None,128.8002400999976,None,128.8002400999976,None,128.8002400999976,None,128.8002400999976,None,k,1,0.34993840000242926,128.8002400999976,None,,,,,,,,,,,,,24,001,2022_Oct_23_1833,Flanker,2021.2.0,239.80700330586245,
incongruent-right.jpg,0,k,left_arrow.png,left_arrow.png,left_arrow.png,right_arrow.png,left_arrow.png,left_arrow.png,left_arrow.png,,,,,3,0,18,3,,,,,,,,,,,,,129.16740859999845,None,,,,,,,,,,,,,,,,,,,,,,,,,,,,,,130.18084870000894,None,130.18084870000894,None,130.18084870000894,None,130.18084870000894,None,130.18084870000894,None,130.18084870000894,None,130.18084870000894,None,k,1,0.4655809000105364,130.18084870000894,None,,,,,,,,,,,,,24,001,2022_Oct_23_1833,Flanker,2021.2.0,239.80700330586245,
neutral left,0,a,neutral.png,neutral.png,neutral.png,left_arrow.png,neutral.png,neutral.png,neutral.png,,,,,3,1,19,4,,,,,,,,,,,,,130.66440720000537,None,,,,,,,,,,,,,,,,,,,,,,,,,,,,,,131.67797370000335,None,131.67797370000335,None,131.67797370000335,None,131.67797370000335,None,131.67797370000335,None,131.67797370000335,None,131.67797370000335,None,a,1,0.4004346000001533,131.67797370000335,None,,,,,,,,,,,,,24,001,2022_Oct_23_1833,Flanker,2021.2.0,239.80700330586245,
incongruent-left.jpg,0,a,right_arrow.png,right_arrow.png,right_arrow.png,left_arrow.png,right_arrow.png,right_arrow.png,right_arrow.png,,,,,3,2,20,1,,,,,,,,,,,,,132.0953848000063,None,,,,,,,,,,,,,,,,,,,,,,,,,,,,,,133.10447610000847,None,133.10447610000847,None,133.10447610000847,None,133.10447610000847,None,133.10447610000847,None,133.10447610000847,None,133.10447610000847,None,a,1,0.4701352999982191,133.10447610000847,None,,,,,,,,,,,,,24,001,2022_Oct_23_1833,Flanker,2021.2.0,239.80700330586245,
incongruent-left.jpg,0,a,right_arrow.png,right_arrow.png,right_arrow.png,left_arrow.png,right_arrow.png,right_arrow.png,right_arrow.png,,,,,3,3,21,1,,,,,,,,,,,,,133.5883773000096,None,,,,,,,,,,,,,,,,,,,,,,,,,,,,,,134.60214919999999,None,134.60214919999999,None,134.60214919999999,None,134.60214919999999,None,134.60214919999999,None,134.60214919999999,None,134.60214919999999,None,a,1,0.4846430000034161,134.60214919999999,None,,,,,,,,,,,,,24,001,2022_Oct_23_1833,Flanker,2021.2.0,239.80700330586245,
congruent-left.jpg,1,a,left_arrow.png,left_arrow.png,left_arrow.png,left_arrow.png,left_arrow.png,left_arrow.png,left_arrow.png,,,,,3,4,22,0,,,,,,,,,,,,,135.10243510000873,None,,,,,,,,,,,,,,,,,,,,,,,,,,,,,,136.12018399999943,None,136.12018399999943,None,136.12018399999943,None,136.12018399999943,None,136.12018399999943,None,136.12018399999943,None,136.12018399999943,None,a,1,0.36698759999126196,136.12018399999943,None,,,,,,,,,,,,,24,001,2022_Oct_23_1833,Flanker,2021.2.0,239.80700330586245,
congruent-right.jpg,1,k,right_arrow.png,right_arrow.png,right_arrow.png,right_arrow.png,right_arrow.png,right_arrow.png,right_arrow.png,,,,,3,5,23,2,,,,,,,,,,,,,136.50391810000292,None,,,,,,,,,,,,,,,,,,,,,,,,,,,,,,137.51354870000796,None,137.51354870000796,None,137.51354870000796,None,137.51354870000796,None,137.51354870000796,None,137.51354870000796,None,137.51354870000796,None,k,1,0.4456551000039326,137.51354870000796,None,,,,,,,,,,,,,24,001,2022_Oct_23_1833,Flanker,2021.2.0,239.80700330586245,
congruent-right.jpg,1,k,right_arrow.png,right_arrow.png,right_arrow.png,right_arrow.png,right_arrow.png,right_arrow.png,right_arrow.png,,,,,4,0,24,2,,,,,,,,,,,,,137.9724705999979,None,,,,,,,,,,,,,,,,,,,,,,,,,,,,,,138.98594050000247,None,138.98594050000247,None,138.98594050000247,None,138.98594050000247,None,138.98594050000247,None,138.98594050000247,None,138.98594050000247,None,k,1,0.4054305000026943,138.98594050000247,None,,,,,,,,,,,,,24,001,2022_Oct_23_1833,Flanker,2021.2.0,239.80700330586245,
neutral right,0,k,neutral.png,neutral.png,neutral.png,right_arrow.png,neutral.png,neutral.png,neutral.png,,,,,4,1,25,5,,,,,,,,,,,,,139.4028282000072,None,,,,,,,,,,,,,,,,,,,,,,,,,,,,,,140.41647660000308,None,140.41647660000308,None,140.41647660000308,None,140.41647660000308,None,140.41647660000308,None,140.41647660000308,None,140.41647660000308,None,k,1,0.4310920999996597,140.41647660000308,None,,,,,,,,,,,,,24,001,2022_Oct_23_1833,Flanker,2021.2.0,239.80700330586245,
neutral left,0,a,neutral.png,neutral.png,neutral.png,left_arrow.png,neutral.png,neutral.png,neutral.png,,,,,4,2,26,4,,,,,,,,,,,,,140.86695619999955,None,,,,,,,,,,,,,,,,,,,,,,,,,,,,,,141.88485470000887,None,141.88485470000887,None,141.88485470000887,None,141.88485470000887,None,141.88485470000887,None,141.88485470000887,None,141.88485470000887,None,a,1,0.3869310000009136,141.88485470000887,None,,,,,,,,,,,,,24,001,2022_Oct_23_1833,Flanker,2021.2.0,239.80700330586245,
neutral left,0,a,neutral.png,neutral.png,neutral.png,left_arrow.png,neutral.png,neutral.png,neutral.png,,,,,4,3,27,4,,,,,,,,,,,,,142.28548140000203,None,,,,,,,,,,,,,,,,,,,,,,,,,,,,,,143.29444579999836,None,143.29444579999836,None,143.29444579999836,None,143.29444579999836,None,143.29444579999836,None,143.29444579999836,None,143.29444579999836,None,a,1,0.4498243999987608,143.29444579999836,None,,,,,,,,,,,,,24,001,2022_Oct_23_1833,Flanker,2021.2.0,239.80700330586245,
incongruent-right.jpg,0,k,left_arrow.png,left_arrow.png,left_arrow.png,right_arrow.png,left_arrow.png,left_arrow.png,left_arrow.png,,,,,4,4,28,3,,,,,,,,,,,,,143.76167160000477,None,,,,,,,,,,,,,,,,,,,,,,,,,,,,,,144.77935589999834,None,144.77935589999834,None,144.77935589999834,None,144.77935589999834,None,144.77935589999834,None,144.77935589999834,None,144.77935589999834,None,k,1,0.42882169999938924,144.77935589999834,None,,,,,,,,,,,,,24,001,2022_Oct_23_1833,Flanker,2021.2.0,239.80700330586245,
congruent-right.jpg,1,k,right_arrow.png,right_arrow.png,right_arrow.png,right_arrow.png,right_arrow.png,right_arrow.png,right_arrow.png,,,,,4,5,29,2,,,,,,,,,,,,,145.221506700007,None,,,,,,,,,,,,,,,,,,,,,,,,,,,,,,146.23509050000575,None,146.23509050000575,None,146.23509050000575,None,146.23509050000575,None,146.23509050000575,None,146.23509050000575,None,146.23509050000575,None,k,1,0.41325850000430364,146.23509050000575,None,,,,,,,,,,,,,24,001,2022_Oct_23_1833,Flanker,2021.2.0,239.80700330586245,
congruent-left.jpg,1,a,left_arrow.png,left_arrow.png,left_arrow.png,left_arrow.png,left_arrow.png,left_arrow.png,left_arrow.png,,,,,5,0,30,0,,,,,,,,,,,,,146.6605949000077,None,,,,,,,,,,,,,,,,,,,,,,,,,,,,,,147.67440109999734,None,147.67440109999734,None,147.67440109999734,None,147.67440109999734,None,147.67440109999734,None,147.67440109999734,None,147.67440109999734,None,a,1,0.4541611000022385,147.67440109999734,None,,,,,,,,,,,,,24,001,2022_Oct_23_1833,Flanker,2021.2.0,239.80700330586245,
neutral right,0,k,neutral.png,neutral.png,neutral.png,right_arrow.png,neutral.png,neutral.png,neutral.png,,,,,5,1,31,5,,,,,,,,,,,,,148.1415132999973,None,,,,,,,,,,,,,,,,,,,,,,,,,,,,,,149.15490619999764,None,149.15490619999764,None,149.15490619999764,None,149.15490619999764,None,149.15490619999764,None,149.15490619999764,None,149.15490619999764,None,k,1,0.40584880000096746,149.15490619999764,None,,,,,,,,,,,,,24,001,2022_Oct_23_1833,Flanker,2021.2.0,239.80700330586245,
congruent-right.jpg,1,k,right_arrow.png,right_arrow.png,right_arrow.png,right_arrow.png,right_arrow.png,right_arrow.png,right_arrow.png,,,,,5,2,32,2,,,,,,,,,,,,,149.57232069999736,None,,,,,,,,,,,,,,,,,,,,,,,,,,,,,,150.5813335999992,None,150.5813335999992,None,150.5813335999992,None,150.5813335999992,None,150.5813335999992,None,150.5813335999992,None,150.5813335999992,None,k,1,0.3956235000077868,150.5813335999992,None,,,,,,,,,,,,,24,001,2022_Oct_23_1833,Flanker,2021.2.0,239.80700330586245,
incongruent-left.jpg,0,a,right_arrow.png,right_arrow.png,right_arrow.png,left_arrow.png,right_arrow.png,right_arrow.png,right_arrow.png,,,,,5,3,33,1,,,,,,,,,,,,,150.99010779999662,None,,,,,,,,,,,,,,,,,,,,,,,,,,,,,,151.9997846000042,None,151.9997846000042,None,151.9997846000042,None,151.9997846000042,None,151.9997846000042,None,151.9997846000042,None,151.9997846000042,None,a,1,0.3933753000019351,151.9997846000042,None,,,,,,,,,,,,,24,001,2022_Oct_23_1833,Flanker,2021.2.0,239.80700330586245,
neutral left,0,a,neutral.png,neutral.png,neutral.png,left_arrow.png,neutral.png,neutral.png,neutral.png,,,,,5,4,34,4,,,,,,,,,,,,,152.40835610000067,None,,,,,,,,,,,,,,,,,,,,,,,,,,,,,,153.42184710000583,None,153.42184710000583,None,153.42184710000583,None,153.42184710000583,None,153.42184710000583,None,153.42184710000583,None,153.42184710000583,None,a,1,0.4194991999975173,153.42184710000583,None,,,,,,,,,,,,,24,001,2022_Oct_23_1833,Flanker,2021.2.0,239.80700330586245,
congruent-right.jpg,1,k,right_arrow.png,right_arrow.png,right_arrow.png,right_arrow.png,right_arrow.png,right_arrow.png,right_arrow.png,,,,,5,5,35,2,,,,,,,,,,,,,153.85564750000776,None,,,,,,,,,,,,,,,,,,,,,,,,,,,,,,154.86922350000532,None,154.86922350000532,None,154.86922350000532,None,154.86922350000532,None,154.86922350000532,None,154.86922350000532,None,154.86922350000532,None,k,1,0.5403286999935517,154.86922350000532,None,,,,,,,,,,,,,24,001,2022_Oct_23_1833,Flanker,2021.2.0,239.80700330586245,
congruent-left.jpg,1,a,left_arrow.png,left_arrow.png,left_arrow.png,left_arrow.png,left_arrow.png,left_arrow.png,left_arrow.png,,,,,6,0,36,0,,,,,,,,,,,,,155.42845680000028,None,,,,,,,,,,,,,,,,,,,,,,,,,,,,,,156.44171949999873,None,156.44171949999873,None,156.44171949999873,None,156.44171949999873,None,156.44171949999873,None,156.44171949999873,None,156.44171949999873,None,a,1,2.592327300008037,156.44171949999873,None,,,,,,,,,,,,,24,001,2022_Oct_23_1833,Flanker,2021.2.0,239.80700330586245,
incongruent-right.jpg,0,k,left_arrow.png,left_arrow.png,left_arrow.png,right_arrow.png,left_arrow.png,left_arrow.png,left_arrow.png,,,,,6,1,37,3,,,,,,,,,,,,,159.05321969999932,None,,,,,,,,,,,,,,,,,,,,,,,,,,,,,,160.0705689000024,None,160.0705689000024,None,160.0705689000024,None,160.0705689000024,None,160.0705689000024,None,160.0705689000024,None,160.0705689000024,None,k,1,0.41166850000445265,160.0705689000024,None,,,,,,,,,,,,,24,001,2022_Oct_23_1833,Flanker,2021.2.0,239.80700330586245,
incongruent-right.jpg,0,k,left_arrow.png,left_arrow.png,left_arrow.png,right_arrow.png,left_arrow.png,left_arrow.png,left_arrow.png,,,,,6,2,38,3,,,,,,,,,,,,,160.49602640001103,None,,,,,,,,,,,,,,,,,,,,,,,,,,,,,,161.50514030001068,None,161.50514030001068,None,161.50514030001068,None,161.50514030001068,None,161.50514030001068,None,161.50514030001068,None,161.50514030001068,None,k,1,0.45728990000498015,161.50514030001068,None,,,,,,,,,,,,,24,001,2022_Oct_23_1833,Flanker,2021.2.0,239.80700330586245,
congruent-right.jpg,1,k,right_arrow.png,right_arrow.png,right_arrow.png,right_arrow.png,right_arrow.png,right_arrow.png,right_arrow.png,,,,,6,3,39,2,,,,,,,,,,,,,161.98105509999732,None,,,,,,,,,,,,,,,,,,,,,,,,,,,,,,162.9905746000004,None,162.9905746000004,None,162.9905746000004,None,162.9905746000004,None,162.9905746000004,None,162.9905746000004,None,162.9905746000004,None,k,1,0.4200797999947099,162.9905746000004,None,,,,,,,,,,,,,24,001,2022_Oct_23_1833,Flanker,2021.2.0,239.80700330586245,
neutral right,0,k,neutral.png,neutral.png,neutral.png,right_arrow.png,neutral.png,neutral.png,neutral.png,,,,,6,4,40,5,,,,,,,,,,,,,163.42449150000175,None,,,,,,,,,,,,,,,,,,,,,,,,,,,,,,164.43771340000967,None,164.43771340000967,None,164.43771340000967,None,164.43771340000967,None,164.43771340000967,None,164.43771340000967,None,164.43771340000967,None,k,1,0.3811081999883754,164.43771340000967,None,,,,,,,,,,,,,24,001,2022_Oct_23_1833,Flanker,2021.2.0,239.80700330586245,
congruent-left.jpg,1,a,left_arrow.png,left_arrow.png,left_arrow.png,left_arrow.png,left_arrow.png,left_arrow.png,left_arrow.png,,,,,6,5,41,0,,,,,,,,,,,,,164.83846650000487,None,,,,,,,,,,,,,,,,,,,,,,,,,,,,,,165.8477617000026,None,165.8477617000026,None,165.8477617000026,None,165.8477617000026,None,165.8477617000026,None,165.8477617000026,None,165.8477617000026,None,a,1,0.3792612000106601,165.8477617000026,None,,,,,,,,,,,,,24,001,2022_Oct_23_1833,Flanker,2021.2.0,239.80700330586245,
neutral left,0,a,neutral.png,neutral.png,neutral.png,left_arrow.png,neutral.png,neutral.png,neutral.png,,,,,7,0,42,4,,,,,,,,,,,,,166.23980690000462,None,,,,,,,,,,,,,,,,,,,,,,,,,,,,,,167.2531927000091,None,167.2531927000091,None,167.2531927000091,None,167.2531927000091,None,167.2531927000091,None,167.2531927000091,None,167.2531927000091,None,a,1,0.3743804999976419,167.2531927000091,None,,,,,,,,,,,,,24,001,2022_Oct_23_1833,Flanker,2021.2.0,239.80700330586245,
incongruent-left.jpg,0,a,right_arrow.png,right_arrow.png,right_arrow.png,left_arrow.png,right_arrow.png,right_arrow.png,right_arrow.png,,,,,7,1,43,1,,,,,,,,,,,,,167.64526030000707,None,,,,,,,,,,,,,,,,,,,,,,,,,,,,,,168.65884299999743,None,168.65884299999743,None,168.65884299999743,None,168.65884299999743,None,168.65884299999743,None,168.65884299999743,None,168.65884299999743,None,a,1,0.40867369998886716,168.65884299999743,None,,,,,,,,,,,,,24,001,2022_Oct_23_1833,Flanker,2021.2.0,239.80700330586245,
incongruent-left.jpg,0,a,right_arrow.png,right_arrow.png,right_arrow.png,left_arrow.png,right_arrow.png,right_arrow.png,right_arrow.png,,,,,7,2,44,1,,,,,,,,,,,,,169.08436839999922,None,,,,,,,,,,,,,,,,,,,,,,,,,,,,,,170.1022137000109,None,170.1022137000109,None,170.1022137000109,None,170.1022137000109,None,170.1022137000109,None,170.1022137000109,None,170.1022137000109,None,a,1,0.4293914000008954,170.1022137000109,None,,,,,,,,,,,,,24,001,2022_Oct_23_1833,Flanker,2021.2.0,239.80700330586245,
neutral left,0,a,neutral.png,neutral.png,neutral.png,left_arrow.png,neutral.png,neutral.png,neutral.png,,,,,7,3,45,4,,,,,,,,,,,,,170.54418050000095,None,,,,,,,,,,,,,,,,,,,,,,,,,,,,,,171.55383040000743,None,171.55383040000743,None,171.55383040000743,None,171.55383040000743,None,171.55383040000743,None,171.55383040000743,None,171.55383040000743,None,a,1,0.34596000000601634,171.55383040000743,None,,,,,,,,,,,,,24,001,2022_Oct_23_1833,Flanker,2021.2.0,239.80700330586245,
congruent-left.jpg,1,a,left_arrow.png,left_arrow.png,left_arrow.png,left_arrow.png,left_arrow.png,left_arrow.png,left_arrow.png,,,,,7,4,46,0,,,,,,,,,,,,,171.91236740000022,None,,,,,,,,,,,,,,,,,,,,,,,,,,,,,,172.92632710000908,None,172.92632710000908,None,172.92632710000908,None,172.92632710000908,None,172.92632710000908,None,172.92632710000908,None,172.92632710000908,None,a,1,0.3256535999971675,172.92632710000908,None,,,,,,,,,,,,,24,001,2022_Oct_23_1833,Flanker,2021.2.0,239.80700330586245,
neutral right,0,k,neutral.png,neutral.png,neutral.png,right_arrow.png,neutral.png,neutral.png,neutral.png,,,,,7,5,47,5,,,,,,,,,,,,,173.26790489999985,None,,,,,,,,,,,,,,,,,,,,,,,,,,,,,,174.2818866000016,None,174.2818866000016,None,174.2818866000016,None,174.2818866000016,None,174.2818866000016,None,174.2818866000016,None,174.2818866000016,None,a,0,0.3783248999970965,174.2818866000016,None,,,,,,,,,,,,,24,001,2022_Oct_23_1833,Flanker,2021.2.0,239.80700330586245,
,,,,,,,,,,,,,,,,,,,,,,,,,,,,,,,,,,,,,,,,,,,,,,,,,,,,,,,,,,,,,,,,,,,,,,,,,,,,,,,,174.68624000001,None,space,2.4382908000116004,174.68624000001,None,,,,,,,24,001,2022_Oct_23_1833,Flanker,2021.2.0,239.80700330586245,
congruent-left.jpg,1,a,left_arrow.png,left_arrow.png,left_arrow.png,left_arrow.png,left_arrow.png,left_arrow.png,left_arrow.png,,,,,,,,,0,0,0,0,,,,,,,,,177.14710539999942,None,,,,,,,,,,,,,,,,,,,,,,,,,,,,,,178.15643990000535,None,178.15643990000535,None,178.15643990000535,None,178.15643990000535,None,178.15643990000535,None,178.15643990000535,None,178.15643990000535,None,a,1,1.7524913999950513,178.15643990000535,None,,,,,,,,,,,,,24,001,2022_Oct_23_1833,Flanker,2021.2.0,239.80700330586245,
incongruent-right.jpg,0,k,left_arrow.png,left_arrow.png,left_arrow.png,right_arrow.png,left_arrow.png,left_arrow.png,left_arrow.png,,,,,,,,,0,1,1,3,,,,,,,,,179.92504940000072,None,,,,,,,,,,,,,,,,,,,,,,,,,,,,,,180.93884090000938,None,180.93884090000938,None,180.93884090000938,None,180.93884090000938,None,180.93884090000938,None,180.93884090000938,None,180.93884090000938,None,k,1,0.5462952999951085,180.93884090000938,None,,,,,,,,,,,,,24,001,2022_Oct_23_1833,Flanker,2021.2.0,239.80700330586245,
incongruent-right.jpg,0,k,left_arrow.png,left_arrow.png,left_arrow.png,right_arrow.png,left_arrow.png,left_arrow.png,left_arrow.png,,,,,,,,,0,2,2,3,,,,,,,,,181.4977457000059,None,,,,,,,,,,,,,,,,,,,,,,,,,,,,,,182.50249290000647,None,182.50249290000647,None,182.50249290000647,None,182.50249290000647,None,182.50249290000647,None,182.50249290000647,None,182.50249290000647,None,k,1,0.7351089000003412,182.50249290000647,None,,,,,,,,,,,,,24,001,2022_Oct_23_1833,Flanker,2021.2.0,239.80700330586245,
neutral right,0,k,neutral.png,neutral.png,neutral.png,right_arrow.png,neutral.png,neutral.png,neutral.png,,,,,,,,,0,3,3,5,,,,,,,,,183.2536540000001,None,,,,,,,,,,,,,,,,,,,,,,,,,,,,,,184.2672864000051,None,184.2672864000051,None,184.2672864000051,None,184.2672864000051,None,184.2672864000051,None,184.2672864000051,None,184.2672864000051,None,k,1,0.49824319999606814,184.2672864000051,None,,,,,,,,,,,,,24,001,2022_Oct_23_1833,Flanker,2021.2.0,239.80700330586245,
incongruent-left.jpg,0,a,right_arrow.png,right_arrow.png,right_arrow.png,left_arrow.png,right_arrow.png,right_arrow.png,right_arrow.png,,,,,,,,,0,4,4,1,,,,,,,,,184.78427750000264,None,,,,,,,,,,,,,,,,,,,,,,,,,,,,,,185.79381329999887,None,185.79381329999887,None,185.79381329999887,None,185.79381329999887,None,185.79381329999887,None,185.79381329999887,None,185.79381329999887,None,a,1,0.4279400999948848,185.79381329999887,None,,,,,,,,,,,,,24,001,2022_Oct_23_1833,Flanker,2021.2.0,239.80700330586245,
congruent-right.jpg,1,k,right_arrow.png,right_arrow.png,right_arrow.png,right_arrow.png,right_arrow.png,right_arrow.png,right_arrow.png,,,,,,,,,0,5,5,2,,,,,,,,,186.23603610000282,None,,,,,,,,,,,,,,,,,,,,,,,,,,,,,,187.2454388000042,None,187.2454388000042,None,187.2454388000042,None,187.2454388000042,None,187.2454388000042,None,187.2454388000042,None,187.2454388000042,None,k,1,0.5208337999938522,187.2454388000042,None,,,,,,,,,,,,,24,001,2022_Oct_23_1833,Flanker,2021.2.0,239.80700330586245,
congruent-right.jpg,1,k,right_arrow.png,right_arrow.png,right_arrow.png,right_arrow.png,right_arrow.png,right_arrow.png,right_arrow.png,,,,,,,,,1,0,6,2,,,,,,,,,187.7794198000047,None,,,,,,,,,,,,,,,,,,,,,,,,,,,,,,188.79306870000437,None,188.79306870000437,None,188.79306870000437,None,188.79306870000437,None,188.79306870000437,None,188.79306870000437,None,188.79306870000437,None,k,1,0.47717589999956544,188.79306870000437,None,,,,,,,,,,,,,24,001,2022_Oct_23_1833,Flanker,2021.2.0,239.80700330586245,
incongruent-left.jpg,0,a,right_arrow.png,right_arrow.png,right_arrow.png,left_arrow.png,right_arrow.png,right_arrow.png,right_arrow.png,,,,,,,,,1,1,7,1,,,,,,,,,189.28513050000765,None,,,,,,,,,,,,,,,,,,,,,,,,,,,,,,190.29849300000933,None,190.29849300000933,None,190.29849300000933,None,190.29849300000933,None,190.29849300000933,None,190.29849300000933,None,190.29849300000933,None,a,1,0.41985940000449773,190.29849300000933,None,,,,,,,,,,,,,24,001,2022_Oct_23_1833,Flanker,2021.2.0,239.80700330586245,
incongruent-left.jpg,0,a,right_arrow.png,right_arrow.png,right_arrow.png,left_arrow.png,right_arrow.png,right_arrow.png,right_arrow.png,,,,,,,,,1,2,8,1,,,,,,,,,190.73223999999755,None,,,,,,,,,,,,,,,,,,,,,,,,,,,,,,191.74191209999844,None,191.74191209999844,None,191.74191209999844,None,191.74191209999844,None,191.74191209999844,None,191.74191209999844,None,191.74191209999844,None,a,1,0.42496469999605324,191.74191209999844,None,,,,,,,,,,,,,24,001,2022_Oct_23_1833,Flanker,2021.2.0,239.80700330586245,
congruent-right.jpg,1,k,right_arrow.png,right_arrow.png,right_arrow.png,right_arrow.png,right_arrow.png,right_arrow.png,right_arrow.png,,,,,,,,,1,3,9,2,,,,,,,,,192.18387930000608,None,,,,,,,,,,,,,,,,,,,,,,,,,,,,,,193.19759370000975,None,193.19759370000975,None,193.19759370000975,None,193.19759370000975,None,193.19759370000975,None,193.19759370000975,None,193.19759370000975,None,k,1,0.4493947000009939,193.19759370000975,None,,,,,,,,,,,,,24,001,2022_Oct_23_1833,Flanker,2021.2.0,239.80700330586245,
neutral left,0,a,neutral.png,neutral.png,neutral.png,left_arrow.png,neutral.png,neutral.png,neutral.png,,,,,,,,,1,4,10,4,,,,,,,,,193.6646080000064,None,,,,,,,,,,,,,,,,,,,,,,,,,,,,,,194.67395620000025,None,194.67395620000025,None,194.67395620000025,None,194.67395620000025,None,194.67395620000025,None,194.67395620000025,None,194.67395620000025,None,a,1,0.37298059999011457,194.67395620000025,None,,,,,,,,,,,,,24,001,2022_Oct_23_1833,Flanker,2021.2.0,239.80700330586245,
congruent-right.jpg,1,k,right_arrow.png,right_arrow.png,right_arrow.png,right_arrow.png,right_arrow.png,right_arrow.png,right_arrow.png,,,,,,,,,1,5,11,2,,,,,,,,,195.05807130000903,None,,,,,,,,,,,,,,,,,,,,,,,,,,,,,,196.06707910000114,None,196.06707910000114,None,196.06707910000114,None,196.06707910000114,None,196.06707910000114,None,196.06707910000114,None,196.06707910000114,None,k,1,0.39636509999400005,196.06707910000114,None,,,,,,,,,,,,,24,001,2022_Oct_23_1833,Flanker,2021.2.0,239.80700330586245,
incongruent-left.jpg,0,a,right_arrow.png,right_arrow.png,right_arrow.png,left_arrow.png,right_arrow.png,right_arrow.png,right_arrow.png,,,,,,,,,2,0,12,1,,,,,,,,,196.47585729999992,None,,,,,,,,,,,,,,,,,,,,,,,,,,,,,,197.49381480000739,None,197.49381480000739,None,197.49381480000739,None,197.49381480000739,None,197.49381480000739,None,197.49381480000739,None,197.49381480000739,None,a,1,0.34555579999869224,197.49381480000739,None,,,,,,,,,,,,,24,001,2022_Oct_23_1833,Flanker,2021.2.0,239.80700330586245,
incongruent-right.jpg,0,k,left_arrow.png,left_arrow.png,left_arrow.png,right_arrow.png,left_arrow.png,left_arrow.png,left_arrow.png,,,,,,,,,2,1,13,3,,,,,,,,,197.85236710000027,None,,,,,,,,,,,,,,,,,,,,,,,,,,,,,,198.86169700000028,None,198.86169700000028,None,198.86169700000028,None,198.86169700000028,None,198.86169700000028,None,198.86169700000028,None,198.86169700000028,None,k,1,0.4338100999884773,198.86169700000028,None,,,,,,,,,,,,,24,001,2022_Oct_23_1833,Flanker,2021.2.0,239.80700330586245,
incongruent-right.jpg,0,k,left_arrow.png,left_arrow.png,left_arrow.png,right_arrow.png,left_arrow.png,left_arrow.png,left_arrow.png,,,,,,,,,2,2,14,3,,,,,,,,,199.31224840000505,None,,,,,,,,,,,,,,,,,,,,,,,,,,,,,,200.3219650000101,None,200.3219650000101,None,200.3219650000101,None,200.3219650000101,None,200.3219650000101,None,200.3219650000101,None,200.3219650000101,None,k,1,0.44572859999607317,200.3219650000101,None,,,,,,,,,,,,,24,001,2022_Oct_23_1833,Flanker,2021.2.0,239.80700330586245,
incongruent-left.jpg,0,a,right_arrow.png,right_arrow.png,right_arrow.png,left_arrow.png,right_arrow.png,right_arrow.png,right_arrow.png,,,,,,,,,2,3,15,1,,,,,,,,,200.78039590000117,None,,,,,,,,,,,,,,,,,,,,,,,,,,,,,,201.79422799999884,None,201.79422799999884,None,201.79422799999884,None,201.79422799999884,None,201.79422799999884,None,201.79422799999884,None,201.79422799999884,None,a,1,0.40567120000196155,201.79422799999884,None,,,,,,,,,,,,,24,001,2022_Oct_23_1833,Flanker,2021.2.0,239.80700330586245,
neutral right,0,k,neutral.png,neutral.png,neutral.png,right_arrow.png,neutral.png,neutral.png,neutral.png,,,,,,,,,2,4,16,5,,,,,,,,,202.21942870000203,None,,,,,,,,,,,,,,,,,,,,,,,,,,,,,,203.23300610001024,None,203.23300610001024,None,203.23300610001024,None,203.23300610001024,None,203.23300610001024,None,203.23300610001024,None,203.23300610001024,None,k,1,0.41507619999174494,203.23300610001024,None,,,,,,,,,,,,,24,001,2022_Oct_23_1833,Flanker,2021.2.0,239.80700330586245,
neutral left,0,a,neutral.png,neutral.png,neutral.png,left_arrow.png,neutral.png,neutral.png,neutral.png,,,,,,,,,2,5,17,4,,,,,,,,,203.66679940000176,None,,,,,,,,,,,,,,,,,,,,,,,,,,,,,,204.67620349999925,None,204.67620349999925,None,204.67620349999925,None,204.67620349999925,None,204.67620349999925,None,204.67620349999925,None,204.67620349999925,None,a,1,0.3720759999996517,204.67620349999925,None,,,,,,,,,,,,,24,001,2022_Oct_23_1833,Flanker,2021.2.0,239.80700330586245,
incongruent-right.jpg,0,k,left_arrow.png,left_arrow.png,left_arrow.png,right_arrow.png,left_arrow.png,left_arrow.png,left_arrow.png,,,,,,,,,3,0,18,3,,,,,,,,,205.05994060001103,None,,,,,,,,,,,,,,,,,,,,,,,,,,,,,,206.07785929999955,None,206.07785929999955,None,206.07785929999955,None,206.07785929999955,None,206.07785929999955,None,206.07785929999955,None,206.07785929999955,None,k,1,0.402648200004478,206.07785929999955,None,,,,,,,,,,,,,24,001,2022_Oct_23_1833,Flanker,2021.2.0,239.80700330586245,
congruent-right.jpg,1,k,right_arrow.png,right_arrow.png,right_arrow.png,right_arrow.png,right_arrow.png,right_arrow.png,right_arrow.png,,,,,,,,,3,1,19,2,,,,,,,,,206.49478800001089,None,,,,,,,,,,,,,,,,,,,,,,,,,,,,,,207.5044715999975,None,207.5044715999975,None,207.5044715999975,None,207.5044715999975,None,207.5044715999975,None,207.5044715999975,None,207.5044715999975,None,k,1,0.4801942999911262,207.5044715999975,None,,,,,,,,,,,,,24,001,2022_Oct_23_1833,Flanker,2021.2.0,239.80700330586245,
neutral left,0,a,neutral.png,neutral.png,neutral.png,left_arrow.png,neutral.png,neutral.png,neutral.png,,,,,,,,,3,2,20,4,,,,,,,,,207.9963926000055,None,,,,,,,,,,,,,,,,,,,,,,,,,,,,,,209.00578259999747,None,209.00578259999747,None,209.00578259999747,None,209.00578259999747,None,209.00578259999747,None,209.00578259999747,None,209.00578259999747,None,a,1,0.363125099989702,209.00578259999747,None,,,,,,,,,,,,,24,001,2022_Oct_23_1833,Flanker,2021.2.0,239.80700330586245,
incongruent-right.jpg,0,k,left_arrow.png,left_arrow.png,left_arrow.png,right_arrow.png,left_arrow.png,left_arrow.png,left_arrow.png,,,,,,,,,3,3,21,3,,,,,,,,,209.38119770000048,None,,,,,,,,,,,,,,,,,,,,,,,,,,,,,,210.3947879000043,None,210.3947879000043,None,210.3947879000043,None,210.3947879000043,None,210.3947879000043,None,210.3947879000043,None,210.3947879000043,None,a,0,0.38229960000899155,210.3947879000043,None,,,,,,,,,,,,,24,001,2022_Oct_23_1833,Flanker,2021.2.0,239.80700330586245,
neutral right,0,k,neutral.png,neutral.png,neutral.png,right_arrow.png,neutral.png,neutral.png,neutral.png,,,,,,,,,3,4,22,5,,,,,,,,,210.79104660000303,None,,,,,,,,,,,,,,,,,,,,,,,,,,,,,,211.80461960000684,None,211.80461960000684,None,211.80461960000684,None,211.80461960000684,None,211.80461960000684,None,211.80461960000684,None,211.80461960000684,None,k,1,0.7326795999979367,211.80461960000684,None,,,,,,,,,,,,,24,001,2022_Oct_23_1833,Flanker,2021.2.0,239.80700330586245,
neutral right,0,k,neutral.png,neutral.png,neutral.png,right_arrow.png,neutral.png,neutral.png,neutral.png,,,,,,,,,3,5,23,5,,,,,,,,,212.55539270000008,None,,,,,,,,,,,,,,,,,,,,,,,,,,,,,,213.5648474000045,None,213.5648474000045,None,213.5648474000045,None,213.5648474000045,None,213.5648474000045,None,213.5648474000045,None,213.5648474000045,None,k,1,0.49265500000910833,213.5648474000045,None,,,,,,,,,,,,,24,001,2022_Oct_23_1833,Flanker,2021.2.0,239.80700330586245,
neutral left,0,a,neutral.png,neutral.png,neutral.png,left_arrow.png,neutral.png,neutral.png,neutral.png,,,,,,,,,4,0,24,4,,,,,,,,,214.07371769999736,None,,,,,,,,,,,,,,,,,,,,,,,,,,,,,,215.0832114000077,None,215.0832114000077,None,215.0832114000077,None,215.0832114000077,None,215.0832114000077,None,215.0832114000077,None,215.0832114000077,None,a,1,0.40696870000101626,215.0832114000077,None,,,,,,,,,,,,,24,001,2022_Oct_23_1833,Flanker,2021.2.0,239.80700330586245,
neutral right,0,k,neutral.png,neutral.png,neutral.png,right_arrow.png,neutral.png,neutral.png,neutral.png,,,,,,,,,4,1,25,5,,,,,,,,,215.50852529999975,None,,,,,,,,,,,,,,,,,,,,,,,,,,,,,,216.52651910000714,None,216.52651910000714,None,216.52651910000714,None,216.52651910000714,None,216.52651910000714,None,216.52651910000714,None,216.52651910000714,None,k,1,0.3873623999970732,216.52651910000714,None,,,,,,,,,,,,,24,001,2022_Oct_23_1833,Flanker,2021.2.0,239.80700330586245,
neutral left,0,a,neutral.png,neutral.png,neutral.png,left_arrow.png,neutral.png,neutral.png,neutral.png,,,,,,,,,4,2,26,4,,,,,,,,,216.92677649999678,None,,,,,,,,,,,,,,,,,,,,,,,,,,,,,,217.94052360000205,None,217.94052360000205,None,217.94052360000205,None,217.94052360000205,None,217.94052360000205,None,217.94052360000205,None,217.94052360000205,None,a,1,0.37397369999962393,217.94052360000205,None,,,,,,,,,,,,,24,001,2022_Oct_23_1833,Flanker,2021.2.0,239.80700330586245,
neutral left,0,a,neutral.png,neutral.png,neutral.png,left_arrow.png,neutral.png,neutral.png,neutral.png,,,,,,,,,4,3,27,4,,,,,,,,,218.33233220000693,None,,,,,,,,,,,,,,,,,,,,,,,,,,,,,,219.34591950000322,None,219.34591950000322,None,219.34591950000322,None,219.34591950000322,None,219.34591950000322,None,219.34591950000322,None,219.34591950000322,None,a,1,0.40035499999066815,219.34591950000322,None,,,,,,,,,,,,,24,001,2022_Oct_23_1833,Flanker,2021.2.0,239.80700330586245,
congruent-left.jpg,1,a,left_arrow.png,left_arrow.png,left_arrow.png,left_arrow.png,left_arrow.png,left_arrow.png,left_arrow.png,,,,,,,,,4,4,28,0,,,,,,,,,219.76312000000325,None,,,,,,,,,,,,,,,,,,,,,,,,,,,,,,220.77668290000292,None,220.77668290000292,None,220.77668290000292,None,220.77668290000292,None,220.77668290000292,None,220.77668290000292,None,220.77668290000292,None,a,1,0.36981160000141244,220.77668290000292,None,,,,,,,,,,,,,24,001,2022_Oct_23_1833,Flanker,2021.2.0,239.80700330586245,
neutral right,0,k,neutral.png,neutral.png,neutral.png,right_arrow.png,neutral.png,neutral.png,neutral.png,,,,,,,,,4,5,29,5,,,,,,,,,221.16036249999888,None,,,,,,,,,,,,,,,,,,,,,,,,,,,,,,222.174147800004,None,222.174147800004,None,222.174147800004,None,222.174147800004,None,222.174147800004,None,222.174147800004,None,222.174147800004,None,k,1,0.40454039999167435,222.174147800004,None,,,,,,,,,,,,,24,001,2022_Oct_23_1833,Flanker,2021.2.0,239.80700330586245,
incongruent-left.jpg,0,a,right_arrow.png,right_arrow.png,right_arrow.png,left_arrow.png,right_arrow.png,right_arrow.png,right_arrow.png,,,,,,,,,5,0,30,1,,,,,,,,,222.5911281000008,None,,,,,,,,,,,,,,,,,,,,,,,,,,,,,,223.60483340000792,None,223.60483340000792,None,223.60483340000792,None,223.60483340000792,None,223.60483340000792,None,223.60483340000792,None,223.60483340000792,None,a,1,0.38234510000620503,223.60483340000792,None,,,,,,,,,,,,,24,001,2022_Oct_23_1833,Flanker,2021.2.0,239.80700330586245,
incongruent-left.jpg,0,a,right_arrow.png,right_arrow.png,right_arrow.png,left_arrow.png,right_arrow.png,right_arrow.png,right_arrow.png,,,,,,,,,5,1,31,1,,,,,,,,,224.00505279999925,None,,,,,,,,,,,,,,,,,,,,,,,,,,,,,,225.01465029999963,None,225.01465029999963,None,225.01465029999963,None,225.01465029999963,None,225.01465029999963,None,225.01465029999963,None,225.01465029999963,None,a,1,0.40442869999969844,225.01465029999963,None,,,,,,,,,,,,,24,001,2022_Oct_23_1833,Flanker,2021.2.0,239.80700330586245,
incongruent-right.jpg,0,k,left_arrow.png,left_arrow.png,left_arrow.png,right_arrow.png,left_arrow.png,left_arrow.png,left_arrow.png,,,,,,,,,5,2,32,3,,,,,,,,,225.43155530000513,None,,,,,,,,,,,,,,,,,,,,,,,,,,,,,,226.44129290001,None,226.44129290001,None,226.44129290001,None,226.44129290001,None,226.44129290001,None,226.44129290001,None,226.44129290001,None,k,1,0.4260031000012532,226.44129290001,None,,,,,,,,,,,,,24,001,2022_Oct_23_1833,Flanker,2021.2.0,239.80700330586245,
incongruent-left.jpg,0,a,right_arrow.png,right_arrow.png,right_arrow.png,left_arrow.png,right_arrow.png,right_arrow.png,right_arrow.png,,,,,,,,,5,3,33,1,,,,,,,,,226.88316330000816,None,,,,,,,,,,,,,,,,,,,,,,,,,,,,,,227.89279910000914,None,227.89279910000914,None,227.89279910000914,None,227.89279910000914,None,227.89279910000914,None,227.89279910000914,None,227.89279910000914,None,a,1,0.398920999999973,227.89279910000914,None,,,,,,,,,,,,,24,001,2022_Oct_23_1833,Flanker,2021.2.0,239.80700330586245,
congruent-left.jpg,1,a,left_arrow.png,left_arrow.png,left_arrow.png,left_arrow.png,left_arrow.png,left_arrow.png,left_arrow.png,,,,,,,,,5,4,34,0,,,,,,,,,228.30961240000033,None,,,,,,,,,,,,,,,,,,,,,,,,,,,,,,229.32319049999933,None,229.32319049999933,None,229.32319049999933,None,229.32319049999933,None,229.32319049999933,None,229.32319049999933,None,229.32319049999933,None,a,1,0.42482339999696705,229.32319049999933,None,,,,,,,,,,,,,24,001,2022_Oct_23_1833,Flanker,2021.2.0,239.80700330586245,
congruent-right.jpg,1,k,right_arrow.png,right_arrow.png,right_arrow.png,right_arrow.png,right_arrow.png,right_arrow.png,right_arrow.png,,,,,,,,,5,5,35,2,,,,,,,,,229.76567420001084,None,,,,,,,,,,,,,,,,,,,,,,,,,,,,,,230.77490119999857,None,230.77490119999857,None,230.77490119999857,None,230.77490119999857,None,230.77490119999857,None,230.77490119999857,None,230.77490119999857,None,k,1,0.37292409999645315,230.77490119999857,None,,,,,,,,,,,,,24,001,2022_Oct_23_1833,Flanker,2021.2.0,239.80700330586245,
congruent-right.jpg,1,k,right_arrow.png,right_arrow.png,right_arrow.png,right_arrow.png,right_arrow.png,right_arrow.png,right_arrow.png,,,,,,,,,6,0,36,2,,,,,,,,,231.16723910000292,None,,,,,,,,,,,,,,,,,,,,,,,,,,,,,,232.18073449999793,None,232.18073449999793,None,232.18073449999793,None,232.18073449999793,None,232.18073449999793,None,232.18073449999793,None,232.18073449999793,None,k,1,0.5193007999914698,232.18073449999793,None,,,,,,,,,,,,,24,001,2022_Oct_23_1833,Flanker,2021.2.0,239.80700330586245,
neutral right,0,k,neutral.png,neutral.png,neutral.png,right_arrow.png,neutral.png,neutral.png,neutral.png,,,,,,,,,6,1,37,5,,,,,,,,,232.71425299999828,None,,,,,,,,,,,,,,,,,,,,,,,,,,,,,,233.72401489999902,None,233.72401489999902,None,233.72401489999902,None,233.72401489999902,None,233.72401489999902,None,233.72401489999902,None,233.72401489999902,None,k,1,0.43248079999466427,233.72401489999902,None,,,,,,,,,,,,,24,001,2022_Oct_23_1833,Flanker,2021.2.0,239.80700330586245,
neutral left,0,a,neutral.png,neutral.png,neutral.png,left_arrow.png,neutral.png,neutral.png,neutral.png,,,,,,,,,6,2,38,4,,,,,,,,,234.1741655000078,None,,,,,,,,,,,,,,,,,,,,,,,,,,,,,,235.1838024000026,None,235.1838024000026,None,235.1838024000026,None,235.1838024000026,None,235.1838024000026,None,235.1838024000026,None,235.1838024000026,None,a,1,0.3726211000030162,235.1838024000026,None,,,,,,,,,,,,,24,001,2022_Oct_23_1833,Flanker,2021.2.0,239.80700330586245,
congruent-left.jpg,1,a,left_arrow.png,left_arrow.png,left_arrow.png,left_arrow.png,left_arrow.png,left_arrow.png,left_arrow.png,,,,,,,,,6,3,39,0,,,,,,,,,235.5756420000107,None,,,,,,,,,,,,,,,,,,,,,,,,,,,,,,236.58958050000365,None,236.58958050000365,None,236.58958050000365,None,236.58958050000365,None,236.58958050000365,None,236.58958050000365,None,236.58958050000365,None,a,1,0.4310385999997379,236.58958050000365,None,,,,,,,,,,,,,24,001,2022_Oct_23_1833,Flanker,2021.2.0,239.80700330586245,
congruent-left.jpg,1,a,left_arrow.png,left_arrow.png,left_arrow.png,left_arrow.png,left_arrow.png,left_arrow.png,left_arrow.png,,,,,,,,,6,4,40,0,,,,,,,,,237.0397656999994,None,,,,,,,,,,,,,,,,,,,,,,,,,,,,,,238.04934130000765,None,238.04934130000765,None,238.04934130000765,None,238.04934130000765,None,238.04934130000765,None,238.04934130000765,None,238.04934130000765,None,a,1,0.3714607000001706,238.04934130000765,None,,,,,,,,,,,,,24,001,2022_Oct_23_1833,Flanker,2021.2.0,239.80700330586245,
neutral left,0,a,neutral.png,neutral.png,neutral.png,left_arrow.png,neutral.png,neutral.png,neutral.png,,,,,,,,,6,5,41,4,,,,,,,,,238.432825099997,None,,,,,,,,,,,,,,,,,,,,,,,,,,,,,,239.44668570000795,None,239.44668570000795,None,239.44668570000795,None,239.44668570000795,None,239.44668570000795,None,239.44668570000795,None,239.44668570000795,None,a,1,0.43831450000288896,239.44668570000795,None,,,,,,,,,,,,,24,001,2022_Oct_23_1833,Flanker,2021.2.0,239.80700330586245,
incongruent-right.jpg,0,k,left_arrow.png,left_arrow.png,left_arrow.png,right_arrow.png,left_arrow.png,left_arrow.png,left_arrow.png,,,,,,,,,7,0,42,3,,,,,,,,,239.8968915000005,None,,,,,,,,,,,,,,,,,,,,,,,,,,,,,,240.91071840000222,None,240.91071840000222,None,240.91071840000222,None,240.91071840000222,None,240.91071840000222,None,240.91071840000222,None,240.91071840000222,None,k,1,0.598511200005305,240.91071840000222,None,,,,,,,,,,,,,24,001,2022_Oct_23_1833,Flanker,2021.2.0,239.80700330586245,
congruent-left.jpg,1,a,left_arrow.png,left_arrow.png,left_arrow.png,left_arrow.png,left_arrow.png,left_arrow.png,left_arrow.png,,,,,,,,,7,1,43,0,,,,,,,,,241.5277899000066,None,,,,,,,,,,,,,,,,,,,,,,,,,,,,,,242.53752490000625,None,242.53752490000625,None,242.53752490000625,None,242.53752490000625,None,242.53752490000625,None,242.53752490000625,None,242.53752490000625,None,a,1,0.4758856999978889,242.53752490000625,None,,,,,,,,,,,,,24,001,2022_Oct_23_1833,Flanker,2021.2.0,239.80700330586245,
neutral right,0,k,neutral.png,neutral.png,neutral.png,right_arrow.png,neutral.png,neutral.png,neutral.png,,,,,,,,,7,2,44,5,,,,,,,,,243.02945550000004,None,,,,,,,,,,,,,,,,,,,,,,,,,,,,,,244.04747050000879,None,244.04747050000879,None,244.04747050000879,None,244.04747050000879,None,244.04747050000879,None,244.04747050000879,None,244.04747050000879,None,k,1,0.37444059998961166,244.04747050000879,None,,,,,,,,,,,,,24,001,2022_Oct_23_1833,Flanker,2021.2.0,239.80700330586245,
congruent-left.jpg,1,a,left_arrow.png,left_arrow.png,left_arrow.png,left_arrow.png,left_arrow.png,left_arrow.png,left_arrow.png,,,,,,,,,7,3,45,0,,,,,,,,,244.43927260000783,None,,,,,,,,,,,,,,,,,,,,,,,,,,,,,,245.44861279999895,None,245.44861279999895,None,245.44861279999895,None,245.44861279999895,None,245.44861279999895,None,245.44861279999895,None,245.44861279999895,None,a,1,0.42123690000153147,245.44861279999895,None,,,,,,,,,,,,,24,001,2022_Oct_23_1833,Flanker,2021.2.0,239.80700330586245,
congruent-left.jpg,1,a,left_arrow.png,left_arrow.png,left_arrow.png,left_arrow.png,left_arrow.png,left_arrow.png,left_arrow.png,,,,,,,,,7,4,46,0,,,,,,,,,245.88248050000402,None,,,,,,,,,,,,,,,,,,,,,,,,,,,,,,246.89210430000094,None,246.89210430000094,None,246.89210430000094,None,246.89210430000094,None,246.89210430000094,None,246.89210430000094,None,246.89210430000094,None,a,1,0.609950400001253,246.89210430000094,None,,,,,,,,,,,,,24,001,2022_Oct_23_1833,Flanker,2021.2.0,239.80700330586245,
congruent-right.jpg,1,k,right_arrow.png,right_arrow.png,right_arrow.png,right_arrow.png,right_arrow.png,right_arrow.png,right_arrow.png,,,,,,,,,7,5,47,2,,,,,,,,,247.51748750000843,None,,,,,,,,,,,,,,,,,,,,,,,,,,,,,,248.52711330000602,None,248.52711330000602,None,248.52711330000602,None,248.52711330000602,None,248.52711330000602,None,248.52711330000602,None,248.52711330000602,None,k,1,0.45511330000590533,248.52711330000602,None,,,,,,,,,,,,,24,001,2022_Oct_23_1833,Flanker,2021.2.0,239.80700330586245,
,,,,,,,,,,,,,,,,,,,,,,,,,,,,,,,,,,,,,,,,,,,,,,,,,,,,,,,,,,,,,,,,,,,,,,,,,,,,,,,,249.00694310000108,None,space,1.4474884999945061,249.00694310000108,None,,,,,,,24,001,2022_Oct_23_1833,Flanker,2021.2.0,239.80700330586245,
incongruent-right.jpg,0,k,left_arrow.png,left_arrow.png,left_arrow.png,right_arrow.png,left_arrow.png,left_arrow.png,left_arrow.png,,,,,,,,,,,,,0,0,0,3,,,,,250.47488290000183,None,,,,,,,,,,,,,,,,,,,,,,,,,,,,,,251.4800324000098,None,251.4800324000098,None,251.4800324000098,None,251.4800324000098,None,251.4800324000098,None,251.4800324000098,None,251.4800324000098,None,k,1,0.6706733999890275,251.4800324000098,None,,,,,,,,,,,,,24,001,2022_Oct_23_1833,Flanker,2021.2.0,239.80700330586245,
congruent-right.jpg,1,k,right_arrow.png,right_arrow.png,right_arrow.png,right_arrow.png,right_arrow.png,right_arrow.png,right_arrow.png,,,,,,,,,,,,,0,1,1,2,,,,,252.1641505000007,None,,,,,,,,,,,,,,,,,,,,,,,,,,,,,,253.1779233999987,None,253.1779233999987,None,253.1779233999987,None,253.1779233999987,None,253.1779233999987,None,253.1779233999987,None,253.1779233999987,None,k,1,0.6450225000007777,253.1779233999987,None,,,,,,,,,,,,,24,001,2022_Oct_23_1833,Flanker,2021.2.0,239.80700330586245,
congruent-left.jpg,1,a,left_arrow.png,left_arrow.png,left_arrow.png,left_arrow.png,left_arrow.png,left_arrow.png,left_arrow.png,,,,,,,,,,,,,0,2,2,0,,,,,253.83668800001033,None,,,,,,,,,,,,,,,,,,,,,,,,,,,,,,254.85040789999766,None,254.85040789999766,None,254.85040789999766,None,254.85040789999766,None,254.85040789999766,None,254.85040789999766,None,254.85040789999766,None,a,1,0.5567579000053229,254.85040789999766,None,,,,,,,,,,,,,24,001,2022_Oct_23_1833,Flanker,2021.2.0,239.80700330586245,
neutral left,0,a,neutral.png,neutral.png,neutral.png,left_arrow.png,neutral.png,neutral.png,neutral.png,,,,,,,,,,,,,0,3,3,4,,,,,255.42617590000737,None,,,,,,,,,,,,,,,,,,,,,,,,,,,,,,256.4356709999993,None,256.4356709999993,None,256.4356709999993,None,256.4356709999993,None,256.4356709999993,None,256.4356709999993,None,256.4356709999993,None,a,1,0.5636377000046195,256.4356709999993,None,,,,,,,,,,,,,24,001,2022_Oct_23_1833,Flanker,2021.2.0,239.80700330586245,
incongruent-right.jpg,0,k,left_arrow.png,left_arrow.png,left_arrow.png,right_arrow.png,left_arrow.png,left_arrow.png,left_arrow.png,,,,,,,,,,,,,0,4,4,3,,,,,257.01111910000327,None,,,,,,,,,,,,,,,,,,,,,,,,,,,,,,258.02467080000497,None,258.02467080000497,None,258.02467080000497,None,258.02467080000497,None,258.02467080000497,None,258.02467080000497,None,258.02467080000497,None,k,1,0.4871214000013424,258.02467080000497,None,,,,,,,,,,,,,24,001,2022_Oct_23_1833,Flanker,2021.2.0,239.80700330586245,
incongruent-left.jpg,0,a,right_arrow.png,right_arrow.png,right_arrow.png,left_arrow.png,right_arrow.png,right_arrow.png,right_arrow.png,,,,,,,,,,,,,0,5,5,1,,,,,258.52521420000994,None,,,,,,,,,,,,,,,,,,,,,,,,,,,,,,259.53454619999684,None,259.53454619999684,None,259.53454619999684,None,259.53454619999684,None,259.53454619999684,None,259.53454619999684,None,259.53454619999684,None,a,1,0.48920640000142157,259.53454619999684,None,,,,,,,,,,,,,24,001,2022_Oct_23_1833,Flanker,2021.2.0,239.80700330586245,
neutral left,0,a,neutral.png,neutral.png,neutral.png,left_arrow.png,neutral.png,neutral.png,neutral.png,,,,,,,,,,,,,1,0,6,4,,,,,260.03515250000055,None,,,,,,,,,,,,,,,,,,,,,,,,,,,,,,261.044481600009,None,261.044481600009,None,261.044481600009,None,261.044481600009,None,261.044481600009,None,261.044481600009,None,261.044481600009,None,a,1,0.531483600003412,261.044481600009,None,,,,,,,,,,,,,24,001,2022_Oct_23_1833,Flanker,2021.2.0,239.80700330586245,
congruent-right.jpg,1,k,right_arrow.png,right_arrow.png,right_arrow.png,right_arrow.png,right_arrow.png,right_arrow.png,right_arrow.png,,,,,,,,,,,,,1,1,7,2,,,,,261.59512930001074,None,,,,,,,,,,,,,,,,,,,,,,,,,,,,,,262.6087081000005,None,262.6087081000005,None,262.6087081000005,None,262.6087081000005,None,262.6087081000005,None,262.6087081000005,None,262.6087081000005,None,k,1,0.7597266999946442,262.6087081000005,None,,,,,,,,,,,,,24,001,2022_Oct_23_1833,Flanker,2021.2.0,239.80700330586245,
incongruent-right.jpg,0,k,left_arrow.png,left_arrow.png,left_arrow.png,right_arrow.png,left_arrow.png,left_arrow.png,left_arrow.png,,,,,,,,,,,,,1,2,8,3,,,,,263.3845438999997,None,,,,,,,,,,,,,,,,,,,,,,,,,,,,,,264.39803490000486,None,264.39803490000486,None,264.39803490000486,None,264.39803490000486,None,264.39803490000486,None,264.39803490000486,None,264.39803490000486,None,k,1,0.4745415000070352,264.39803490000486,None,,,,,,,,,,,,,24,001,2022_Oct_23_1833,Flanker,2021.2.0,239.80700330586245,
neutral left,0,a,neutral.png,neutral.png,neutral.png,left_arrow.png,neutral.png,neutral.png,neutral.png,,,,,,,,,,,,,1,3,9,4,,,,,264.8901656000089,None,,,,,,,,,,,,,,,,,,,,,,,,,,,,,,265.89979130000575,None,265.89979130000575,None,265.89979130000575,None,265.89979130000575,None,265.89979130000575,None,265.89979130000575,None,265.89979130000575,None,a,1,0.5011489000025904,265.89979130000575,None,,,,,,,,,,,,,24,001,2022_Oct_23_1833,Flanker,2021.2.0,239.80700330586245,
neutral right,0,k,neutral.png,neutral.png,neutral.png,right_arrow.png,neutral.png,neutral.png,neutral.png,,,,,,,,,,,,,1,4,10,5,,,,,266.41689100000076,None,,,,,,,,,,,,,,,,,,,,,,,,,,,,,,267.4304533999966,None,267.4304533999966,None,267.4304533999966,None,267.4304533999966,None,267.4304533999966,None,267.4304533999966,None,267.4304533999966,None,k,1,0.6748267999937525,267.4304533999966,None,,,,,,,,,,,,,24,001,2022_Oct_23_1833,Flanker,2021.2.0,239.80700330586245,
incongruent-left.jpg,0,a,right_arrow.png,right_arrow.png,right_arrow.png,left_arrow.png,right_arrow.png,right_arrow.png,right_arrow.png,,,,,,,,,,,,,1,5,11,1,,,,,268.12269289999676,None,,,,,,,,,,,,,,,,,,,,,,,,,,,,,,269.1364789000072,None,269.1364789000072,None,269.1364789000072,None,269.1364789000072,None,269.1364789000072,None,269.1364789000072,None,269.1364789000072,None,a,1,0.48057620000327006,269.1364789000072,None,,,,,,,,,,,,,24,001,2022_Oct_23_1833,Flanker,2021.2.0,239.80700330586245,
congruent-left.jpg,1,a,left_arrow.png,left_arrow.png,left_arrow.png,left_arrow.png,left_arrow.png,left_arrow.png,left_arrow.png,,,,,,,,,,,,,2,0,12,0,,,,,269.62877200001094,None,,,,,,,,,,,,,,,,,,,,,,,,,,,,,,270.64221309999994,None,270.64221309999994,None,270.64221309999994,None,270.64221309999994,None,270.64221309999994,None,270.64221309999994,None,270.64221309999994,None,a,1,0.4792042999906698,270.64221309999994,None,,,,,,,,,,,,,24,001,2022_Oct_23_1833,Flanker,2021.2.0,239.80700330586245,
incongruent-left.jpg,0,a,right_arrow.png,right_arrow.png,right_arrow.png,left_arrow.png,right_arrow.png,right_arrow.png,right_arrow.png,,,,,,,,,,,,,2,1,13,1,,,,,271.13443659999757,None,,,,,,,,,,,,,,,,,,,,,,,,,,,,,,272.1396367999987,None,272.1396367999987,None,272.1396367999987,None,272.1396367999987,None,272.1396367999987,None,272.1396367999987,None,272.1396367999987,None,a,1,0.5260732000024291,272.1396367999987,None,,,,,,,,,,,,,24,001,2022_Oct_23_1833,Flanker,2021.2.0,239.80700330586245,
congruent-left.jpg,1,a,left_arrow.png,left_arrow.png,left_arrow.png,left_arrow.png,left_arrow.png,left_arrow.png,left_arrow.png,,,,,,,,,,,,,2,2,14,0,,,,,272.68187660000694,None,,,,,,,,,,,,,,,,,,,,,,,,,,,,,,273.69126590000815,None,273.69126590000815,None,273.69126590000815,None,273.69126590000815,None,273.69126590000815,None,273.69126590000815,None,273.69126590000815,None,a,1,0.44641560000309255,273.69126590000815,None,,,,,,,,,,,,,24,001,2022_Oct_23_1833,Flanker,2021.2.0,239.80700330586245,
incongruent-left.jpg,0,a,right_arrow.png,right_arrow.png,right_arrow.png,left_arrow.png,right_arrow.png,right_arrow.png,right_arrow.png,,,,,,,,,,,,,2,3,15,1,,,,,274.15016980000655,None,,,,,,,,,,,,,,,,,,,,,,,,,,,,,,275.15535870000895,None,275.15535870000895,None,275.15535870000895,None,275.15535870000895,None,275.15535870000895,None,275.15535870000895,None,275.15535870000895,None,a,1,0.47081749999779277,275.15535870000895,None,,,,,,,,,,,,,24,001,2022_Oct_23_1833,Flanker,2021.2.0,239.80700330586245,
neutral left,0,a,neutral.png,neutral.png,neutral.png,left_arrow.png,neutral.png,neutral.png,neutral.png,,,,,,,,,,,,,2,4,16,4,,,,,275.6391936,None,,,,,,,,,,,,,,,,,,,,,,,,,,,,,,276.6525341000088,None,276.6525341000088,None,276.6525341000088,None,276.6525341000088,None,276.6525341000088,None,276.6525341000088,None,276.6525341000088,None,a,1,0.46191969999927096,276.6525341000088,None,,,,,,,,,,,,,24,001,2022_Oct_23_1833,Flanker,2021.2.0,239.80700330586245,
congruent-right.jpg,1,k,right_arrow.png,right_arrow.png,right_arrow.png,right_arrow.png,right_arrow.png,right_arrow.png,right_arrow.png,,,,,,,,,,,,,2,5,17,2,,,,,277.12829410000995,None,,,,,,,,,,,,,,,,,,,,,,,,,,,,,,278.13766469999973,None,278.13766469999973,None,278.13766469999973,None,278.13766469999973,None,278.13766469999973,None,278.13766469999973,None,278.13766469999973,None,a,0,0.3288960999925621,278.13766469999973,None,,,,,,,,,,,,,24,001,2022_Oct_23_1833,Flanker,2021.2.0,239.80700330586245,
congruent-right.jpg,1,k,right_arrow.png,right_arrow.png,right_arrow.png,right_arrow.png,right_arrow.png,right_arrow.png,right_arrow.png,,,,,,,,,,,,,3,0,18,2,,,,,278.4797099999996,None,,,,,,,,,,,,,,,,,,,,,,,,,,,,,,279.48916969999846,None,279.48916969999846,None,279.48916969999846,None,279.48916969999846,None,279.48916969999846,None,279.48916969999846,None,279.48916969999846,None,k,1,0.14546980000159238,279.48916969999846,None,,,,,,,,,,,,,24,001,2022_Oct_23_1833,Flanker,2021.2.0,239.80700330586245,
incongruent-right.jpg,0,k,left_arrow.png,left_arrow.png,left_arrow.png,right_arrow.png,left_arrow.png,left_arrow.png,left_arrow.png,,,,,,,,,,,,,3,1,19,3,,,,,279.6476112000091,None,,,,,,,,,,,,,,,,,,,,,,,,,,,,,,280.66120180000144,None,280.66120180000144,None,280.66120180000144,None,280.66120180000144,None,280.66120180000144,None,280.66120180000144,None,280.66120180000144,None,k,1,0.517623600011575,280.66120180000144,None,,,,,,,,,,,,,24,001,2022_Oct_23_1833,Flanker,2021.2.0,239.80700330586245,
neutral right,0,k,neutral.png,neutral.png,neutral.png,right_arrow.png,neutral.png,neutral.png,neutral.png,,,,,,,,,,,,,3,2,20,5,,,,,281.19507030000386,None,,,,,,,,,,,,,,,,,,,,,,,,,,,,,,282.20426290000614,None,282.20426290000614,None,282.20426290000614,None,282.20426290000614,None,282.20426290000614,None,282.20426290000614,None,282.20426290000614,None,k,1,0.45454659999813884,282.20426290000614,None,,,,,,,,,,,,,24,001,2022_Oct_23_1833,Flanker,2021.2.0,239.80700330586245,
incongruent-right.jpg,0,k,left_arrow.png,left_arrow.png,left_arrow.png,right_arrow.png,left_arrow.png,left_arrow.png,left_arrow.png,,,,,,,,,,,,,3,3,21,3,,,,,282.6716271000041,None,,,,,,,,,,,,,,,,,,,,,,,,,,,,,,283.6811019000015,None,283.6811019000015,None,283.6811019000015,None,283.6811019000015,None,283.6811019000015,None,283.6811019000015,None,283.6811019000015,None,k,1,0.5942248000064865,283.6811019000015,None,,,,,,,,,,,,,24,001,2022_Oct_23_1833,Flanker,2021.2.0,239.80700330586245,
congruent-right.jpg,1,k,right_arrow.png,right_arrow.png,right_arrow.png,right_arrow.png,right_arrow.png,right_arrow.png,right_arrow.png,,,,,,,,,,,,,3,4,22,2,,,,,284.2900684000051,None,,,,,,,,,,,,,,,,,,,,,,,,,,,,,,285.2994367000065,None,285.2994367000065,None,285.2994367000065,None,285.2994367000065,None,285.2994367000065,None,285.2994367000065,None,285.2994367000065,None,k,1,0.45580700000573415,285.2994367000065,None,,,,,,,,,,,,,24,001,2022_Oct_23_1833,Flanker,2021.2.0,239.80700330586245,
incongruent-right.jpg,0,k,left_arrow.png,left_arrow.png,left_arrow.png,right_arrow.png,left_arrow.png,left_arrow.png,left_arrow.png,,,,,,,,,,,,,3,5,23,3,,,,,285.7666962000076,None,,,,,,,,,,,,,,,,,,,,,,,,,,,,,,286.7761030999973,None,286.7761030999973,None,286.7761030999973,None,286.7761030999973,None,286.7761030999973,None,286.7761030999973,None,286.7761030999973,None,k,1,0.44375550000404473,286.7761030999973,None,,,,,,,,,,,,,24,001,2022_Oct_23_1833,Flanker,2021.2.0,239.80700330586245,
incongruent-left.jpg,0,a,right_arrow.png,right_arrow.png,right_arrow.png,left_arrow.png,right_arrow.png,right_arrow.png,right_arrow.png,,,,,,,,,,,,,4,0,24,1,,,,,287.2348139000096,None,,,,,,,,,,,,,,,,,,,,,,,,,,,,,,288.2442563000077,None,288.2442563000077,None,288.2442563000077,None,288.2442563000077,None,288.2442563000077,None,288.2442563000077,None,288.2442563000077,None,a,1,0.5996364000020549,288.2442563000077,None,,,,,,,,,,,,,24,001,2022_Oct_23_1833,Flanker,2021.2.0,239.80700330586245,
congruent-left.jpg,1,a,left_arrow.png,left_arrow.png,left_arrow.png,left_arrow.png,left_arrow.png,left_arrow.png,left_arrow.png,,,,,,,,,,,,,4,1,25,0,,,,,288.86155919999874,None,,,,,,,,,,,,,,,,,,,,,,,,,,,,,,289.875045599998,None,289.875045599998,None,289.875045599998,None,289.875045599998,None,289.875045599998,None,289.875045599998,None,289.875045599998,None,k,0,0.4011758999986341,289.875045599998,None,,,,,,,,,,,,,24,001,2022_Oct_23_1833,Flanker,2021.2.0,239.80700330586245,
incongruent-left.jpg,0,a,right_arrow.png,right_arrow.png,right_arrow.png,left_arrow.png,right_arrow.png,right_arrow.png,right_arrow.png,,,,,,,,,,,,,4,2,26,1,,,,,290.29222519999894,None,,,,,,,,,,,,,,,,,,,,,,,,,,,,,,291.3057445000013,None,291.3057445000013,None,291.3057445000013,None,291.3057445000013,None,291.3057445000013,None,291.3057445000013,None,291.3057445000013,None,a,1,0.4265556999889668,291.3057445000013,None,,,,,,,,,,,,,24,001,2022_Oct_23_1833,Flanker,2021.2.0,239.80700330586245,
congruent-right.jpg,1,k,right_arrow.png,right_arrow.png,right_arrow.png,right_arrow.png,right_arrow.png,right_arrow.png,right_arrow.png,,,,,,,,,,,,,4,3,27,2,,,,,291.74805860000197,None,,,,,,,,,,,,,,,,,,,,,,,,,,,,,,292.7616100000014,None,292.7616100000014,None,292.7616100000014,None,292.7616100000014,None,292.7616100000014,None,292.7616100000014,None,292.7616100000014,None,k,1,0.44289910000225063,292.7616100000014,None,,,,,,,,,,,,,24,001,2022_Oct_23_1833,Flanker,2021.2.0,239.80700330586245,
neutral left,0,a,neutral.png,neutral.png,neutral.png,left_arrow.png,neutral.png,neutral.png,neutral.png,,,,,,,,,,,,,4,4,28,4,,,,,293.2203390000068,None,,,,,,,,,,,,,,,,,,,,,,,,,,,,,,294.2339403000078,None,294.2339403000078,None,294.2339403000078,None,294.2339403000078,None,294.2339403000078,None,294.2339403000078,None,294.2339403000078,None,a,1,0.5385145000036573,294.2339403000078,None,,,,,,,,,,,,,24,001,2022_Oct_23_1833,Flanker,2021.2.0,239.80700330586245,
neutral left,0,a,neutral.png,neutral.png,neutral.png,left_arrow.png,neutral.png,neutral.png,neutral.png,,,,,,,,,,,,,4,5,29,4,,,,,294.78453250000894,None,,,,,,,,,,,,,,,,,,,,,,,,,,,,,,295.7941198000044,None,295.7941198000044,None,295.7941198000044,None,295.7941198000044,None,295.7941198000044,None,295.7941198000044,None,295.7941198000044,None,k,0,0.4667207000020426,295.7941198000044,None,,,,,,,,,,,,,24,001,2022_Oct_23_1833,Flanker,2021.2.0,239.80700330586245,
congruent-right.jpg,1,k,right_arrow.png,right_arrow.png,right_arrow.png,right_arrow.png,right_arrow.png,right_arrow.png,right_arrow.png,,,,,,,,,,,,,5,0,30,2,,,,,296.2777350000106,None,,,,,,,,,,,,,,,,,,,,,,,,,,,,,,297.2910966000054,None,297.2910966000054,None,297.2910966000054,None,297.2910966000054,None,297.2910966000054,None,297.2910966000054,None,297.2910966000054,None,k,1,0.5862363000051118,297.2910966000054,None,,,,,,,,,,,,,24,001,2022_Oct_23_1833,Flanker,2021.2.0,239.80700330586245,
incongruent-left.jpg,0,a,right_arrow.png,right_arrow.png,right_arrow.png,left_arrow.png,right_arrow.png,right_arrow.png,right_arrow.png,,,,,,,,,,,,,5,1,31,1,,,,,297.89198660000693,None,,,,,,,,,,,,,,,,,,,,,,,,,,,,,,298.9054787000059,None,298.9054787000059,None,298.9054787000059,None,298.9054787000059,None,298.9054787000059,None,298.9054787000059,None,298.9054787000059,None,a,1,0.43580180000572,298.9054787000059,None,,,,,,,,,,,,,24,001,2022_Oct_23_1833,Flanker,2021.2.0,239.80700330586245,
neutral right,0,k,neutral.png,neutral.png,neutral.png,right_arrow.png,neutral.png,neutral.png,neutral.png,,,,,,,,,,,,,5,2,32,5,,,,,299.3560063000041,None,,,,,,,,,,,,,,,,,,,,,,,,,,,,,,300.3695505000069,None,300.3695505000069,None,300.3695505000069,None,300.3695505000069,None,300.3695505000069,None,300.3695505000069,None,300.3695505000069,None,k,1,0.3958483000023989,300.3695505000069,None,,,,,,,,,,,,,24,001,2022_Oct_23_1833,Flanker,2021.2.0,239.80700330586245,
neutral right,0,k,neutral.png,neutral.png,neutral.png,right_arrow.png,neutral.png,neutral.png,neutral.png,,,,,,,,,,,,,5,3,33,5,,,,,300.7781462999992,None,,,,,,,,,,,,,,,,,,,,,,,,,,,,,,301.79186080000363,None,301.79186080000363,None,301.79186080000363,None,301.79186080000363,None,301.79186080000363,None,301.79186080000363,None,301.79186080000363,None,k,1,0.5098724999988917,301.79186080000363,None,,,,,,,,,,,,,24,001,2022_Oct_23_1833,Flanker,2021.2.0,239.80700330586245,
incongruent-right.jpg,0,k,left_arrow.png,left_arrow.png,left_arrow.png,right_arrow.png,left_arrow.png,left_arrow.png,left_arrow.png,,,,,,,,,,,,,5,4,34,3,,,,,302.31754580000415,None,,,,,,,,,,,,,,,,,,,,,,,,,,,,,,303.3266900000017,None,303.3266900000017,None,303.3266900000017,None,303.3266900000017,None,303.3266900000017,None,303.3266900000017,None,303.3266900000017,None,k,1,0.48703699999896344,303.3266900000017,None,,,,,,,,,,,,,24,001,2022_Oct_23_1833,Flanker,2021.2.0,239.80700330586245,
neutral right,0,k,neutral.png,neutral.png,neutral.png,right_arrow.png,neutral.png,neutral.png,neutral.png,,,,,,,,,,,,,5,5,35,5,,,,,303.8272181000066,None,,,,,,,,,,,,,,,,,,,,,,,,,,,,,,304.8453345000016,None,304.8453345000016,None,304.8453345000016,None,304.8453345000016,None,304.8453345000016,None,304.8453345000016,None,304.8453345000016,None,k,1,0.4885550000035437,304.8453345000016,None,,,,,,,,,,,,,24,001,2022_Oct_23_1833,Flanker,2021.2.0,239.80700330586245,
incongruent-left.jpg,0,a,right_arrow.png,right_arrow.png,right_arrow.png,left_arrow.png,right_arrow.png,right_arrow.png,right_arrow.png,,,,,,,,,,,,,6,0,36,1,,,,,305.3455041999987,None,,,,,,,,,,,,,,,,,,,,,,,,,,,,,,306.35906980000436,None,306.35906980000436,None,306.35906980000436,None,306.35906980000436,None,306.35906980000436,None,306.35906980000436,None,306.35906980000436,None,a,1,0.4791079999995418,306.35906980000436,None,,,,,,,,,,,,,24,001,2022_Oct_23_1833,Flanker,2021.2.0,239.80700330586245,
congruent-left.jpg,1,a,left_arrow.png,left_arrow.png,left_arrow.png,left_arrow.png,left_arrow.png,left_arrow.png,left_arrow.png,,,,,,,,,,,,,6,1,37,0,,,,,306.851262199998,None,,,,,,,,,,,,,,,,,,,,,,,,,,,,,,307.8609557000018,None,307.8609557000018,None,307.8609557000018,None,307.8609557000018,None,307.8609557000018,None,307.8609557000018,None,307.8609557000018,None,a,1,0.44954129999678116,307.8609557000018,None,,,,,,,,,,,,,24,001,2022_Oct_23_1833,Flanker,2021.2.0,239.80700330586245,
neutral right,0,k,neutral.png,neutral.png,neutral.png,right_arrow.png,neutral.png,neutral.png,neutral.png,,,,,,,,,,,,,6,2,38,5,,,,,308.32803520000016,None,,,,,,,,,,,,,,,,,,,,,,,,,,,,,,309.33722220000345,None,309.33722220000345,None,309.33722220000345,None,309.33722220000345,None,309.33722220000345,None,309.33722220000345,None,309.33722220000345,None,k,1,0.4373212000064086,309.33722220000345,None,,,,,,,,,,,,,24,001,2022_Oct_23_1833,Flanker,2021.2.0,239.80700330586245,
neutral left,0,a,neutral.png,neutral.png,neutral.png,left_arrow.png,neutral.png,neutral.png,neutral.png,,,,,,,,,,,,,6,3,39,4,,,,,309.7877797999972,None,,,,,,,,,,,,,,,,,,,,,,,,,,,,,,310.7974197000003,None,310.7974197000003,None,310.7974197000003,None,310.7974197000003,None,310.7974197000003,None,310.7974197000003,None,310.7974197000003,None,a,1,0.4173168999986956,310.7974197000003,None,,,,,,,,,,,,,24,001,2022_Oct_23_1833,Flanker,2021.2.0,239.80700330586245,
incongruent-right.jpg,0,k,left_arrow.png,left_arrow.png,left_arrow.png,right_arrow.png,left_arrow.png,left_arrow.png,left_arrow.png,,,,,,,,,,,,,6,4,40,3,,,,,311.2313858999987,None,,,,,,,,,,,,,,,,,,,,,,,,,,,,,,312.2403716999979,None,312.2403716999979,None,312.2403716999979,None,312.2403716999979,None,312.2403716999979,None,312.2403716999979,None,312.2403716999979,None,k,1,0.43852030001289677,312.2403716999979,None,,,,,,,,,,,,,24,001,2022_Oct_23_1833,Flanker,2021.2.0,239.80700330586245,
neutral right,0,k,neutral.png,neutral.png,neutral.png,right_arrow.png,neutral.png,neutral.png,neutral.png,,,,,,,,,,,,,6,5,41,5,,,,,312.6910884000099,None,,,,,,,,,,,,,,,,,,,,,,,,,,,,,,313.7002560999972,None,313.7002560999972,None,313.7002560999972,None,313.7002560999972,None,313.7002560999972,None,313.7002560999972,None,313.7002560999972,None,k,1,0.4508745000057388,313.7002560999972,None,,,,,,,,,,,,,24,001,2022_Oct_23_1833,Flanker,2021.2.0,239.80700330586245,
congruent-left.jpg,1,a,left_arrow.png,left_arrow.png,left_arrow.png,left_arrow.png,left_arrow.png,left_arrow.png,left_arrow.png,,,,,,,,,,,,,7,0,42,0,,,,,314.1675188000081,None,,,,,,,,,,,,,,,,,,,,,,,,,,,,,,315.17696690000594,None,315.17696690000594,None,315.17696690000594,None,315.17696690000594,None,315.17696690000594,None,315.17696690000594,None,315.17696690000594,None,a,1,0.438318700005766,315.17696690000594,None,,,,,,,,,,,,,24,001,2022_Oct_23_1833,Flanker,2021.2.0,239.80700330586245,
neutral left,0,a,neutral.png,neutral.png,neutral.png,left_arrow.png,neutral.png,neutral.png,neutral.png,,,,,,,,,,,,,7,1,43,4,,,,,315.62743890000274,None,,,,,,,,,,,,,,,,,,,,,,,,,,,,,,316.6366018999979,None,316.6366018999979,None,316.6366018999979,None,316.6366018999979,None,316.6366018999979,None,316.6366018999979,None,316.6366018999979,None,k,0,0.41093779999937396,316.6366018999979,None,,,,,,,,,,,,,24,001,2022_Oct_23_1833,Flanker,2021.2.0,239.80700330586245,
congruent-right.jpg,1,k,right_arrow.png,right_arrow.png,right_arrow.png,right_arrow.png,right_arrow.png,right_arrow.png,right_arrow.png,,,,,,,,,,,,,7,2,44,2,,,,,317.06204859999707,None,,,,,,,,,,,,,,,,,,,,,,,,,,,,,,318.0756554999971,None,318.0756554999971,None,318.0756554999971,None,318.0756554999971,None,318.0756554999971,None,318.0756554999971,None,318.0756554999971,None,k,1,0.6120603000017582,318.0756554999971,None,,,,,,,,,,,,,24,001,2022_Oct_23_1833,Flanker,2021.2.0,239.80700330586245,
congruent-left.jpg,1,a,left_arrow.png,left_arrow.png,left_arrow.png,left_arrow.png,left_arrow.png,left_arrow.png,left_arrow.png,,,,,,,,,,,,,7,3,45,0,,,,,318.70128990001103,None,,,,,,,,,,,,,,,,,,,,,,,,,,,,,,319.7151384000026,None,319.7151384000026,None,319.7151384000026,None,319.7151384000026,None,319.7151384000026,None,319.7151384000026,None,319.7151384000026,None,a,1,0.5727964000107022,319.7151384000026,None,,,,,,,,,,,,,24,001,2022_Oct_23_1833,Flanker,2021.2.0,239.80700330586245,
neutral right,0,k,neutral.png,neutral.png,neutral.png,right_arrow.png,neutral.png,neutral.png,neutral.png,,,,,,,,,,,,,7,4,46,5,,,,,320.3075438000087,None,,,,,,,,,,,,,,,,,,,,,,,,,,,,,,321.3209304000047,None,321.3209304000047,None,321.3209304000047,None,321.3209304000047,None,321.3209304000047,None,321.3209304000047,None,321.3209304000047,None,k,1,0.49522589999833144,321.3209304000047,None,,,,,,,,,,,,,24,001,2022_Oct_23_1833,Flanker,2021.2.0,239.80700330586245,
congruent-left.jpg,1,a,left_arrow.png,left_arrow.png,left_arrow.png,left_arrow.png,left_arrow.png,left_arrow.png,left_arrow.png,,,,,,,,,,,,,7,5,47,0,,,,,321.82968090000213,None,,,,,,,,,,,,,,,,,,,,,,,,,,,,,,322.8432068999973,None,322.8432068999973,None,322.8432068999973,None,322.8432068999973,None,322.8432068999973,None,322.8432068999973,None,322.8432068999973,None,a,1,0.47713329999533016,322.8432068999973,None,,,,,,,,,,,,,24,001,2022_Oct_23_1833,Flanker,2021.2.0,239.80700330586245,
,,,,,,,,,,,,,,,,,,,,,,,,,,,,,,,,,,,,,,,,,,,,,,,,,,,,,,,,,,,,,,,,,,,,,,,,,,,,,,,,323.34813420000137,None,space,2.7966331000061473,323.34813420000137,None,,,,,,,24,001,2022_Oct_23_1833,Flanker,2021.2.0,239.80700330586245,
,,,,,,,,,,,,,,,,,,,,,,,,,,,,,,,,,,,,,,,,,,,,,,,,,,,,,,,,,,,,,,,,,,,,,,,,,,,,,,,,,,,,,,326.15920190000907,None,space,3.24196669999219,326.15920190000907,None,24,001,2022_Oct_23_1833,Flanker,2021.2.0,239.80700330586245,
