images,congruentcy,corrAns,arrow_1,arrow_2,arrow_3,target,arrow_5,arrow_6,arrow_7,practice.thisRepN,practice.thisTrialN,practice.thisN,practice.thisIndex,trials.thisRepN,trials.thisTrialN,trials.thisN,trials.thisIndex,trials_2.thisRepN,trials_2.thisTrialN,trials_2.thisN,trials_2.thisIndex,trials_3.thisRepN,trials_3.thisTrialN,trials_3.thisN,trials_3.thisIndex,instr_text.started,instr_text.stopped,instr_resp.keys,instr_resp.rt,polygon.started,polygon.stopped,arrow1_.started,arrow1_.stopped,arrow2_.started,arrow2_.stopped,arrow3_.started,arrow3_.stopped,target_p.started,target_p.stopped,arrow5_.started,arrow5_.stopped,arrow6_.started,arrow6_.stopped,arrow7_.started,arrow7_.stopped,key_resp_P.keys,key_resp_P.corr,key_resp_P.rt,key_resp_P.started,key_resp_P.stopped,text_2.started,text_2.stopped,text_3.started,text_3.stopped,text_4.started,text_4.stopped,key_resp_2.keys,key_resp_2.rt,key_resp_2.started,key_resp_2.stopped,arrow1.started,arrow1.stopped,arrow2.started,arrow2.stopped,arrow3.started,arrow3.stopped,target_t.started,target_t.stopped,arrow5.started,arrow5.stopped,arrow6.started,arrow6.stopped,arrow7.started,arrow7.stopped,key_resp.keys,key_resp.corr,key_resp.rt,key_resp.started,key_resp.stopped,text_5.started,text_5.stopped,key_resp_3.keys,key_resp_3.rt,key_resp_3.started,key_resp_3.stopped,text_6.started,text_6.stopped,key_resp_4.keys,key_resp_4.rt,key_resp_4.started,key_resp_4.stopped,participant,session,date,expName,psychopyVersion,frameRate,
,,,,,,,,,,,,,,,,,,,,,,,,,,9.133437200000117,None,space,14.843074700000216,,,,,,,,,,,,,,,,,,,,,,,,,,,,,,,,,,,,,,,,,,,,,,,,,,,,,,,,,,,,,,,2,001,2022_Aug_05_1800,Flanker,2021.2.0,240.0954619558475,
incongruent-right.jpg,0,k,left_arrow.png,left_arrow.png,left_arrow.png,right_arrow.png,left_arrow.png,left_arrow.png,left_arrow.png,0,0,0,3,,,,,,,,,,,,,,,,,24.00087089999988,None,25.026562499999727,None,25.026562499999727,None,25.026562499999727,None,25.026562499999727,None,25.026562499999727,None,25.026562499999727,None,25.026562499999727,None,a,0,2.2143715000001976,25.026562499999727,None,27.26204689999986,None,,,,,,,,,,,,,,,,,,,,,,,,,,,,,,,,,,,,,,,,2,001,2022_Aug_05_1800,Flanker,2021.2.0,240.0954619558475,
incongruent-left.jpg,0,a,right_arrow.png,right_arrow.png,right_arrow.png,left_arrow.png,right_arrow.png,right_arrow.png,right_arrow.png,0,1,1,1,,,,,,,,,,,,,,,,,28.755606799999896,None,29.769123099999888,None,29.769123099999888,None,29.769123099999888,None,29.769123099999888,None,29.769123099999888,None,29.769123099999888,None,29.769123099999888,None,k,0,3.2886097999999038,29.769123099999888,None,33.07273260000011,None,,,,,,,,,,,,,,,,,,,,,,,,,,,,,,,,,,,,,,,,2,001,2022_Aug_05_1800,Flanker,2021.2.0,240.0954619558475,
neutral left,0,a,neutral.png,neutral.png,neutral.png,left_arrow.png,neutral.png,neutral.png,neutral.png,0,2,2,4,,,,,,,,,,,,,,,,,34.57810130000007,None,35.59608399999979,None,35.59608399999979,None,35.59608399999979,None,35.59608399999979,None,35.59608399999979,None,35.59608399999979,None,35.59608399999979,None,a,1,2.414512399999694,35.59608399999979,None,38.027858299999934,None,,,,,,,,,,,,,,,,,,,,,,,,,,,,,,,,,,,,,,,,2,001,2022_Aug_05_1800,Flanker,2021.2.0,240.0954619558475,
neutral left,0,a,neutral.png,neutral.png,neutral.png,left_arrow.png,neutral.png,neutral.png,neutral.png,0,3,3,4,,,,,,,,,,,,,,,,,39.52938549999999,None,40.53466419999995,None,40.53466419999995,None,40.53466419999995,None,40.53466419999995,None,40.53466419999995,None,40.53466419999995,None,40.53466419999995,None,a,1,0.8841928000001644,40.53466419999995,None,41.43560230000003,None,,,,,,,,,,,,,,,,,,,,,,,,,,,,,,,,,,,,,,,,2,001,2022_Aug_05_1800,Flanker,2021.2.0,240.0954619558475,
incongruent-left.jpg,0,a,right_arrow.png,right_arrow.png,right_arrow.png,left_arrow.png,right_arrow.png,right_arrow.png,right_arrow.png,0,4,4,1,,,,,,,,,,,,,,,,,42.93737629999987,None,43.9505122999999,None,43.9505122999999,None,43.9505122999999,None,43.9505122999999,None,43.9505122999999,None,43.9505122999999,None,43.9505122999999,None,a,1,1.0127995000002556,43.9505122999999,None,44.97667939999974,None,,,,,,,,,,,,,,,,,,,,,,,,,,,,,,,,,,,,,,,,2,001,2022_Aug_05_1800,Flanker,2021.2.0,240.0954619558475,
congruent-left.jpg,1,a,left_arrow.png,left_arrow.png,left_arrow.png,left_arrow.png,left_arrow.png,left_arrow.png,left_arrow.png,0,5,5,0,,,,,,,,,,,,,,,,,46.48264070000005,None,47.48802079999996,None,47.48802079999996,None,47.48802079999996,None,47.48802079999996,None,47.48802079999996,None,47.48802079999996,None,47.48802079999996,None,a,1,0.5476771000003282,47.48802079999996,None,48.05516949999992,None,,,,,,,,,,,,,,,,,,,,,,,,,,,,,,,,,,,,,,,,2,001,2022_Aug_05_1800,Flanker,2021.2.0,240.0954619558475,
neutral left,0,a,neutral.png,neutral.png,neutral.png,left_arrow.png,neutral.png,neutral.png,neutral.png,1,0,6,4,,,,,,,,,,,,,,,,,49.55692790000012,None,50.56584819999989,None,50.56584819999989,None,50.56584819999989,None,50.56584819999989,None,50.56584819999989,None,50.56584819999989,None,50.56584819999989,None,a,1,0.5665165999998862,50.56584819999989,None,51.14980009999999,None,,,,,,,,,,,,,,,,,,,,,,,,,,,,,,,,,,,,,,,,2,001,2022_Aug_05_1800,Flanker,2021.2.0,240.0954619558475,
neutral left,0,a,neutral.png,neutral.png,neutral.png,left_arrow.png,neutral.png,neutral.png,neutral.png,1,1,7,4,,,,,,,,,,,,,,,,,52.65584409999974,None,53.664976600000045,None,53.664976600000045,None,53.664976600000045,None,53.664976600000045,None,53.664976600000045,None,53.664976600000045,None,53.664976600000045,None,a,1,0.5075539999998,53.664976600000045,None,54.19079169999986,None,,,,,,,,,,,,,,,,,,,,,,,,,,,,,,,,,,,,,,,,2,001,2022_Aug_05_1800,Flanker,2021.2.0,240.0954619558475,
neutral right,0,k,neutral.png,neutral.png,neutral.png,right_arrow.png,neutral.png,neutral.png,neutral.png,1,2,8,5,,,,,,,,,,,,,,,,,55.6923155999998,None,56.7017378999999,None,56.7017378999999,None,56.7017378999999,None,56.7017378999999,None,56.7017378999999,None,56.7017378999999,None,56.7017378999999,None,k,1,0.495252199999868,56.7017378999999,None,57.210408200000074,None,,,,,,,,,,,,,,,,,,,,,,,,,,,,,,,,,,,,,,,,2,001,2022_Aug_05_1800,Flanker,2021.2.0,240.0954619558475,
incongruent-left.jpg,0,a,right_arrow.png,right_arrow.png,right_arrow.png,left_arrow.png,right_arrow.png,right_arrow.png,right_arrow.png,1,3,9,1,,,,,,,,,,,,,,,,,58.71223199999986,None,59.72165390000009,None,59.72165390000009,None,59.72165390000009,None,59.72165390000009,None,59.72165390000009,None,59.72165390000009,None,59.72165390000009,None,a,1,0.5316964999997253,59.72165390000009,None,60.27222690000008,None,,,,,,,,,,,,,,,,,,,,,,,,,,,,,,,,,,,,,,,,2,001,2022_Aug_05_1800,Flanker,2021.2.0,240.0954619558475,
congruent-left.jpg,1,a,left_arrow.png,left_arrow.png,left_arrow.png,left_arrow.png,left_arrow.png,left_arrow.png,left_arrow.png,1,4,10,0,,,,,,,,,,,,,,,,,61.77372609999975,None,62.783116900000095,None,62.783116900000095,None,62.783116900000095,None,62.783116900000095,None,62.783116900000095,None,62.783116900000095,None,62.783116900000095,None,a,1,0.4466621000001396,62.783116900000095,None,63.24180209999986,None,,,,,,,,,,,,,,,,,,,,,,,,,,,,,,,,,,,,,,,,2,001,2022_Aug_05_1800,Flanker,2021.2.0,240.0954619558475,
congruent-right.jpg,1,k,right_arrow.png,right_arrow.png,right_arrow.png,right_arrow.png,right_arrow.png,right_arrow.png,right_arrow.png,1,5,11,2,,,,,,,,,,,,,,,,,64.74337800000012,None,65.75727989999996,None,65.75727989999996,None,65.75727989999996,None,65.75727989999996,None,65.75727989999996,None,65.75727989999996,None,65.75727989999996,None,k,1,0.5048500000002605,65.75727989999996,None,66.27417500000001,None,,,,,,,,,,,,,,,,,,,,,,,,,,,,,,,,,,,,,,,,2,001,2022_Aug_05_1800,Flanker,2021.2.0,240.0954619558475,
incongruent-left.jpg,0,a,right_arrow.png,right_arrow.png,right_arrow.png,left_arrow.png,right_arrow.png,right_arrow.png,right_arrow.png,2,0,12,1,,,,,,,,,,,,,,,,,67.78007489999982,None,68.78940160000002,None,68.78940160000002,None,68.78940160000002,None,68.78940160000002,None,68.78940160000002,None,68.78940160000002,None,68.78940160000002,None,a,1,0.4651483999996344,68.78940160000002,None,69.2731730999999,None,,,,,,,,,,,,,,,,,,,,,,,,,,,,,,,,,,,,,,,,2,001,2022_Aug_05_1800,Flanker,2021.2.0,240.0954619558475,
congruent-left.jpg,1,a,left_arrow.png,left_arrow.png,left_arrow.png,left_arrow.png,left_arrow.png,left_arrow.png,left_arrow.png,2,1,13,0,,,,,,,,,,,,,,,,,70.77475730000015,None,71.78416599999991,None,71.78416599999991,None,71.78416599999991,None,71.78416599999991,None,71.78416599999991,None,71.78416599999991,None,71.78416599999991,None,a,1,0.4227590999998938,71.78416599999991,None,72.22654569999986,None,,,,,,,,,,,,,,,,,,,,,,,,,,,,,,,,,,,,,,,,2,001,2022_Aug_05_1800,Flanker,2021.2.0,240.0954619558475,
neutral right,0,k,neutral.png,neutral.png,neutral.png,right_arrow.png,neutral.png,neutral.png,neutral.png,2,2,14,5,,,,,,,,,,,,,,,,,73.72786349999978,None,74.74143289999984,None,74.74143289999984,None,74.74143289999984,None,74.74143289999984,None,74.74143289999984,None,74.74143289999984,None,74.74143289999984,None,k,1,0.4742708999997376,74.74143289999984,None,75.2336293999997,None,,,,,,,,,,,,,,,,,,,,,,,,,,,,,,,,,,,,,,,,2,001,2022_Aug_05_1800,Flanker,2021.2.0,240.0954619558475,
incongruent-right.jpg,0,k,left_arrow.png,left_arrow.png,left_arrow.png,right_arrow.png,left_arrow.png,left_arrow.png,left_arrow.png,2,3,15,3,,,,,,,,,,,,,,,,,76.73521540000002,None,77.74879169999986,None,77.74879169999986,None,77.74879169999986,None,77.74879169999986,None,77.74879169999986,None,77.74879169999986,None,77.74879169999986,None,k,1,0.5549267000001237,77.74879169999986,None,78.31606359999978,None,,,,,,,,,,,,,,,,,,,,,,,,,,,,,,,,,,,,,,,,2,001,2022_Aug_05_1800,Flanker,2021.2.0,240.0954619558475,
incongruent-right.jpg,0,k,left_arrow.png,left_arrow.png,left_arrow.png,right_arrow.png,left_arrow.png,left_arrow.png,left_arrow.png,2,4,16,3,,,,,,,,,,,,,,,,,79.82183239999995,None,80.8270478999998,None,80.8270478999998,None,80.8270478999998,None,80.8270478999998,None,80.8270478999998,None,80.8270478999998,None,80.8270478999998,None,k,1,0.533485599999949,80.8270478999998,None,81.37769369999978,None,,,,,,,,,,,,,,,,,,,,,,,,,,,,,,,,,,,,,,,,2,001,2022_Aug_05_1800,Flanker,2021.2.0,240.0954619558475,
incongruent-right.jpg,0,k,left_arrow.png,left_arrow.png,left_arrow.png,right_arrow.png,left_arrow.png,left_arrow.png,left_arrow.png,2,5,17,3,,,,,,,,,,,,,,,,,82.8836594999998,None,83.8928676999999,None,83.8928676999999,None,83.8928676999999,None,83.8928676999999,None,83.8928676999999,None,83.8928676999999,None,83.8928676999999,None,k,1,0.41971049999983734,83.8928676999999,None,84.32657500000005,None,,,,,,,,,,,,,,,,,,,,,,,,,,,,,,,,,,,,,,,,2,001,2022_Aug_05_1800,Flanker,2021.2.0,240.0954619558475,
congruent-right.jpg,1,k,right_arrow.png,right_arrow.png,right_arrow.png,right_arrow.png,right_arrow.png,right_arrow.png,right_arrow.png,3,0,18,2,,,,,,,,,,,,,,,,,85.82816539999976,None,86.84208260000014,None,86.84208260000014,None,86.84208260000014,None,86.84208260000014,None,86.84208260000014,None,86.84208260000014,None,86.84208260000014,None,k,1,0.38327620000018214,86.84208260000014,None,87.24216530000012,None,,,,,,,,,,,,,,,,,,,,,,,,,,,,,,,,,,,,,,,,2,001,2022_Aug_05_1800,Flanker,2021.2.0,240.0954619558475,
congruent-left.jpg,1,a,left_arrow.png,left_arrow.png,left_arrow.png,left_arrow.png,left_arrow.png,left_arrow.png,left_arrow.png,3,1,19,0,,,,,,,,,,,,,,,,,88.74791929999992,None,89.75758910000013,None,89.75758910000013,None,89.75758910000013,None,89.75758910000013,None,89.75758910000013,None,89.75758910000013,None,89.75758910000013,None,a,1,0.5080379000000903,89.75758910000013,None,90.28288049999992,None,,,,,,,,,,,,,,,,,,,,,,,,,,,,,,,,,,,,,,,,2,001,2022_Aug_05_1800,Flanker,2021.2.0,240.0954619558475,
congruent-right.jpg,1,k,right_arrow.png,right_arrow.png,right_arrow.png,right_arrow.png,right_arrow.png,right_arrow.png,right_arrow.png,3,2,20,2,,,,,,,,,,,,,,,,,91.78863499999989,None,92.7982735999999,None,92.7982735999999,None,92.7982735999999,None,92.7982735999999,None,92.7982735999999,None,92.7982735999999,None,92.7982735999999,None,k,1,0.38744130000031873,92.7982735999999,None,93.19847619999973,None,,,,,,,,,,,,,,,,,,,,,,,,,,,,,,,,,,,,,,,,2,001,2022_Aug_05_1800,Flanker,2021.2.0,240.0954619558475,
congruent-right.jpg,1,k,right_arrow.png,right_arrow.png,right_arrow.png,right_arrow.png,right_arrow.png,right_arrow.png,right_arrow.png,3,3,21,2,,,,,,,,,,,,,,,,,94.70037419999971,None,95.71368660000007,None,95.71368660000007,None,95.71368660000007,None,95.71368660000007,None,95.71368660000007,None,95.71368660000007,None,95.71368660000007,None,k,1,0.4404334999999264,95.71368660000007,None,96.17270980000012,None,,,,,,,,,,,,,,,,,,,,,,,,,,,,,,,,,,,,,,,,2,001,2022_Aug_05_1800,Flanker,2021.2.0,240.0954619558475,
neutral right,0,k,neutral.png,neutral.png,neutral.png,right_arrow.png,neutral.png,neutral.png,neutral.png,3,4,22,5,,,,,,,,,,,,,,,,,97.67822649999971,None,98.6836702999999,None,98.6836702999999,None,98.6836702999999,None,98.6836702999999,None,98.6836702999999,None,98.6836702999999,None,98.6836702999999,None,k,1,0.4228337000004103,98.6836702999999,None,99.1175033999998,None,,,,,,,,,,,,,,,,,,,,,,,,,,,,,,,,,,,,,,,,2,001,2022_Aug_05_1800,Flanker,2021.2.0,240.0954619558475,
neutral right,0,k,neutral.png,neutral.png,neutral.png,right_arrow.png,neutral.png,neutral.png,neutral.png,3,5,23,5,,,,,,,,,,,,,,,,,100.61905930000012,None,101.63273219999974,None,101.63273219999974,None,101.63273219999974,None,101.63273219999974,None,101.63273219999974,None,101.63273219999974,None,101.63273219999974,None,k,1,0.3221491999997852,101.63273219999974,None,101.97452479999993,None,,,,,,,,,,,,,,,,,,,,,,,,,,,,,,,,,,,,,,,,2,001,2022_Aug_05_1800,Flanker,2021.2.0,240.0954619558475,
,,,,,,,,,,,,,,,,,,,,,,,,,,,,,,,,,,,,,,,,,,,,,,,,,,,,,103.48853980000013,None,105.48256519999995,None,space,1.9770928999996613,105.48256519999995,None,,,,,,,,,,,,,,,,,,,,,,,,,,,,,,,,2,001,2022_Aug_05_1800,Flanker,2021.2.0,240.0954619558475,
congruent-right.jpg,1,k,right_arrow.png,right_arrow.png,right_arrow.png,right_arrow.png,right_arrow.png,right_arrow.png,right_arrow.png,,,,,0,0,0,2,,,,,,,,,,,,,107.48042409999971,None,,,,,,,,,,,,,,,,,,,,,,,,,,,,,,108.4896534999998,None,108.4896534999998,None,108.4896534999998,None,108.4896534999998,None,108.4896534999998,None,108.4896534999998,None,108.4896534999998,None,k,1,0.4662002999998549,108.4896534999998,None,,,,,,,,,,,,,2,001,2022_Aug_05_1800,Flanker,2021.2.0,240.0954619558475,
neutral left,0,a,neutral.png,neutral.png,neutral.png,left_arrow.png,neutral.png,neutral.png,neutral.png,,,,,0,1,1,4,,,,,,,,,,,,,108.97381589999986,None,,,,,,,,,,,,,,,,,,,,,,,,,,,,,,109.9870950999998,None,109.9870950999998,None,109.9870950999998,None,109.9870950999998,None,109.9870950999998,None,109.9870950999998,None,109.9870950999998,None,a,1,0.4729158999998617,109.9870950999998,None,,,,,,,,,,,,,2,001,2022_Aug_05_1800,Flanker,2021.2.0,240.0954619558475,
neutral left,0,a,neutral.png,neutral.png,neutral.png,left_arrow.png,neutral.png,neutral.png,neutral.png,,,,,0,2,2,4,,,,,,,,,,,,,110.47956320000003,None,,,,,,,,,,,,,,,,,,,,,,,,,,,,,,111.4929904999999,None,111.4929904999999,None,111.4929904999999,None,111.4929904999999,None,111.4929904999999,None,111.4929904999999,None,111.4929904999999,None,a,1,0.41521030000012615,111.4929904999999,None,,,,,,,,,,,,,2,001,2022_Aug_05_1800,Flanker,2021.2.0,240.0954619558475,
incongruent-right.jpg,0,k,left_arrow.png,left_arrow.png,left_arrow.png,right_arrow.png,left_arrow.png,left_arrow.png,left_arrow.png,,,,,0,3,3,3,,,,,,,,,,,,,111.92661079999971,None,,,,,,,,,,,,,,,,,,,,,,,,,,,,,,112.93603910000002,None,112.93603910000002,None,112.93603910000002,None,112.93603910000002,None,112.93603910000002,None,112.93603910000002,None,112.93603910000002,None,k,1,0.5084557000000132,112.93603910000002,None,,,,,,,,,,,,,2,001,2022_Aug_05_1800,Flanker,2021.2.0,240.0954619558475,
neutral left,0,a,neutral.png,neutral.png,neutral.png,left_arrow.png,neutral.png,neutral.png,neutral.png,,,,,0,4,4,4,,,,,,,,,,,,,113.45742979999977,None,,,,,,,,,,,,,,,,,,,,,,,,,,,,,,114.46684370000003,None,114.46684370000003,None,114.46684370000003,None,114.46684370000003,None,114.46684370000003,None,114.46684370000003,None,114.46684370000003,None,a,1,0.3698080999997728,114.46684370000003,None,,,,,,,,,,,,,2,001,2022_Aug_05_1800,Flanker,2021.2.0,240.0954619558475,
congruent-right.jpg,1,k,right_arrow.png,right_arrow.png,right_arrow.png,right_arrow.png,right_arrow.png,right_arrow.png,right_arrow.png,,,,,0,5,5,2,,,,,,,,,,,,,114.85080149999976,None,,,,,,,,,,,,,,,,,,,,,,,,,,,,,,115.86413570000013,None,115.86413570000013,None,115.86413570000013,None,115.86413570000013,None,115.86413570000013,None,115.86413570000013,None,115.86413570000013,None,k,1,0.3966427999998814,115.86413570000013,None,,,,,,,,,,,,,2,001,2022_Aug_05_1800,Flanker,2021.2.0,240.0954619558475,
congruent-right.jpg,1,k,right_arrow.png,right_arrow.png,right_arrow.png,right_arrow.png,right_arrow.png,right_arrow.png,right_arrow.png,,,,,1,0,6,2,,,,,,,,,,,,,116.27289489999976,None,,,,,,,,,,,,,,,,,,,,,,,,,,,,,,117.28647060000003,None,117.28647060000003,None,117.28647060000003,None,117.28647060000003,None,117.28647060000003,None,117.28647060000003,None,117.28647060000003,None,k,1,1.5906866000000264,117.28647060000003,None,,,,,,,,,,,,,2,001,2022_Aug_05_1800,Flanker,2021.2.0,240.0954619558475,
incongruent-right.jpg,0,k,left_arrow.png,left_arrow.png,left_arrow.png,right_arrow.png,left_arrow.png,left_arrow.png,left_arrow.png,,,,,1,1,7,3,,,,,,,,,,,,,118.89682820000007,None,,,,,,,,,,,,,,,,,,,,,,,,,,,,,,119.91048240000009,None,119.91048240000009,None,119.91048240000009,None,119.91048240000009,None,119.91048240000009,None,119.91048240000009,None,119.91048240000009,None,k,1,0.5028842000001532,119.91048240000009,None,,,,,,,,,,,,,2,001,2022_Aug_05_1800,Flanker,2021.2.0,240.0954619558475,
congruent-left.jpg,1,a,left_arrow.png,left_arrow.png,left_arrow.png,left_arrow.png,left_arrow.png,left_arrow.png,left_arrow.png,,,,,1,2,8,0,,,,,,,,,,,,,120.42748959999972,None,,,,,,,,,,,,,,,,,,,,,,,,,,,,,,121.43695479999997,None,121.43695479999997,None,121.43695479999997,None,121.43695479999997,None,121.43695479999997,None,121.43695479999997,None,121.43695479999997,None,a,1,0.4328144999999495,121.43695479999997,None,,,,,,,,,,,,,2,001,2022_Aug_05_1800,Flanker,2021.2.0,240.0954619558475,
congruent-right.jpg,1,k,right_arrow.png,right_arrow.png,right_arrow.png,right_arrow.png,right_arrow.png,right_arrow.png,right_arrow.png,,,,,1,3,9,2,,,,,,,,,,,,,121.88734629999999,None,,,,,,,,,,,,,,,,,,,,,,,,,,,,,,122.90076270000009,None,122.90076270000009,None,122.90076270000009,None,122.90076270000009,None,122.90076270000009,None,122.90076270000009,None,122.90076270000009,None,k,1,0.34497830000009344,122.90076270000009,None,,,,,,,,,,,,,2,001,2022_Aug_05_1800,Flanker,2021.2.0,240.0954619558475,
neutral left,0,a,neutral.png,neutral.png,neutral.png,left_arrow.png,neutral.png,neutral.png,neutral.png,,,,,1,4,10,4,,,,,,,,,,,,,123.2596779999999,None,,,,,,,,,,,,,,,,,,,,,,,,,,,,,,124.27335559999983,None,124.27335559999983,None,124.27335559999983,None,124.27335559999983,None,124.27335559999983,None,124.27335559999983,None,124.27335559999983,None,a,1,0.35653309999997873,124.27335559999983,None,,,,,,,,,,,,,2,001,2022_Aug_05_1800,Flanker,2021.2.0,240.0954619558475,
incongruent-left.jpg,0,a,right_arrow.png,right_arrow.png,right_arrow.png,left_arrow.png,right_arrow.png,right_arrow.png,right_arrow.png,,,,,1,5,11,1,,,,,,,,,,,,,124.64841410000008,None,,,,,,,,,,,,,,,,,,,,,,,,,,,,,,125.66217869999991,None,125.66217869999991,None,125.66217869999991,None,125.66217869999991,None,125.66217869999991,None,125.66217869999991,None,125.66217869999991,None,a,1,0.5119316999998773,125.66217869999991,None,,,,,,,,,,,,,2,001,2022_Aug_05_1800,Flanker,2021.2.0,240.0954619558475,
congruent-left.jpg,1,a,left_arrow.png,left_arrow.png,left_arrow.png,left_arrow.png,left_arrow.png,left_arrow.png,left_arrow.png,,,,,2,0,12,0,,,,,,,,,,,,,126.18778960000009,None,,,,,,,,,,,,,,,,,,,,,,,,,,,,,,127.19713169999977,None,127.19713169999977,None,127.19713169999977,None,127.19713169999977,None,127.19713169999977,None,127.19713169999977,None,127.19713169999977,None,a,1,0.47317030000021987,127.19713169999977,None,,,,,,,,,,,,,2,001,2022_Aug_05_1800,Flanker,2021.2.0,240.0954619558475,
congruent-left.jpg,1,a,left_arrow.png,left_arrow.png,left_arrow.png,left_arrow.png,left_arrow.png,left_arrow.png,left_arrow.png,,,,,2,1,13,0,,,,,,,,,,,,,127.68937719999985,None,,,,,,,,,,,,,,,,,,,,,,,,,,,,,,128.7028919999998,None,128.7028919999998,None,128.7028919999998,None,128.7028919999998,None,128.7028919999998,None,128.7028919999998,None,128.7028919999998,None,a,1,0.43962340000007316,128.7028919999998,None,,,,,,,,,,,,,2,001,2022_Aug_05_1800,Flanker,2021.2.0,240.0954619558475,
incongruent-right.jpg,0,k,left_arrow.png,left_arrow.png,left_arrow.png,right_arrow.png,left_arrow.png,left_arrow.png,left_arrow.png,,,,,2,2,14,3,,,,,,,,,,,,,129.16178929999978,None,,,,,,,,,,,,,,,,,,,,,,,,,,,,,,130.17507320000004,None,130.17507320000004,None,130.17507320000004,None,130.17507320000004,None,130.17507320000004,None,130.17507320000004,None,130.17507320000004,None,k,1,0.3918997999999192,130.17507320000004,None,,,,,,,,,,,,,2,001,2022_Aug_05_1800,Flanker,2021.2.0,240.0954619558475,
congruent-left.jpg,1,a,left_arrow.png,left_arrow.png,left_arrow.png,left_arrow.png,left_arrow.png,left_arrow.png,left_arrow.png,,,,,2,3,15,0,,,,,,,,,,,,,130.5840558,None,,,,,,,,,,,,,,,,,,,,,,,,,,,,,,131.59769559999995,None,131.59769559999995,None,131.59769559999995,None,131.59769559999995,None,131.59769559999995,None,131.59769559999995,None,131.59769559999995,None,a,1,0.5454481000001579,131.59769559999995,None,,,,,,,,,,,,,2,001,2022_Aug_05_1800,Flanker,2021.2.0,240.0954619558475,
neutral left,0,a,neutral.png,neutral.png,neutral.png,left_arrow.png,neutral.png,neutral.png,neutral.png,,,,,2,4,16,4,,,,,,,,,,,,,132.1563501999999,None,,,,,,,,,,,,,,,,,,,,,,,,,,,,,,133.17019299999993,None,133.17019299999993,None,133.17019299999993,None,133.17019299999993,None,133.17019299999993,None,133.17019299999993,None,133.17019299999993,None,a,1,0.4289235000001099,133.17019299999993,None,,,,,,,,,,,,,2,001,2022_Aug_05_1800,Flanker,2021.2.0,240.0954619558475,
congruent-left.jpg,1,a,left_arrow.png,left_arrow.png,left_arrow.png,left_arrow.png,left_arrow.png,left_arrow.png,left_arrow.png,,,,,2,5,17,0,,,,,,,,,,,,,133.61211460000004,None,,,,,,,,,,,,,,,,,,,,,,,,,,,,,,134.62167240000008,None,134.62167240000008,None,134.62167240000008,None,134.62167240000008,None,134.62167240000008,None,134.62167240000008,None,134.62167240000008,None,a,1,0.4498859000000266,134.62167240000008,None,,,,,,,,,,,,,2,001,2022_Aug_05_1800,Flanker,2021.2.0,240.0954619558475,
incongruent-left.jpg,0,a,right_arrow.png,right_arrow.png,right_arrow.png,left_arrow.png,right_arrow.png,right_arrow.png,right_arrow.png,,,,,3,0,18,1,,,,,,,,,,,,,135.08896219999997,None,,,,,,,,,,,,,,,,,,,,,,,,,,,,,,136.09824070000013,None,136.09824070000013,None,136.09824070000013,None,136.09824070000013,None,136.09824070000013,None,136.09824070000013,None,136.09824070000013,None,a,1,0.485287900000003,136.09824070000013,None,,,,,,,,,,,,,2,001,2022_Aug_05_1800,Flanker,2021.2.0,240.0954619558475,
neutral right,0,k,neutral.png,neutral.png,neutral.png,right_arrow.png,neutral.png,neutral.png,neutral.png,,,,,3,1,19,5,,,,,,,,,,,,,136.59876050000003,None,,,,,,,,,,,,,,,,,,,,,,,,,,,,,,137.60797939999975,None,137.60797939999975,None,137.60797939999975,None,137.60797939999975,None,137.60797939999975,None,137.60797939999975,None,137.60797939999975,None,k,1,0.40800420000005033,137.60797939999975,None,,,,,,,,,,,,,2,001,2022_Aug_05_1800,Flanker,2021.2.0,240.0954619558475,
incongruent-right.jpg,0,k,left_arrow.png,left_arrow.png,left_arrow.png,right_arrow.png,left_arrow.png,left_arrow.png,left_arrow.png,,,,,3,2,20,3,,,,,,,,,,,,,138.0336102000001,None,,,,,,,,,,,,,,,,,,,,,,,,,,,,,,139.04287429999977,None,139.04287429999977,None,139.04287429999977,None,139.04287429999977,None,139.04287429999977,None,139.04287429999977,None,139.04287429999977,None,k,1,0.3969845000001442,139.04287429999977,None,,,,,,,,,,,,,2,001,2022_Aug_05_1800,Flanker,2021.2.0,240.0954619558475,
neutral right,0,k,neutral.png,neutral.png,neutral.png,right_arrow.png,neutral.png,neutral.png,neutral.png,,,,,3,3,21,5,,,,,,,,,,,,,139.45183580000003,None,,,,,,,,,,,,,,,,,,,,,,,,,,,,,,140.46106669999972,None,140.46106669999972,None,140.46106669999972,None,140.46106669999972,None,140.46106669999972,None,140.46106669999972,None,140.46106669999972,None,k,1,0.3709804999998596,140.46106669999972,None,,,,,,,,,,,,,2,001,2022_Aug_05_1800,Flanker,2021.2.0,240.0954619558475,
congruent-right.jpg,1,k,right_arrow.png,right_arrow.png,right_arrow.png,right_arrow.png,right_arrow.png,right_arrow.png,right_arrow.png,,,,,3,4,22,2,,,,,,,,,,,,,140.84480929999972,None,,,,,,,,,,,,,,,,,,,,,,,,,,,,,,141.8544327999998,None,141.8544327999998,None,141.8544327999998,None,141.8544327999998,None,141.8544327999998,None,141.8544327999998,None,141.8544327999998,None,k,1,0.42611689999966984,141.8544327999998,None,,,,,,,,,,,,,2,001,2022_Aug_05_1800,Flanker,2021.2.0,240.0954619558475,
neutral right,0,k,neutral.png,neutral.png,neutral.png,right_arrow.png,neutral.png,neutral.png,neutral.png,,,,,3,5,23,5,,,,,,,,,,,,,142.29623919999995,None,,,,,,,,,,,,,,,,,,,,,,,,,,,,,,143.30587639999976,None,143.30587639999976,None,143.30587639999976,None,143.30587639999976,None,143.30587639999976,None,143.30587639999976,None,143.30587639999976,None,k,1,0.422560699999849,143.30587639999976,None,,,,,,,,,,,,,2,001,2022_Aug_05_1800,Flanker,2021.2.0,240.0954619558475,
incongruent-right.jpg,0,k,left_arrow.png,left_arrow.png,left_arrow.png,right_arrow.png,left_arrow.png,left_arrow.png,left_arrow.png,,,,,4,0,24,3,,,,,,,,,,,,,143.73963389999972,None,,,,,,,,,,,,,,,,,,,,,,,,,,,,,,144.75302109999984,None,144.75302109999984,None,144.75302109999984,None,144.75302109999984,None,144.75302109999984,None,144.75302109999984,None,144.75302109999984,None,k,1,0.47963460000028135,144.75302109999984,None,,,,,,,,,,,,,2,001,2022_Aug_05_1800,Flanker,2021.2.0,240.0954619558475,
neutral left,0,a,neutral.png,neutral.png,neutral.png,left_arrow.png,neutral.png,neutral.png,neutral.png,,,,,4,1,25,4,,,,,,,,,,,,,145.24526430000014,None,,,,,,,,,,,,,,,,,,,,,,,,,,,,,,146.2629512999997,None,146.2629512999997,None,146.2629512999997,None,146.2629512999997,None,146.2629512999997,None,146.2629512999997,None,146.2629512999997,None,a,1,0.4818890999999894,146.2629512999997,None,,,,,,,,,,,,,2,001,2022_Aug_05_1800,Flanker,2021.2.0,240.0954619558475,
neutral left,0,a,neutral.png,neutral.png,neutral.png,left_arrow.png,neutral.png,neutral.png,neutral.png,,,,,4,2,26,4,,,,,,,,,,,,,146.7638280000001,None,,,,,,,,,,,,,,,,,,,,,,,,,,,,,,147.77726540000003,None,147.77726540000003,None,147.77726540000003,None,147.77726540000003,None,147.77726540000003,None,147.77726540000003,None,147.77726540000003,None,a,1,0.41596439999966606,147.77726540000003,None,,,,,,,,,,,,,2,001,2022_Aug_05_1800,Flanker,2021.2.0,240.0954619558475,
neutral right,0,k,neutral.png,neutral.png,neutral.png,right_arrow.png,neutral.png,neutral.png,neutral.png,,,,,4,3,27,5,,,,,,,,,,,,,148.21104409999998,None,,,,,,,,,,,,,,,,,,,,,,,,,,,,,,149.22048270000005,None,149.22048270000005,None,149.22048270000005,None,149.22048270000005,None,149.22048270000005,None,149.22048270000005,None,149.22048270000005,None,k,1,0.42877909999970143,149.22048270000005,None,,,,,,,,,,,,,2,001,2022_Aug_05_1800,Flanker,2021.2.0,240.0954619558475,
neutral right,0,k,neutral.png,neutral.png,neutral.png,right_arrow.png,neutral.png,neutral.png,neutral.png,,,,,4,4,28,5,,,,,,,,,,,,,149.66246090000004,None,,,,,,,,,,,,,,,,,,,,,,,,,,,,,,150.67619419999983,None,150.67619419999983,None,150.67619419999983,None,150.67619419999983,None,150.67619419999983,None,150.67619419999983,None,150.67619419999983,None,k,1,0.3812195000000429,150.67619419999983,None,,,,,,,,,,,,,2,001,2022_Aug_05_1800,Flanker,2021.2.0,240.0954619558475,
incongruent-left.jpg,0,a,right_arrow.png,right_arrow.png,right_arrow.png,left_arrow.png,right_arrow.png,right_arrow.png,right_arrow.png,,,,,4,5,29,1,,,,,,,,,,,,,151.07637699999987,None,,,,,,,,,,,,,,,,,,,,,,,,,,,,,,152.0899476999998,None,152.0899476999998,None,152.0899476999998,None,152.0899476999998,None,152.0899476999998,None,152.0899476999998,None,152.0899476999998,None,a,1,0.35165050000023257,152.0899476999998,None,,,,,,,,,,,,,2,001,2022_Aug_05_1800,Flanker,2021.2.0,240.0954619558475,
neutral right,0,k,neutral.png,neutral.png,neutral.png,right_arrow.png,neutral.png,neutral.png,neutral.png,,,,,5,0,30,5,,,,,,,,,,,,,152.45699960000002,None,,,,,,,,,,,,,,,,,,,,,,,,,,,,,,153.47057659999973,None,153.47057659999973,None,153.47057659999973,None,153.47057659999973,None,153.47057659999973,None,153.47057659999973,None,153.47057659999973,None,k,1,0.3471911999999975,153.47057659999973,None,,,,,,,,,,,,,2,001,2022_Aug_05_1800,Flanker,2021.2.0,240.0954619558475,
congruent-left.jpg,1,a,left_arrow.png,left_arrow.png,left_arrow.png,left_arrow.png,left_arrow.png,left_arrow.png,left_arrow.png,,,,,5,1,31,0,,,,,,,,,,,,,153.82928360000005,None,,,,,,,,,,,,,,,,,,,,,,,,,,,,,,154.84315669999978,None,154.84315669999978,None,154.84315669999978,None,154.84315669999978,None,154.84315669999978,None,154.84315669999978,None,154.84315669999978,None,a,1,0.4308186999996906,154.84315669999978,None,,,,,,,,,,,,,2,001,2022_Aug_05_1800,Flanker,2021.2.0,240.0954619558475,
congruent-left.jpg,1,a,left_arrow.png,left_arrow.png,left_arrow.png,left_arrow.png,left_arrow.png,left_arrow.png,left_arrow.png,,,,,5,2,32,0,,,,,,,,,,,,,155.2850696999999,None,,,,,,,,,,,,,,,,,,,,,,,,,,,,,,156.2989379999999,None,156.2989379999999,None,156.2989379999999,None,156.2989379999999,None,156.2989379999999,None,156.2989379999999,None,156.2989379999999,None,a,1,0.4074937999998838,156.2989379999999,None,,,,,,,,,,,,,2,001,2022_Aug_05_1800,Flanker,2021.2.0,240.0954619558475,
neutral left,0,a,neutral.png,neutral.png,neutral.png,left_arrow.png,neutral.png,neutral.png,neutral.png,,,,,5,3,33,4,,,,,,,,,,,,,156.72409719999996,None,,,,,,,,,,,,,,,,,,,,,,,,,,,,,,157.73362020000013,None,157.73362020000013,None,157.73362020000013,None,157.73362020000013,None,157.73362020000013,None,157.73362020000013,None,157.73362020000013,None,a,1,0.3967259000000922,157.73362020000013,None,,,,,,,,,,,,,2,001,2022_Aug_05_1800,Flanker,2021.2.0,240.0954619558475,
congruent-right.jpg,1,k,right_arrow.png,right_arrow.png,right_arrow.png,right_arrow.png,right_arrow.png,right_arrow.png,right_arrow.png,,,,,5,4,34,2,,,,,,,,,,,,,158.14231169999994,None,,,,,,,,,,,,,,,,,,,,,,,,,,,,,,159.15589099999988,None,159.15589099999988,None,159.15589099999988,None,159.15589099999988,None,159.15589099999988,None,159.15589099999988,None,159.15589099999988,None,k,1,0.4306608000001688,159.15589099999988,None,,,,,,,,,,,,,2,001,2022_Aug_05_1800,Flanker,2021.2.0,240.0954619558475,
incongruent-left.jpg,0,a,right_arrow.png,right_arrow.png,right_arrow.png,left_arrow.png,right_arrow.png,right_arrow.png,right_arrow.png,,,,,5,5,35,1,,,,,,,,,,,,,159.60623110000006,None,,,,,,,,,,,,,,,,,,,,,,,,,,,,,,160.62007119999998,None,160.62007119999998,None,160.62007119999998,None,160.62007119999998,None,160.62007119999998,None,160.62007119999998,None,160.62007119999998,None,a,1,0.4066720999999234,160.62007119999998,None,,,,,,,,,,,,,2,001,2022_Aug_05_1800,Flanker,2021.2.0,240.0954619558475,
incongruent-left.jpg,0,a,right_arrow.png,right_arrow.png,right_arrow.png,left_arrow.png,right_arrow.png,right_arrow.png,right_arrow.png,,,,,6,0,36,1,,,,,,,,,,,,,161.04526609999994,None,,,,,,,,,,,,,,,,,,,,,,,,,,,,,,162.05886400000009,None,162.05886400000009,None,162.05886400000009,None,162.05886400000009,None,162.05886400000009,None,162.05886400000009,None,162.05886400000009,None,a,1,0.46407429999999295,162.05886400000009,None,,,,,,,,,,,,,2,001,2022_Aug_05_1800,Flanker,2021.2.0,240.0954619558475,
incongruent-left.jpg,0,a,right_arrow.png,right_arrow.png,right_arrow.png,left_arrow.png,right_arrow.png,right_arrow.png,right_arrow.png,,,,,6,1,37,1,,,,,,,,,,,,,162.5346672999999,None,,,,,,,,,,,,,,,,,,,,,,,,,,,,,,163.54393549999986,None,163.54393549999986,None,163.54393549999986,None,163.54393549999986,None,163.54393549999986,None,163.54393549999986,None,163.54393549999986,None,a,1,0.45919640000010986,163.54393549999986,None,,,,,,,,,,,,,2,001,2022_Aug_05_1800,Flanker,2021.2.0,240.0954619558475,
incongruent-right.jpg,0,k,left_arrow.png,left_arrow.png,left_arrow.png,right_arrow.png,left_arrow.png,left_arrow.png,left_arrow.png,,,,,6,2,38,3,,,,,,,,,,,,,164.01955529999987,None,,,,,,,,,,,,,,,,,,,,,,,,,,,,,,165.02862649999997,None,165.02862649999997,None,165.02862649999997,None,165.02862649999997,None,165.02862649999997,None,165.02862649999997,None,165.02862649999997,None,k,1,0.4787410999997519,165.02862649999997,None,,,,,,,,,,,,,2,001,2022_Aug_05_1800,Flanker,2021.2.0,240.0954619558475,
incongruent-left.jpg,0,a,right_arrow.png,right_arrow.png,right_arrow.png,left_arrow.png,right_arrow.png,right_arrow.png,right_arrow.png,,,,,6,3,39,1,,,,,,,,,,,,,165.52081139999973,None,,,,,,,,,,,,,,,,,,,,,,,,,,,,,,166.53044520000003,None,166.53044520000003,None,166.53044520000003,None,166.53044520000003,None,166.53044520000003,None,166.53044520000003,None,166.53044520000003,None,a,1,0.44937419999996564,166.53044520000003,None,,,,,,,,,,,,,2,001,2022_Aug_05_1800,Flanker,2021.2.0,240.0954619558475,
congruent-left.jpg,1,a,left_arrow.png,left_arrow.png,left_arrow.png,left_arrow.png,left_arrow.png,left_arrow.png,left_arrow.png,,,,,6,4,40,0,,,,,,,,,,,,,166.99737689999984,None,,,,,,,,,,,,,,,,,,,,,,,,,,,,,,168.00681080000004,None,168.00681080000004,None,168.00681080000004,None,168.00681080000004,None,168.00681080000004,None,168.00681080000004,None,168.00681080000004,None,a,1,0.3729092999997192,168.00681080000004,None,,,,,,,,,,,,,2,001,2022_Aug_05_1800,Flanker,2021.2.0,240.0954619558475,
incongruent-right.jpg,0,k,left_arrow.png,left_arrow.png,left_arrow.png,right_arrow.png,left_arrow.png,left_arrow.png,left_arrow.png,,,,,6,5,41,3,,,,,,,,,,,,,168.39885529999992,None,,,,,,,,,,,,,,,,,,,,,,,,,,,,,,169.4127072000001,None,169.4127072000001,None,169.4127072000001,None,169.4127072000001,None,169.4127072000001,None,169.4127072000001,None,169.4127072000001,None,a,0,0.33521050000035757,169.4127072000001,None,,,,,,,,,,,,,2,001,2022_Aug_05_1800,Flanker,2021.2.0,240.0954619558475,
incongruent-left.jpg,0,a,right_arrow.png,right_arrow.png,right_arrow.png,left_arrow.png,right_arrow.png,right_arrow.png,right_arrow.png,,,,,7,0,42,1,,,,,,,,,,,,,169.76288939999995,None,,,,,,,,,,,,,,,,,,,,,,,,,,,,,,170.77666820000013,None,170.77666820000013,None,170.77666820000013,None,170.77666820000013,None,170.77666820000013,None,170.77666820000013,None,170.77666820000013,None,a,1,0.5077486999998655,170.77666820000013,None,,,,,,,,,,,,,2,001,2022_Aug_05_1800,Flanker,2021.2.0,240.0954619558475,
congruent-right.jpg,1,k,right_arrow.png,right_arrow.png,right_arrow.png,right_arrow.png,right_arrow.png,right_arrow.png,right_arrow.png,,,,,7,1,43,2,,,,,,,,,,,,,171.30195009999989,None,,,,,,,,,,,,,,,,,,,,,,,,,,,,,,172.30716029999985,None,172.30716029999985,None,172.30716029999985,None,172.30716029999985,None,172.30716029999985,None,172.30716029999985,None,172.30716029999985,None,k,1,0.433534299999792,172.30716029999985,None,,,,,,,,,,,,,2,001,2022_Aug_05_1800,Flanker,2021.2.0,240.0954619558475,
neutral right,0,k,neutral.png,neutral.png,neutral.png,right_arrow.png,neutral.png,neutral.png,neutral.png,,,,,7,2,44,5,,,,,,,,,,,,,172.75792360000014,None,,,,,,,,,,,,,,,,,,,,,,,,,,,,,,173.7672938999999,None,173.7672938999999,None,173.7672938999999,None,173.7672938999999,None,173.7672938999999,None,173.7672938999999,None,173.7672938999999,None,k,1,0.45320829999991474,173.7672938999999,None,,,,,,,,,,,,,2,001,2022_Aug_05_1800,Flanker,2021.2.0,240.0954619558475,
congruent-right.jpg,1,k,right_arrow.png,right_arrow.png,right_arrow.png,right_arrow.png,right_arrow.png,right_arrow.png,right_arrow.png,,,,,7,3,45,2,,,,,,,,,,,,,174.2342149000001,None,,,,,,,,,,,,,,,,,,,,,,,,,,,,,,175.24364419999984,None,175.24364419999984,None,175.24364419999984,None,175.24364419999984,None,175.24364419999984,None,175.24364419999984,None,175.24364419999984,None,k,1,0.40903979999984585,175.24364419999984,None,,,,,,,,,,,,,2,001,2022_Aug_05_1800,Flanker,2021.2.0,240.0954619558475,
neutral right,0,k,neutral.png,neutral.png,neutral.png,right_arrow.png,neutral.png,neutral.png,neutral.png,,,,,7,4,46,5,,,,,,,,,,,,,175.6695568,None,,,,,,,,,,,,,,,,,,,,,,,,,,,,,,176.68262619999996,None,176.68262619999996,None,176.68262619999996,None,176.68262619999996,None,176.68262619999996,None,176.68262619999996,None,176.68262619999996,None,k,1,0.3782654999999977,176.68262619999996,None,,,,,,,,,,,,,2,001,2022_Aug_05_1800,Flanker,2021.2.0,240.0954619558475,
incongruent-right.jpg,0,k,left_arrow.png,left_arrow.png,left_arrow.png,right_arrow.png,left_arrow.png,left_arrow.png,left_arrow.png,,,,,7,5,47,3,,,,,,,,,,,,,177.07511029999978,None,,,,,,,,,,,,,,,,,,,,,,,,,,,,,,178.08829509999987,None,178.08829509999987,None,178.08829509999987,None,178.08829509999987,None,178.08829509999987,None,178.08829509999987,None,178.08829509999987,None,k,1,0.4527719000002435,178.08829509999987,None,,,,,,,,,,,,,2,001,2022_Aug_05_1800,Flanker,2021.2.0,240.0954619558475,
,,,,,,,,,,,,,,,,,,,,,,,,,,,,,,,,,,,,,,,,,,,,,,,,,,,,,,,,,,,,,,,,,,,,,,,,,,,,,,,,178.57280880000008,None,space,5.096999800000049,178.57280880000008,None,,,,,,,2,001,2022_Aug_05_1800,Flanker,2021.2.0,240.0954619558475,
congruent-left.jpg,1,a,left_arrow.png,left_arrow.png,left_arrow.png,left_arrow.png,left_arrow.png,left_arrow.png,left_arrow.png,,,,,,,,,0,0,0,0,,,,,,,,,183.69473949999974,None,,,,,,,,,,,,,,,,,,,,,,,,,,,,,,184.69547280000006,None,184.69547280000006,None,184.69547280000006,None,184.69547280000006,None,184.69547280000006,None,184.69547280000006,None,184.69547280000006,None,a,1,0.534494800000175,184.69547280000006,None,,,,,,,,,,,,,2,001,2022_Aug_05_1800,Flanker,2021.2.0,240.0954619558475,
congruent-left.jpg,1,a,left_arrow.png,left_arrow.png,left_arrow.png,left_arrow.png,left_arrow.png,left_arrow.png,left_arrow.png,,,,,,,,,0,1,1,0,,,,,,,,,185.2459371,None,,,,,,,,,,,,,,,,,,,,,,,,,,,,,,186.25944519999985,None,186.25944519999985,None,186.25944519999985,None,186.25944519999985,None,186.25944519999985,None,186.25944519999985,None,186.25944519999985,None,a,1,0.3707933000000594,186.25944519999985,None,,,,,,,,,,,,,2,001,2022_Aug_05_1800,Flanker,2021.2.0,240.0954619558475,
congruent-right.jpg,1,k,right_arrow.png,right_arrow.png,right_arrow.png,right_arrow.png,right_arrow.png,right_arrow.png,right_arrow.png,,,,,,,,,0,2,2,2,,,,,,,,,186.64318430000003,None,,,,,,,,,,,,,,,,,,,,,,,,,,,,,,187.6526590999997,None,187.6526590999997,None,187.6526590999997,None,187.6526590999997,None,187.6526590999997,None,187.6526590999997,None,187.6526590999997,None,k,1,0.4176625000000058,187.6526590999997,None,,,,,,,,,,,,,2,001,2022_Aug_05_1800,Flanker,2021.2.0,240.0954619558475,
neutral left,0,a,neutral.png,neutral.png,neutral.png,left_arrow.png,neutral.png,neutral.png,neutral.png,,,,,,,,,0,3,3,4,,,,,,,,,188.0865905999999,None,,,,,,,,,,,,,,,,,,,,,,,,,,,,,,189.1043254000001,None,189.1043254000001,None,189.1043254000001,None,189.1043254000001,None,189.1043254000001,None,189.1043254000001,None,189.1043254000001,None,a,1,0.39019850000022416,189.1043254000001,None,,,,,,,,,,,,,2,001,2022_Aug_05_1800,Flanker,2021.2.0,240.0954619558475,
congruent-right.jpg,1,k,right_arrow.png,right_arrow.png,right_arrow.png,right_arrow.png,right_arrow.png,right_arrow.png,right_arrow.png,,,,,,,,,0,4,4,2,,,,,,,,,189.5128636999998,None,,,,,,,,,,,,,,,,,,,,,,,,,,,,,,190.52227420000008,None,190.52227420000008,None,190.52227420000008,None,190.52227420000008,None,190.52227420000008,None,190.52227420000008,None,190.52227420000008,None,k,1,0.3964771999999357,190.52227420000008,None,,,,,,,,,,,,,2,001,2022_Aug_05_1800,Flanker,2021.2.0,240.0954619558475,
neutral left,0,a,neutral.png,neutral.png,neutral.png,left_arrow.png,neutral.png,neutral.png,neutral.png,,,,,,,,,0,5,5,4,,,,,,,,,190.9310470999999,None,,,,,,,,,,,,,,,,,,,,,,,,,,,,,,191.94043569999985,None,191.94043569999985,None,191.94043569999985,None,191.94043569999985,None,191.94043569999985,None,191.94043569999985,None,191.94043569999985,None,a,1,0.3624763999996503,191.94043569999985,None,,,,,,,,,,,,,2,001,2022_Aug_05_1800,Flanker,2021.2.0,240.0954619558475,
incongruent-left.jpg,0,a,right_arrow.png,right_arrow.png,right_arrow.png,left_arrow.png,right_arrow.png,right_arrow.png,right_arrow.png,,,,,,,,,1,0,6,1,,,,,,,,,192.3159071,None,,,,,,,,,,,,,,,,,,,,,,,,,,,,,,193.32976689999987,None,193.32976689999987,None,193.32976689999987,None,193.32976689999987,None,193.32976689999987,None,193.32976689999987,None,193.32976689999987,None,a,1,0.4213225999997121,193.32976689999987,None,,,,,,,,,,,,,2,001,2022_Aug_05_1800,Flanker,2021.2.0,240.0954619558475,
neutral right,0,k,neutral.png,neutral.png,neutral.png,right_arrow.png,neutral.png,neutral.png,neutral.png,,,,,,,,,1,1,7,5,,,,,,,,,193.7634908,None,,,,,,,,,,,,,,,,,,,,,,,,,,,,,,194.77261379999982,None,194.77261379999982,None,194.77261379999982,None,194.77261379999982,None,194.77261379999982,None,194.77261379999982,None,194.77261379999982,None,k,1,0.37868299999990995,194.77261379999982,None,,,,,,,,,,,,,2,001,2022_Aug_05_1800,Flanker,2021.2.0,240.0954619558475,
incongruent-left.jpg,0,a,right_arrow.png,right_arrow.png,right_arrow.png,left_arrow.png,right_arrow.png,right_arrow.png,right_arrow.png,,,,,,,,,1,2,8,1,,,,,,,,,195.16492070000004,None,,,,,,,,,,,,,,,,,,,,,,,,,,,,,,196.17825670000002,None,196.17825670000002,None,196.17825670000002,None,196.17825670000002,None,196.17825670000002,None,196.17825670000002,None,196.17825670000002,None,a,1,0.36521129999982804,196.17825670000002,None,,,,,,,,,,,,,2,001,2022_Aug_05_1800,Flanker,2021.2.0,240.0954619558475,
neutral right,0,k,neutral.png,neutral.png,neutral.png,right_arrow.png,neutral.png,neutral.png,neutral.png,,,,,,,,,1,3,9,5,,,,,,,,,196.5619913999999,None,,,,,,,,,,,,,,,,,,,,,,,,,,,,,,197.5758434999998,None,197.5758434999998,None,197.5758434999998,None,197.5758434999998,None,197.5758434999998,None,197.5758434999998,None,197.5758434999998,None,k,1,0.37581790000012916,197.5758434999998,None,,,,,,,,,,,,,2,001,2022_Aug_05_1800,Flanker,2021.2.0,240.0954619558475,
congruent-right.jpg,1,k,right_arrow.png,right_arrow.png,right_arrow.png,right_arrow.png,right_arrow.png,right_arrow.png,right_arrow.png,,,,,,,,,1,4,10,2,,,,,,,,,197.96764949999988,None,,,,,,,,,,,,,,,,,,,,,,,,,,,,,,198.97735109999985,None,198.97735109999985,None,198.97735109999985,None,198.97735109999985,None,198.97735109999985,None,198.97735109999985,None,198.97735109999985,None,k,1,0.35850259999961054,198.97735109999985,None,,,,,,,,,,,,,2,001,2022_Aug_05_1800,Flanker,2021.2.0,240.0954619558475,
incongruent-right.jpg,0,k,left_arrow.png,left_arrow.png,left_arrow.png,right_arrow.png,left_arrow.png,left_arrow.png,left_arrow.png,,,,,,,,,1,5,11,3,,,,,,,,,199.35245459999987,None,,,,,,,,,,,,,,,,,,,,,,,,,,,,,,200.36631290000014,None,200.36631290000014,None,200.36631290000014,None,200.36631290000014,None,200.36631290000014,None,200.36631290000014,None,200.36631290000014,None,k,1,0.4257062000001497,200.36631290000014,None,,,,,,,,,,,,,2,001,2022_Aug_05_1800,Flanker,2021.2.0,240.0954619558475,
congruent-left.jpg,1,a,left_arrow.png,left_arrow.png,left_arrow.png,left_arrow.png,left_arrow.png,left_arrow.png,left_arrow.png,,,,,,,,,2,0,12,0,,,,,,,,,200.80822020000005,None,,,,,,,,,,,,,,,,,,,,,,,,,,,,,,201.82591289999982,None,201.82591289999982,None,201.82591289999982,None,201.82591289999982,None,201.82591289999982,None,201.82591289999982,None,201.82591289999982,None,a,1,0.35030030000007173,201.82591289999982,None,,,,,,,,,,,,,2,001,2022_Aug_05_1800,Flanker,2021.2.0,240.0954619558475,
neutral right,0,k,neutral.png,neutral.png,neutral.png,right_arrow.png,neutral.png,neutral.png,neutral.png,,,,,,,,,2,1,13,5,,,,,,,,,202.1929608999999,None,,,,,,,,,,,,,,,,,,,,,,,,,,,,,,203.20653119999997,None,203.20653119999997,None,203.20653119999997,None,203.20653119999997,None,203.20653119999997,None,203.20653119999997,None,203.20653119999997,None,k,1,0.3618741999998747,203.20653119999997,None,,,,,,,,,,,,,2,001,2022_Aug_05_1800,Flanker,2021.2.0,240.0954619558475,
incongruent-right.jpg,0,k,left_arrow.png,left_arrow.png,left_arrow.png,right_arrow.png,left_arrow.png,left_arrow.png,left_arrow.png,,,,,,,,,2,2,14,3,,,,,,,,,203.58219129999998,None,,,,,,,,,,,,,,,,,,,,,,,,,,,,,,204.59550760000002,None,204.59550760000002,None,204.59550760000002,None,204.59550760000002,None,204.59550760000002,None,204.59550760000002,None,204.59550760000002,None,k,1,0.517103600000155,204.59550760000002,None,,,,,,,,,,,,,2,001,2022_Aug_05_1800,Flanker,2021.2.0,240.0954619558475,
neutral left,0,a,neutral.png,neutral.png,neutral.png,left_arrow.png,neutral.png,neutral.png,neutral.png,,,,,,,,,2,3,15,4,,,,,,,,,205.12947750000012,None,,,,,,,,,,,,,,,,,,,,,,,,,,,,,,206.14714730000014,None,206.14714730000014,None,206.14714730000014,None,206.14714730000014,None,206.14714730000014,None,206.14714730000014,None,206.14714730000014,None,a,1,0.3736344000003555,206.14714730000014,None,,,,,,,,,,,,,2,001,2022_Aug_05_1800,Flanker,2021.2.0,240.0954619558475,
incongruent-right.jpg,0,k,left_arrow.png,left_arrow.png,left_arrow.png,right_arrow.png,left_arrow.png,left_arrow.png,left_arrow.png,,,,,,,,,2,4,16,3,,,,,,,,,206.5392081,None,,,,,,,,,,,,,,,,,,,,,,,,,,,,,,207.5528261999998,None,207.5528261999998,None,207.5528261999998,None,207.5528261999998,None,207.5528261999998,None,207.5528261999998,None,207.5528261999998,None,k,1,0.47215189999997165,207.5528261999998,None,,,,,,,,,,,,,2,001,2022_Aug_05_1800,Flanker,2021.2.0,240.0954619558475,
congruent-right.jpg,1,k,right_arrow.png,right_arrow.png,right_arrow.png,right_arrow.png,right_arrow.png,right_arrow.png,right_arrow.png,,,,,,,,,2,5,17,2,,,,,,,,,208.03664040000012,None,,,,,,,,,,,,,,,,,,,,,,,,,,,,,,209.05048769999985,None,209.05048769999985,None,209.05048769999985,None,209.05048769999985,None,209.05048769999985,None,209.05048769999985,None,209.05048769999985,None,k,1,0.43870079999987865,209.05048769999985,None,,,,,,,,,,,,,2,001,2022_Aug_05_1800,Flanker,2021.2.0,240.0954619558475,
neutral left,0,a,neutral.png,neutral.png,neutral.png,left_arrow.png,neutral.png,neutral.png,neutral.png,,,,,,,,,3,0,18,4,,,,,,,,,209.5006874999999,None,,,,,,,,,,,,,,,,,,,,,,,,,,,,,,210.51428140000007,None,210.51428140000007,None,210.51428140000007,None,210.51428140000007,None,210.51428140000007,None,210.51428140000007,None,210.51428140000007,None,a,1,0.5031160999997155,210.51428140000007,None,,,,,,,,,,,,,2,001,2022_Aug_05_1800,Flanker,2021.2.0,240.0954619558475,
neutral left,0,a,neutral.png,neutral.png,neutral.png,left_arrow.png,neutral.png,neutral.png,neutral.png,,,,,,,,,3,1,19,4,,,,,,,,,211.03164040000001,None,,,,,,,,,,,,,,,,,,,,,,,,,,,,,,212.040935,None,212.040935,None,212.040935,None,212.040935,None,212.040935,None,212.040935,None,212.040935,None,a,1,0.4169403000000784,212.040935,None,,,,,,,,,,,,,2,001,2022_Aug_05_1800,Flanker,2021.2.0,240.0954619558475,
congruent-right.jpg,1,k,right_arrow.png,right_arrow.png,right_arrow.png,right_arrow.png,right_arrow.png,right_arrow.png,right_arrow.png,,,,,,,,,3,2,20,2,,,,,,,,,212.47495500000014,None,,,,,,,,,,,,,,,,,,,,,,,,,,,,,,213.48823549999997,None,213.48823549999997,None,213.48823549999997,None,213.48823549999997,None,213.48823549999997,None,213.48823549999997,None,213.48823549999997,None,k,1,0.4415530999999646,213.48823549999997,None,,,,,,,,,,,,,2,001,2022_Aug_05_1800,Flanker,2021.2.0,240.0954619558475,
incongruent-right.jpg,0,k,left_arrow.png,left_arrow.png,left_arrow.png,right_arrow.png,left_arrow.png,left_arrow.png,left_arrow.png,,,,,,,,,3,3,21,3,,,,,,,,,213.9470621999999,None,,,,,,,,,,,,,,,,,,,,,,,,,,,,,,214.95659399999977,None,214.95659399999977,None,214.95659399999977,None,214.95659399999977,None,214.95659399999977,None,214.95659399999977,None,214.95659399999977,None,k,1,0.49341739999999845,214.95659399999977,None,,,,,,,,,,,,,2,001,2022_Aug_05_1800,Flanker,2021.2.0,240.0954619558475,
incongruent-left.jpg,0,a,right_arrow.png,right_arrow.png,right_arrow.png,left_arrow.png,right_arrow.png,right_arrow.png,right_arrow.png,,,,,,,,,3,4,22,1,,,,,,,,,215.4656457000001,None,,,,,,,,,,,,,,,,,,,,,,,,,,,,,,216.47474520000014,None,216.47474520000014,None,216.47474520000014,None,216.47474520000014,None,216.47474520000014,None,216.47474520000014,None,216.47474520000014,None,a,1,0.49546749999990425,216.47474520000014,None,,,,,,,,,,,,,2,001,2022_Aug_05_1800,Flanker,2021.2.0,240.0954619558475,
incongruent-right.jpg,0,k,left_arrow.png,left_arrow.png,left_arrow.png,right_arrow.png,left_arrow.png,left_arrow.png,left_arrow.png,,,,,,,,,3,5,23,3,,,,,,,,,216.9836193000001,None,,,,,,,,,,,,,,,,,,,,,,,,,,,,,,217.99746589999995,None,217.99746589999995,None,217.99746589999995,None,217.99746589999995,None,217.99746589999995,None,217.99746589999995,None,217.99746589999995,None,k,1,0.4049005000001671,217.99746589999995,None,,,,,,,,,,,,,2,001,2022_Aug_05_1800,Flanker,2021.2.0,240.0954619558475,
congruent-right.jpg,1,k,right_arrow.png,right_arrow.png,right_arrow.png,right_arrow.png,right_arrow.png,right_arrow.png,right_arrow.png,,,,,,,,,4,0,24,2,,,,,,,,,218.4142982999997,None,,,,,,,,,,,,,,,,,,,,,,,,,,,,,,219.42813590000014,None,219.42813590000014,None,219.42813590000014,None,219.42813590000014,None,219.42813590000014,None,219.42813590000014,None,219.42813590000014,None,k,1,0.39087719999997717,219.42813590000014,None,,,,,,,,,,,,,2,001,2022_Aug_05_1800,Flanker,2021.2.0,240.0954619558475,
incongruent-left.jpg,0,a,right_arrow.png,right_arrow.png,right_arrow.png,left_arrow.png,right_arrow.png,right_arrow.png,right_arrow.png,,,,,,,,,4,1,25,1,,,,,,,,,219.83661369999982,None,,,,,,,,,,,,,,,,,,,,,,,,,,,,,,220.84633369999983,None,220.84633369999983,None,220.84633369999983,None,220.84633369999983,None,220.84633369999983,None,220.84633369999983,None,220.84633369999983,None,a,1,0.4364283999998406,220.84633369999983,None,,,,,,,,,,,,,2,001,2022_Aug_05_1800,Flanker,2021.2.0,240.0954619558475,
incongruent-right.jpg,0,k,left_arrow.png,left_arrow.png,left_arrow.png,right_arrow.png,left_arrow.png,left_arrow.png,left_arrow.png,,,,,,,,,4,2,26,3,,,,,,,,,221.29650600000014,None,,,,,,,,,,,,,,,,,,,,,,,,,,,,,,222.30617359999997,None,222.30617359999997,None,222.30617359999997,None,222.30617359999997,None,222.30617359999997,None,222.30617359999997,None,222.30617359999997,None,k,1,0.3367634999999609,222.30617359999997,None,,,,,,,,,,,,,2,001,2022_Aug_05_1800,Flanker,2021.2.0,240.0954619558475,
neutral left,0,a,neutral.png,neutral.png,neutral.png,left_arrow.png,neutral.png,neutral.png,neutral.png,,,,,,,,,4,3,27,4,,,,,,,,,222.65626829999974,None,,,,,,,,,,,,,,,,,,,,,,,,,,,,,,223.66983900000014,None,223.66983900000014,None,223.66983900000014,None,223.66983900000014,None,223.66983900000014,None,223.66983900000014,None,223.66983900000014,None,a,1,0.3652732000000469,223.66983900000014,None,,,,,,,,,,,,,2,001,2022_Aug_05_1800,Flanker,2021.2.0,240.0954619558475,
neutral right,0,k,neutral.png,neutral.png,neutral.png,right_arrow.png,neutral.png,neutral.png,neutral.png,,,,,,,,,4,4,28,5,,,,,,,,,224.0535946,None,,,,,,,,,,,,,,,,,,,,,,,,,,,,,,225.06746590000012,None,225.06746590000012,None,225.06746590000012,None,225.06746590000012,None,225.06746590000012,None,225.06746590000012,None,225.06746590000012,None,k,1,0.3678531999998995,225.06746590000012,None,,,,,,,,,,,,,2,001,2022_Aug_05_1800,Flanker,2021.2.0,240.0954619558475,
incongruent-left.jpg,0,a,right_arrow.png,right_arrow.png,right_arrow.png,left_arrow.png,right_arrow.png,right_arrow.png,right_arrow.png,,,,,,,,,4,5,29,1,,,,,,,,,225.4509939999998,None,,,,,,,,,,,,,,,,,,,,,,,,,,,,,,226.4647285000001,None,226.4647285000001,None,226.4647285000001,None,226.4647285000001,None,226.4647285000001,None,226.4647285000001,None,226.4647285000001,None,a,1,0.3387663000003158,226.4647285000001,None,,,,,,,,,,,,,2,001,2022_Aug_05_1800,Flanker,2021.2.0,240.0954619558475,
congruent-left.jpg,1,a,left_arrow.png,left_arrow.png,left_arrow.png,left_arrow.png,left_arrow.png,left_arrow.png,left_arrow.png,,,,,,,,,5,0,30,0,,,,,,,,,226.8231783000001,None,,,,,,,,,,,,,,,,,,,,,,,,,,,,,,227.8328492999999,None,227.8328492999999,None,227.8328492999999,None,227.8328492999999,None,227.8328492999999,None,227.8328492999999,None,227.8328492999999,None,a,1,0.45090509999999995,227.8328492999999,None,,,,,,,,,,,,,2,001,2022_Aug_05_1800,Flanker,2021.2.0,240.0954619558475,
neutral left,0,a,neutral.png,neutral.png,neutral.png,left_arrow.png,neutral.png,neutral.png,neutral.png,,,,,,,,,5,1,31,4,,,,,,,,,228.29973710000013,None,,,,,,,,,,,,,,,,,,,,,,,,,,,,,,229.30935670000008,None,229.30935670000008,None,229.30935670000008,None,229.30935670000008,None,229.30935670000008,None,229.30935670000008,None,229.30935670000008,None,a,1,0.39081420000002254,229.30935670000008,None,,,,,,,,,,,,,2,001,2022_Aug_05_1800,Flanker,2021.2.0,240.0954619558475,
congruent-left.jpg,1,a,left_arrow.png,left_arrow.png,left_arrow.png,left_arrow.png,left_arrow.png,left_arrow.png,left_arrow.png,,,,,,,,,5,2,32,0,,,,,,,,,229.71790939999983,None,,,,,,,,,,,,,,,,,,,,,,,,,,,,,,230.73173050000014,None,230.73173050000014,None,230.73173050000014,None,230.73173050000014,None,230.73173050000014,None,230.73173050000014,None,230.73173050000014,None,a,1,0.368337800000063,230.73173050000014,None,,,,,,,,,,,,,2,001,2022_Aug_05_1800,Flanker,2021.2.0,240.0954619558475,
congruent-right.jpg,1,k,right_arrow.png,right_arrow.png,right_arrow.png,right_arrow.png,right_arrow.png,right_arrow.png,right_arrow.png,,,,,,,,,5,3,33,2,,,,,,,,,231.11533000000009,None,,,,,,,,,,,,,,,,,,,,,,,,,,,,,,232.1290223000001,None,232.1290223000001,None,232.1290223000001,None,232.1290223000001,None,232.1290223000001,None,232.1290223000001,None,232.1290223000001,None,k,1,0.4192555999998149,232.1290223000001,None,,,,,,,,,,,,,2,001,2022_Aug_05_1800,Flanker,2021.2.0,240.0954619558475,
congruent-right.jpg,1,k,right_arrow.png,right_arrow.png,right_arrow.png,right_arrow.png,right_arrow.png,right_arrow.png,right_arrow.png,,,,,,,,,5,4,34,2,,,,,,,,,232.56258769999977,None,,,,,,,,,,,,,,,,,,,,,,,,,,,,,,233.5719865000001,None,233.5719865000001,None,233.5719865000001,None,233.5719865000001,None,233.5719865000001,None,233.5719865000001,None,233.5719865000001,None,k,1,0.40048010000009526,233.5719865000001,None,,,,,,,,,,,,,2,001,2022_Aug_05_1800,Flanker,2021.2.0,240.0954619558475,
neutral right,0,k,neutral.png,neutral.png,neutral.png,right_arrow.png,neutral.png,neutral.png,neutral.png,,,,,,,,,5,5,35,5,,,,,,,,,233.98939960000007,None,,,,,,,,,,,,,,,,,,,,,,,,,,,,,,234.9987357,None,234.9987357,None,234.9987357,None,234.9987357,None,234.9987357,None,234.9987357,None,234.9987357,None,k,1,0.429899999999634,234.9987357,None,,,,,,,,,,,,,2,001,2022_Aug_05_1800,Flanker,2021.2.0,240.0954619558475,
neutral left,0,a,neutral.png,neutral.png,neutral.png,left_arrow.png,neutral.png,neutral.png,neutral.png,,,,,,,,,6,0,36,4,,,,,,,,,235.44064170000001,None,,,,,,,,,,,,,,,,,,,,,,,,,,,,,,236.45007209999994,None,236.45007209999994,None,236.45007209999994,None,236.45007209999994,None,236.45007209999994,None,236.45007209999994,None,236.45007209999994,None,a,1,0.4267747999997482,236.45007209999994,None,,,,,,,,,,,,,2,001,2022_Aug_05_1800,Flanker,2021.2.0,240.0954619558475,
congruent-left.jpg,1,a,left_arrow.png,left_arrow.png,left_arrow.png,left_arrow.png,left_arrow.png,left_arrow.png,left_arrow.png,,,,,,,,,6,1,37,0,,,,,,,,,236.8923378999998,None,,,,,,,,,,,,,,,,,,,,,,,,,,,,,,237.9016557,None,237.9016557,None,237.9016557,None,237.9016557,None,237.9016557,None,237.9016557,None,237.9016557,None,a,1,0.39935719999994035,237.9016557,None,,,,,,,,,,,,,2,001,2022_Aug_05_1800,Flanker,2021.2.0,240.0954619558475,
congruent-left.jpg,1,a,left_arrow.png,left_arrow.png,left_arrow.png,left_arrow.png,left_arrow.png,left_arrow.png,left_arrow.png,,,,,,,,,6,2,38,0,,,,,,,,,238.3186738999998,None,,,,,,,,,,,,,,,,,,,,,,,,,,,,,,239.32839479999984,None,239.32839479999984,None,239.32839479999984,None,239.32839479999984,None,239.32839479999984,None,239.32839479999984,None,239.32839479999984,None,a,1,0.3888187999996262,239.32839479999984,None,,,,,,,,,,,,,2,001,2022_Aug_05_1800,Flanker,2021.2.0,240.0954619558475,
neutral right,0,k,neutral.png,neutral.png,neutral.png,right_arrow.png,neutral.png,neutral.png,neutral.png,,,,,,,,,6,3,39,5,,,,,,,,,239.72858469999983,None,,,,,,,,,,,,,,,,,,,,,,,,,,,,,,240.7424335999999,None,240.7424335999999,None,240.7424335999999,None,240.7424335999999,None,240.7424335999999,None,240.7424335999999,None,240.7424335999999,None,k,1,0.4629621000003681,240.7424335999999,None,,,,,,,,,,,,,2,001,2022_Aug_05_1800,Flanker,2021.2.0,240.0954619558475,
incongruent-right.jpg,0,k,left_arrow.png,left_arrow.png,left_arrow.png,right_arrow.png,left_arrow.png,left_arrow.png,left_arrow.png,,,,,,,,,6,4,40,3,,,,,,,,,241.21797319999996,None,,,,,,,,,,,,,,,,,,,,,,,,,,,,,,242.22720290000007,None,242.22720290000007,None,242.22720290000007,None,242.22720290000007,None,242.22720290000007,None,242.22720290000007,None,242.22720290000007,None,k,1,0.45840640000005806,242.22720290000007,None,,,,,,,,,,,,,2,001,2022_Aug_05_1800,Flanker,2021.2.0,240.0954619558475,
neutral right,0,k,neutral.png,neutral.png,neutral.png,right_arrow.png,neutral.png,neutral.png,neutral.png,,,,,,,,,6,5,41,5,,,,,,,,,242.70249680000006,None,,,,,,,,,,,,,,,,,,,,,,,,,,,,,,243.71189409999988,None,243.71189409999988,None,243.71189409999988,None,243.71189409999988,None,243.71189409999988,None,243.71189409999988,None,243.71189409999988,None,k,1,0.3898853999999119,243.71189409999988,None,,,,,,,,,,,,,2,001,2022_Aug_05_1800,Flanker,2021.2.0,240.0954619558475,
incongruent-left.jpg,0,a,right_arrow.png,right_arrow.png,right_arrow.png,left_arrow.png,right_arrow.png,right_arrow.png,right_arrow.png,,,,,,,,,7,0,42,1,,,,,,,,,244.1206613999998,None,,,,,,,,,,,,,,,,,,,,,,,,,,,,,,245.13029789999973,None,245.13029789999973,None,245.13029789999973,None,245.13029789999973,None,245.13029789999973,None,245.13029789999973,None,245.13029789999973,None,a,1,0.5477052000001095,245.13029789999973,None,,,,,,,,,,,,,2,001,2022_Aug_05_1800,Flanker,2021.2.0,240.0954619558475,
incongruent-right.jpg,0,k,left_arrow.png,left_arrow.png,left_arrow.png,right_arrow.png,left_arrow.png,left_arrow.png,left_arrow.png,,,,,,,,,7,1,43,3,,,,,,,,,245.69731580000007,None,,,,,,,,,,,,,,,,,,,,,,,,,,,,,,246.71126289999984,None,246.71126289999984,None,246.71126289999984,None,246.71126289999984,None,246.71126289999984,None,246.71126289999984,None,246.71126289999984,None,k,1,0.4389314000000013,246.71126289999984,None,,,,,,,,,,,,,2,001,2022_Aug_05_1800,Flanker,2021.2.0,240.0954619558475,
incongruent-left.jpg,0,a,right_arrow.png,right_arrow.png,right_arrow.png,left_arrow.png,right_arrow.png,right_arrow.png,right_arrow.png,,,,,,,,,7,2,44,1,,,,,,,,,247.16971699999976,None,,,,,,,,,,,,,,,,,,,,,,,,,,,,,,248.18359079999982,None,248.18359079999982,None,248.18359079999982,None,248.18359079999982,None,248.18359079999982,None,248.18359079999982,None,248.18359079999982,None,a,1,0.5348578000002817,248.18359079999982,None,,,,,,,,,,,,,2,001,2022_Aug_05_1800,Flanker,2021.2.0,240.0954619558475,
congruent-left.jpg,1,a,left_arrow.png,left_arrow.png,left_arrow.png,left_arrow.png,left_arrow.png,left_arrow.png,left_arrow.png,,,,,,,,,7,3,45,0,,,,,,,,,248.7338921999999,None,,,,,,,,,,,,,,,,,,,,,,,,,,,,,,249.74328650000007,None,249.74328650000007,None,249.74328650000007,None,249.74328650000007,None,249.74328650000007,None,249.74328650000007,None,249.74328650000007,None,a,1,0.39962540000033187,249.74328650000007,None,,,,,,,,,,,,,2,001,2022_Aug_05_1800,Flanker,2021.2.0,240.0954619558475,
neutral right,0,k,neutral.png,neutral.png,neutral.png,right_arrow.png,neutral.png,neutral.png,neutral.png,,,,,,,,,7,4,46,5,,,,,,,,,250.16059039999982,None,,,,,,,,,,,,,,,,,,,,,,,,,,,,,,251.17819569999983,None,251.17819569999983,None,251.17819569999983,None,251.17819569999983,None,251.17819569999983,None,251.17819569999983,None,251.17819569999983,None,k,1,0.45265029999973194,251.17819569999983,None,,,,,,,,,,,,,2,001,2022_Aug_05_1800,Flanker,2021.2.0,240.0954619558475,
incongruent-left.jpg,0,a,right_arrow.png,right_arrow.png,right_arrow.png,left_arrow.png,right_arrow.png,right_arrow.png,right_arrow.png,,,,,,,,,7,5,47,1,,,,,,,,,251.64558669999997,None,,,,,,,,,,,,,,,,,,,,,,,,,,,,,,252.6546927999998,None,252.6546927999998,None,252.6546927999998,None,252.6546927999998,None,252.6546927999998,None,252.6546927999998,None,252.6546927999998,None,a,1,0.44028609999986656,252.6546927999998,None,,,,,,,,,,,,,2,001,2022_Aug_05_1800,Flanker,2021.2.0,240.0954619558475,
,,,,,,,,,,,,,,,,,,,,,,,,,,,,,,,,,,,,,,,,,,,,,,,,,,,,,,,,,,,,,,,,,,,,,,,,,,,,,,,,253.12605069999972,None,space,1.7611818999998832,253.12605069999972,None,,,,,,,2,001,2022_Aug_05_1800,Flanker,2021.2.0,240.0954619558475,
incongruent-left.jpg,0,a,right_arrow.png,right_arrow.png,right_arrow.png,left_arrow.png,right_arrow.png,right_arrow.png,right_arrow.png,,,,,,,,,,,,,0,0,0,1,,,,,254.91126810000014,None,,,,,,,,,,,,,,,,,,,,,,,,,,,,,,255.91249070000003,None,255.91249070000003,None,255.91249070000003,None,255.91249070000003,None,255.91249070000003,None,255.91249070000003,None,255.91249070000003,None,a,1,0.5029758999999103,255.91249070000003,None,,,,,,,,,,,,,2,001,2022_Aug_05_1800,Flanker,2021.2.0,240.0954619558475,
neutral right,0,k,neutral.png,neutral.png,neutral.png,right_arrow.png,neutral.png,neutral.png,neutral.png,,,,,,,,,,,,,0,1,1,5,,,,,256.4295327,None,,,,,,,,,,,,,,,,,,,,,,,,,,,,,,257.44307849999996,None,257.44307849999996,None,257.44307849999996,None,257.44307849999996,None,257.44307849999996,None,257.44307849999996,None,257.44307849999996,None,k,1,0.34853430000021035,257.44307849999996,None,,,,,,,,,,,,,2,001,2022_Aug_05_1800,Flanker,2021.2.0,240.0954619558475,
incongruent-left.jpg,0,a,right_arrow.png,right_arrow.png,right_arrow.png,left_arrow.png,right_arrow.png,right_arrow.png,right_arrow.png,,,,,,,,,,,,,0,2,2,1,,,,,257.8105734999999,None,,,,,,,,,,,,,,,,,,,,,,,,,,,,,,258.82401819999995,None,258.82401819999995,None,258.82401819999995,None,258.82401819999995,None,258.82401819999995,None,258.82401819999995,None,258.82401819999995,None,a,1,0.4078196999998909,258.82401819999995,None,,,,,,,,,,,,,2,001,2022_Aug_05_1800,Flanker,2021.2.0,240.0954619558475,
congruent-right.jpg,1,k,right_arrow.png,right_arrow.png,right_arrow.png,right_arrow.png,right_arrow.png,right_arrow.png,right_arrow.png,,,,,,,,,,,,,0,3,3,2,,,,,259.2491753999998,None,,,,,,,,,,,,,,,,,,,,,,,,,,,,,,260.2630012999998,None,260.2630012999998,None,260.2630012999998,None,260.2630012999998,None,260.2630012999998,None,260.2630012999998,None,260.2630012999998,None,k,1,0.3769981000000371,260.2630012999998,None,,,,,,,,,,,,,2,001,2022_Aug_05_1800,Flanker,2021.2.0,240.0954619558475,
congruent-left.jpg,1,a,left_arrow.png,left_arrow.png,left_arrow.png,left_arrow.png,left_arrow.png,left_arrow.png,left_arrow.png,,,,,,,,,,,,,0,4,4,0,,,,,260.6548063,None,,,,,,,,,,,,,,,,,,,,,,,,,,,,,,261.66449190000003,None,261.66449190000003,None,261.66449190000003,None,261.66449190000003,None,261.66449190000003,None,261.66449190000003,None,261.66449190000003,None,a,1,0.3837487000000692,261.66449190000003,None,,,,,,,,,,,,,2,001,2022_Aug_05_1800,Flanker,2021.2.0,240.0954619558475,
congruent-left.jpg,1,a,left_arrow.png,left_arrow.png,left_arrow.png,left_arrow.png,left_arrow.png,left_arrow.png,left_arrow.png,,,,,,,,,,,,,0,5,5,0,,,,,262.06472269999995,None,,,,,,,,,,,,,,,,,,,,,,,,,,,,,,263.07406790000005,None,263.07406790000005,None,263.07406790000005,None,263.07406790000005,None,263.07406790000005,None,263.07406790000005,None,263.07406790000005,None,a,1,0.3983075999999528,263.07406790000005,None,,,,,,,,,,,,,2,001,2022_Aug_05_1800,Flanker,2021.2.0,240.0954619558475,
incongruent-left.jpg,0,a,right_arrow.png,right_arrow.png,right_arrow.png,left_arrow.png,right_arrow.png,right_arrow.png,right_arrow.png,,,,,,,,,,,,,1,0,6,1,,,,,263.4911551,None,,,,,,,,,,,,,,,,,,,,,,,,,,,,,,264.50079030000006,None,264.50079030000006,None,264.50079030000006,None,264.50079030000006,None,264.50079030000006,None,264.50079030000006,None,264.50079030000006,None,a,1,0.45977799999991475,264.50079030000006,None,,,,,,,,,,,,,2,001,2022_Aug_05_1800,Flanker,2021.2.0,240.0954619558475,
congruent-left.jpg,1,a,left_arrow.png,left_arrow.png,left_arrow.png,left_arrow.png,left_arrow.png,left_arrow.png,left_arrow.png,,,,,,,,,,,,,1,1,7,0,,,,,264.97605840000006,None,,,,,,,,,,,,,,,,,,,,,,,,,,,,,,265.98992899999985,None,265.98992899999985,None,265.98992899999985,None,265.98992899999985,None,265.98992899999985,None,265.98992899999985,None,265.98992899999985,None,a,1,0.39484700000002704,265.98992899999985,None,,,,,,,,,,,,,2,001,2022_Aug_05_1800,Flanker,2021.2.0,240.0954619558475,
incongruent-right.jpg,0,k,left_arrow.png,left_arrow.png,left_arrow.png,right_arrow.png,left_arrow.png,left_arrow.png,left_arrow.png,,,,,,,,,,,,,1,2,8,3,,,,,266.3984639,None,,,,,,,,,,,,,,,,,,,,,,,,,,,,,,267.41223880000007,None,267.41223880000007,None,267.41223880000007,None,267.41223880000007,None,267.41223880000007,None,267.41223880000007,None,267.41223880000007,None,a,0,0.39669999999978245,267.41223880000007,None,,,,,,,,,,,,,2,001,2022_Aug_05_1800,Flanker,2021.2.0,240.0954619558475,
congruent-right.jpg,1,k,right_arrow.png,right_arrow.png,right_arrow.png,right_arrow.png,right_arrow.png,right_arrow.png,right_arrow.png,,,,,,,,,,,,,1,3,9,2,,,,,267.8208125000001,None,,,,,,,,,,,,,,,,,,,,,,,,,,,,,,268.83455300000014,None,268.83455300000014,None,268.83455300000014,None,268.83455300000014,None,268.83455300000014,None,268.83455300000014,None,268.83455300000014,None,k,1,0.43061149999994086,268.83455300000014,None,,,,,,,,,,,,,2,001,2022_Aug_05_1800,Flanker,2021.2.0,240.0954619558475,
incongruent-right.jpg,0,k,left_arrow.png,left_arrow.png,left_arrow.png,right_arrow.png,left_arrow.png,left_arrow.png,left_arrow.png,,,,,,,,,,,,,1,4,10,3,,,,,269.28486399999974,None,,,,,,,,,,,,,,,,,,,,,,,,,,,,,,270.29834119999987,None,270.29834119999987,None,270.29834119999987,None,270.29834119999987,None,270.29834119999987,None,270.29834119999987,None,270.29834119999987,None,k,1,0.47104269999999815,270.29834119999987,None,,,,,,,,,,,,,2,001,2022_Aug_05_1800,Flanker,2021.2.0,240.0954619558475,
neutral right,0,k,neutral.png,neutral.png,neutral.png,right_arrow.png,neutral.png,neutral.png,neutral.png,,,,,,,,,,,,,1,5,11,5,,,,,270.7822473000001,None,,,,,,,,,,,,,,,,,,,,,,,,,,,,,,271.7958405999998,None,271.7958405999998,None,271.7958405999998,None,271.7958405999998,None,271.7958405999998,None,271.7958405999998,None,271.7958405999998,None,k,1,0.46172059999980775,271.7958405999998,None,,,,,,,,,,,,,2,001,2022_Aug_05_1800,Flanker,2021.2.0,240.0954619558475,
congruent-left.jpg,1,a,left_arrow.png,left_arrow.png,left_arrow.png,left_arrow.png,left_arrow.png,left_arrow.png,left_arrow.png,,,,,,,,,,,,,2,0,12,0,,,,,272.2715518,None,,,,,,,,,,,,,,,,,,,,,,,,,,,,,,273.2806673,None,273.2806673,None,273.2806673,None,273.2806673,None,273.2806673,None,273.2806673,None,273.2806673,None,a,1,0.48906780000015715,273.2806673,None,,,,,,,,,,,,,2,001,2022_Aug_05_1800,Flanker,2021.2.0,240.0954619558475,
neutral right,0,k,neutral.png,neutral.png,neutral.png,right_arrow.png,neutral.png,neutral.png,neutral.png,,,,,,,,,,,,,2,1,13,5,,,,,273.7812721,None,,,,,,,,,,,,,,,,,,,,,,,,,,,,,,274.7909513999998,None,274.7909513999998,None,274.7909513999998,None,274.7909513999998,None,274.7909513999998,None,274.7909513999998,None,274.7909513999998,None,k,1,0.39498649999995905,274.7909513999998,None,,,,,,,,,,,,,2,001,2022_Aug_05_1800,Flanker,2021.2.0,240.0954619558475,
incongruent-left.jpg,0,a,right_arrow.png,right_arrow.png,right_arrow.png,left_arrow.png,right_arrow.png,right_arrow.png,right_arrow.png,,,,,,,,,,,,,2,2,14,1,,,,,275.1993744000001,None,,,,,,,,,,,,,,,,,,,,,,,,,,,,,,276.2129663999999,None,276.2129663999999,None,276.2129663999999,None,276.2129663999999,None,276.2129663999999,None,276.2129663999999,None,276.2129663999999,None,a,1,0.4851787000002332,276.2129663999999,None,,,,,,,,,,,,,2,001,2022_Aug_05_1800,Flanker,2021.2.0,240.0954619558475,
congruent-right.jpg,1,k,right_arrow.png,right_arrow.png,right_arrow.png,right_arrow.png,right_arrow.png,right_arrow.png,right_arrow.png,,,,,,,,,,,,,2,3,15,2,,,,,276.71348279999984,None,,,,,,,,,,,,,,,,,,,,,,,,,,,,,,277.7315920000001,None,277.7315920000001,None,277.7315920000001,None,277.7315920000001,None,277.7315920000001,None,277.7315920000001,None,277.7315920000001,None,k,1,0.4307331999998496,277.7315920000001,None,,,,,,,,,,,,,2,001,2022_Aug_05_1800,Flanker,2021.2.0,240.0954619558475,
incongruent-left.jpg,0,a,right_arrow.png,right_arrow.png,right_arrow.png,left_arrow.png,right_arrow.png,right_arrow.png,right_arrow.png,,,,,,,,,,,,,2,4,16,1,,,,,278.1817083000001,None,,,,,,,,,,,,,,,,,,,,,,,,,,,,,,279.19963229999985,None,279.19963229999985,None,279.19963229999985,None,279.19963229999985,None,279.19963229999985,None,279.19963229999985,None,279.19963229999985,None,a,1,0.4509103000000323,279.19963229999985,None,,,,,,,,,,,,,2,001,2022_Aug_05_1800,Flanker,2021.2.0,240.0954619558475,
incongruent-right.jpg,0,k,left_arrow.png,left_arrow.png,left_arrow.png,right_arrow.png,left_arrow.png,left_arrow.png,left_arrow.png,,,,,,,,,,,,,2,5,17,3,,,,,279.66660379999985,None,,,,,,,,,,,,,,,,,,,,,,,,,,,,,,280.67625069999985,None,280.67625069999985,None,280.67625069999985,None,280.67625069999985,None,280.67625069999985,None,280.67625069999985,None,280.67625069999985,None,k,1,0.4624635000000126,280.67625069999985,None,,,,,,,,,,,,,2,001,2022_Aug_05_1800,Flanker,2021.2.0,240.0954619558475,
congruent-left.jpg,1,a,left_arrow.png,left_arrow.png,left_arrow.png,left_arrow.png,left_arrow.png,left_arrow.png,left_arrow.png,,,,,,,,,,,,,3,0,18,0,,,,,281.15150360000007,None,,,,,,,,,,,,,,,,,,,,,,,,,,,,,,282.1611874,None,282.1611874,None,282.1611874,None,282.1611874,None,282.1611874,None,282.1611874,None,282.1611874,None,a,1,0.4337249000000156,282.1611874,None,,,,,,,,,,,,,2,001,2022_Aug_05_1800,Flanker,2021.2.0,240.0954619558475,
neutral left,0,a,neutral.png,neutral.png,neutral.png,left_arrow.png,neutral.png,neutral.png,neutral.png,,,,,,,,,,,,,3,1,19,4,,,,,282.6113673,None,,,,,,,,,,,,,,,,,,,,,,,,,,,,,,283.62495519999993,None,283.62495519999993,None,283.62495519999993,None,283.62495519999993,None,283.62495519999993,None,283.62495519999993,None,283.62495519999993,None,a,1,0.43416360000037457,283.62495519999993,None,,,,,,,,,,,,,2,001,2022_Aug_05_1800,Flanker,2021.2.0,240.0954619558475,
incongruent-right.jpg,0,k,left_arrow.png,left_arrow.png,left_arrow.png,right_arrow.png,left_arrow.png,left_arrow.png,left_arrow.png,,,,,,,,,,,,,3,2,20,3,,,,,284.07567599999993,None,,,,,,,,,,,,,,,,,,,,,,,,,,,,,,285.0891013999999,None,285.0891013999999,None,285.0891013999999,None,285.0891013999999,None,285.0891013999999,None,285.0891013999999,None,285.0891013999999,None,k,1,0.4261973000002399,285.0891013999999,None,,,,,,,,,,,,,2,001,2022_Aug_05_1800,Flanker,2021.2.0,240.0954619558475,
neutral left,0,a,neutral.png,neutral.png,neutral.png,left_arrow.png,neutral.png,neutral.png,neutral.png,,,,,,,,,,,,,3,3,21,4,,,,,285.53142690000004,None,,,,,,,,,,,,,,,,,,,,,,,,,,,,,,286.5489653999998,None,286.5489653999998,None,286.5489653999998,None,286.5489653999998,None,286.5489653999998,None,286.5489653999998,None,286.5489653999998,None,a,1,0.42253690000006827,286.5489653999998,None,,,,,,,,,,,,,2,001,2022_Aug_05_1800,Flanker,2021.2.0,240.0954619558475,
neutral right,0,k,neutral.png,neutral.png,neutral.png,right_arrow.png,neutral.png,neutral.png,neutral.png,,,,,,,,,,,,,3,4,22,5,,,,,286.9826727999998,None,,,,,,,,,,,,,,,,,,,,,,,,,,,,,,287.99653050000006,None,287.99653050000006,None,287.99653050000006,None,287.99653050000006,None,287.99653050000006,None,287.99653050000006,None,287.99653050000006,None,k,1,0.3994652999999744,287.99653050000006,None,,,,,,,,,,,,,2,001,2022_Aug_05_1800,Flanker,2021.2.0,240.0954619558475,
incongruent-left.jpg,0,a,right_arrow.png,right_arrow.png,right_arrow.png,left_arrow.png,right_arrow.png,right_arrow.png,right_arrow.png,,,,,,,,,,,,,3,5,23,1,,,,,288.41335100000015,None,,,,,,,,,,,,,,,,,,,,,,,,,,,,,,289.42278179999994,None,289.42278179999994,None,289.42278179999994,None,289.42278179999994,None,289.42278179999994,None,289.42278179999994,None,289.42278179999994,None,a,1,0.44510340000033466,289.42278179999994,None,,,,,,,,,,,,,2,001,2022_Aug_05_1800,Flanker,2021.2.0,240.0954619558475,
neutral left,0,a,neutral.png,neutral.png,neutral.png,left_arrow.png,neutral.png,neutral.png,neutral.png,,,,,,,,,,,,,4,0,24,4,,,,,289.88172699999996,None,,,,,,,,,,,,,,,,,,,,,,,,,,,,,,290.8956545000001,None,290.8956545000001,None,290.8956545000001,None,290.8956545000001,None,290.8956545000001,None,290.8956545000001,None,290.8956545000001,None,a,1,0.3964169999999285,290.8956545000001,None,,,,,,,,,,,,,2,001,2022_Aug_05_1800,Flanker,2021.2.0,240.0954619558475,
congruent-left.jpg,1,a,left_arrow.png,left_arrow.png,left_arrow.png,left_arrow.png,left_arrow.png,left_arrow.png,left_arrow.png,,,,,,,,,,,,,4,1,25,0,,,,,291.3044949,None,,,,,,,,,,,,,,,,,,,,,,,,,,,,,,292.3174848999997,None,292.3174848999997,None,292.3174848999997,None,292.3174848999997,None,292.3174848999997,None,292.3174848999997,None,292.3174848999997,None,a,1,0.4227891999998974,292.3174848999997,None,,,,,,,,,,,,,2,001,2022_Aug_05_1800,Flanker,2021.2.0,240.0954619558475,
neutral right,0,k,neutral.png,neutral.png,neutral.png,right_arrow.png,neutral.png,neutral.png,neutral.png,,,,,,,,,,,,,4,2,26,5,,,,,292.76005799999984,None,,,,,,,,,,,,,,,,,,,,,,,,,,,,,,293.7690284,None,293.7690284,None,293.7690284,None,293.7690284,None,293.7690284,None,293.7690284,None,293.7690284,None,k,1,0.3874939999996059,293.7690284,None,,,,,,,,,,,,,2,001,2022_Aug_05_1800,Flanker,2021.2.0,240.0954619558475,
incongruent-right.jpg,0,k,left_arrow.png,left_arrow.png,left_arrow.png,right_arrow.png,left_arrow.png,left_arrow.png,left_arrow.png,,,,,,,,,,,,,4,3,27,3,,,,,294.1694411999997,None,,,,,,,,,,,,,,,,,,,,,,,,,,,,,,295.1830092,None,295.1830092,None,295.1830092,None,295.1830092,None,295.1830092,None,295.1830092,None,295.1830092,None,k,1,0.4376647999997658,295.1830092,None,,,,,,,,,,,,,2,001,2022_Aug_05_1800,Flanker,2021.2.0,240.0954619558475,
neutral left,0,a,neutral.png,neutral.png,neutral.png,left_arrow.png,neutral.png,neutral.png,neutral.png,,,,,,,,,,,,,4,4,28,4,,,,,295.6335011000001,None,,,,,,,,,,,,,,,,,,,,,,,,,,,,,,296.64289359999975,None,296.64289359999975,None,296.64289359999975,None,296.64289359999975,None,296.64289359999975,None,296.64289359999975,None,296.64289359999975,None,a,1,0.4099471999998059,296.64289359999975,None,,,,,,,,,,,,,2,001,2022_Aug_05_1800,Flanker,2021.2.0,240.0954619558475,
neutral left,0,a,neutral.png,neutral.png,neutral.png,left_arrow.png,neutral.png,neutral.png,neutral.png,,,,,,,,,,,,,4,5,29,4,,,,,297.0683389999999,None,,,,,,,,,,,,,,,,,,,,,,,,,,,,,,298.0819335000001,None,298.0819335000001,None,298.0819335000001,None,298.0819335000001,None,298.0819335000001,None,298.0819335000001,None,298.0819335000001,None,a,1,0.40311949999977514,298.0819335000001,None,,,,,,,,,,,,,2,001,2022_Aug_05_1800,Flanker,2021.2.0,240.0954619558475,
neutral left,0,a,neutral.png,neutral.png,neutral.png,left_arrow.png,neutral.png,neutral.png,neutral.png,,,,,,,,,,,,,5,0,30,4,,,,,298.4992503999997,None,,,,,,,,,,,,,,,,,,,,,,,,,,,,,,299.50862000000006,None,299.50862000000006,None,299.50862000000006,None,299.50862000000006,None,299.50862000000006,None,299.50862000000006,None,299.50862000000006,None,a,1,0.41682529999980034,299.50862000000006,None,,,,,,,,,,,,,2,001,2022_Aug_05_1800,Flanker,2021.2.0,240.0954619558475,
neutral right,0,k,neutral.png,neutral.png,neutral.png,right_arrow.png,neutral.png,neutral.png,neutral.png,,,,,,,,,,,,,5,1,31,5,,,,,299.9426794000001,None,,,,,,,,,,,,,,,,,,,,,,,,,,,,,,300.95607870000003,None,300.95607870000003,None,300.95607870000003,None,300.95607870000003,None,300.95607870000003,None,300.95607870000003,None,300.95607870000003,None,k,1,0.3853438000001006,300.95607870000003,None,,,,,,,,,,,,,2,001,2022_Aug_05_1800,Flanker,2021.2.0,240.0954619558475,
congruent-right.jpg,1,k,right_arrow.png,right_arrow.png,right_arrow.png,right_arrow.png,right_arrow.png,right_arrow.png,right_arrow.png,,,,,,,,,,,,,5,2,32,2,,,,,301.35622490000014,None,,,,,,,,,,,,,,,,,,,,,,,,,,,,,,302.3701338999999,None,302.3701338999999,None,302.3701338999999,None,302.3701338999999,None,302.3701338999999,None,302.3701338999999,None,302.3701338999999,None,k,1,0.45149250000031316,302.3701338999999,None,,,,,,,,,,,,,2,001,2022_Aug_05_1800,Flanker,2021.2.0,240.0954619558475,
congruent-left.jpg,1,a,left_arrow.png,left_arrow.png,left_arrow.png,left_arrow.png,left_arrow.png,left_arrow.png,left_arrow.png,,,,,,,,,,,,,5,3,33,0,,,,,302.8372433999998,None,,,,,,,,,,,,,,,,,,,,,,,,,,,,,,303.8508029999998,None,303.8508029999998,None,303.8508029999998,None,303.8508029999998,None,303.8508029999998,None,303.8508029999998,None,303.8508029999998,None,a,1,0.36298759999999675,303.8508029999998,None,,,,,,,,,,,,,2,001,2022_Aug_05_1800,Flanker,2021.2.0,240.0954619558475,
neutral right,0,k,neutral.png,neutral.png,neutral.png,right_arrow.png,neutral.png,neutral.png,neutral.png,,,,,,,,,,,,,5,4,34,5,,,,,304.2260597999998,None,,,,,,,,,,,,,,,,,,,,,,,,,,,,,,305.2395180999997,None,305.2395180999997,None,305.2395180999997,None,305.2395180999997,None,305.2395180999997,None,305.2395180999997,None,305.2395180999997,None,k,1,0.3984698999997818,305.2395180999997,None,,,,,,,,,,,,,2,001,2022_Aug_05_1800,Flanker,2021.2.0,240.0954619558475,
congruent-right.jpg,1,k,right_arrow.png,right_arrow.png,right_arrow.png,right_arrow.png,right_arrow.png,right_arrow.png,right_arrow.png,,,,,,,,,,,,,5,5,35,2,,,,,305.65663189999987,None,,,,,,,,,,,,,,,,,,,,,,,,,,,,,,306.6705234000001,None,306.6705234000001,None,306.6705234000001,None,306.6705234000001,None,306.6705234000001,None,306.6705234000001,None,306.6705234000001,None,k,1,0.41605669999989914,306.6705234000001,None,,,,,,,,,,,,,2,001,2022_Aug_05_1800,Flanker,2021.2.0,240.0954619558475,
incongruent-left.jpg,0,a,right_arrow.png,right_arrow.png,right_arrow.png,left_arrow.png,right_arrow.png,right_arrow.png,right_arrow.png,,,,,,,,,,,,,6,0,36,1,,,,,307.10397869999997,None,,,,,,,,,,,,,,,,,,,,,,,,,,,,,,308.11753339999996,None,308.11753339999996,None,308.11753339999996,None,308.11753339999996,None,308.11753339999996,None,308.11753339999996,None,308.11753339999996,None,a,1,0.4488386999996692,308.11753339999996,None,,,,,,,,,,,,,2,001,2022_Aug_05_1800,Flanker,2021.2.0,240.0954619558475,
incongruent-right.jpg,0,k,left_arrow.png,left_arrow.png,left_arrow.png,right_arrow.png,left_arrow.png,left_arrow.png,left_arrow.png,,,,,,,,,,,,,6,1,37,3,,,,,308.58469620000005,None,,,,,,,,,,,,,,,,,,,,,,,,,,,,,,309.59438409999984,None,309.59438409999984,None,309.59438409999984,None,309.59438409999984,None,309.59438409999984,None,309.59438409999984,None,309.59438409999984,None,k,1,0.4681768000000375,309.59438409999984,None,,,,,,,,,,,,,2,001,2022_Aug_05_1800,Flanker,2021.2.0,240.0954619558475,
incongruent-right.jpg,0,k,left_arrow.png,left_arrow.png,left_arrow.png,right_arrow.png,left_arrow.png,left_arrow.png,left_arrow.png,,,,,,,,,,,,,6,2,38,3,,,,,310.0780168000001,None,,,,,,,,,,,,,,,,,,,,,,,,,,,,,,311.0831681999998,None,311.0831681999998,None,311.0831681999998,None,311.0831681999998,None,311.0831681999998,None,311.0831681999998,None,311.0831681999998,None,k,1,0.4755990000003294,311.0831681999998,None,,,,,,,,,,,,,2,001,2022_Aug_05_1800,Flanker,2021.2.0,240.0954619558475,
congruent-right.jpg,1,k,right_arrow.png,right_arrow.png,right_arrow.png,right_arrow.png,right_arrow.png,right_arrow.png,right_arrow.png,,,,,,,,,,,,,6,3,39,2,,,,,311.5753645,None,,,,,,,,,,,,,,,,,,,,,,,,,,,,,,312.58913059999986,None,312.58913059999986,None,312.58913059999986,None,312.58913059999986,None,312.58913059999986,None,312.58913059999986,None,312.58913059999986,None,k,1,0.42584399999987,312.58913059999986,None,,,,,,,,,,,,,2,001,2022_Aug_05_1800,Flanker,2021.2.0,240.0954619558475,
neutral left,0,a,neutral.png,neutral.png,neutral.png,left_arrow.png,neutral.png,neutral.png,neutral.png,,,,,,,,,,,,,6,4,40,4,,,,,313.03107379999983,None,,,,,,,,,,,,,,,,,,,,,,,,,,,,,,314.04047809999975,None,314.04047809999975,None,314.04047809999975,None,314.04047809999975,None,314.04047809999975,None,314.04047809999975,None,314.04047809999975,None,a,1,0.4946982999999818,314.04047809999975,None,,,,,,,,,,,,,2,001,2022_Aug_05_1800,Flanker,2021.2.0,240.0954619558475,
neutral left,0,a,neutral.png,neutral.png,neutral.png,left_arrow.png,neutral.png,neutral.png,neutral.png,,,,,,,,,,,,,6,5,41,4,,,,,314.54933630000005,None,,,,,,,,,,,,,,,,,,,,,,,,,,,,,,315.5587283,None,315.5587283,None,315.5587283,None,315.5587283,None,315.5587283,None,315.5587283,None,315.5587283,None,a,1,0.4726221999999325,315.5587283,None,,,,,,,,,,,,,2,001,2022_Aug_05_1800,Flanker,2021.2.0,240.0954619558475,
neutral right,0,k,neutral.png,neutral.png,neutral.png,right_arrow.png,neutral.png,neutral.png,neutral.png,,,,,,,,,,,,,7,0,42,5,,,,,316.04265510000005,None,,,,,,,,,,,,,,,,,,,,,,,,,,,,,,317.06058010000015,None,317.06058010000015,None,317.06058010000015,None,317.06058010000015,None,317.06058010000015,None,317.06058010000015,None,317.06058010000015,None,k,1,0.41097629999967467,317.06058010000015,None,,,,,,,,,,,,,2,001,2022_Aug_05_1800,Flanker,2021.2.0,240.0954619558475,
incongruent-left.jpg,0,a,right_arrow.png,right_arrow.png,right_arrow.png,left_arrow.png,right_arrow.png,right_arrow.png,right_arrow.png,,,,,,,,,,,,,7,1,43,1,,,,,317.4857883999998,None,,,,,,,,,,,,,,,,,,,,,,,,,,,,,,318.4993604000001,None,318.4993604000001,None,318.4993604000001,None,318.4993604000001,None,318.4993604000001,None,318.4993604000001,None,318.4993604000001,None,a,1,0.44439459999966857,318.4993604000001,None,,,,,,,,,,,,,2,001,2022_Aug_05_1800,Flanker,2021.2.0,240.0954619558475,
congruent-right.jpg,1,k,right_arrow.png,right_arrow.png,right_arrow.png,right_arrow.png,right_arrow.png,right_arrow.png,right_arrow.png,,,,,,,,,,,,,7,2,44,2,,,,,318.95852560000003,None,,,,,,,,,,,,,,,,,,,,,,,,,,,,,,319.97202789999983,None,319.97202789999983,None,319.97202789999983,None,319.97202789999983,None,319.97202789999983,None,319.97202789999983,None,319.97202789999983,None,k,1,0.4359491000000162,319.97202789999983,None,,,,,,,,,,,,,2,001,2022_Aug_05_1800,Flanker,2021.2.0,240.0954619558475,
incongruent-right.jpg,0,k,left_arrow.png,left_arrow.png,left_arrow.png,right_arrow.png,left_arrow.png,left_arrow.png,left_arrow.png,,,,,,,,,,,,,7,3,45,3,,,,,320.4222380000001,None,,,,,,,,,,,,,,,,,,,,,,,,,,,,,,321.43163060000006,None,321.43163060000006,None,321.43163060000006,None,321.43163060000006,None,321.43163060000006,None,321.43163060000006,None,321.43163060000006,None,k,1,0.4485124000002543,321.43163060000006,None,,,,,,,,,,,,,2,001,2022_Aug_05_1800,Flanker,2021.2.0,240.0954619558475,
congruent-right.jpg,1,k,right_arrow.png,right_arrow.png,right_arrow.png,right_arrow.png,right_arrow.png,right_arrow.png,right_arrow.png,,,,,,,,,,,,,7,4,46,2,,,,,321.8988065999997,None,,,,,,,,,,,,,,,,,,,,,,,,,,,,,,322.91654419999986,None,322.91654419999986,None,322.91654419999986,None,322.91654419999986,None,322.91654419999986,None,322.91654419999986,None,322.91654419999986,None,k,1,0.3877857000002223,322.91654419999986,None,,,,,,,,,,,,,2,001,2022_Aug_05_1800,Flanker,2021.2.0,240.0954619558475,
congruent-left.jpg,1,a,left_arrow.png,left_arrow.png,left_arrow.png,left_arrow.png,left_arrow.png,left_arrow.png,left_arrow.png,,,,,,,,,,,,,7,5,47,0,,,,,323.3169829999997,None,,,,,,,,,,,,,,,,,,,,,,,,,,,,,,324.3265685000001,None,324.3265685000001,None,324.3265685000001,None,324.3265685000001,None,324.3265685000001,None,324.3265685000001,None,324.3265685000001,None,a,1,0.45834400000012465,324.3265685000001,None,,,,,,,,,,,,,2,001,2022_Aug_05_1800,Flanker,2021.2.0,240.0954619558475,
,,,,,,,,,,,,,,,,,,,,,,,,,,,,,,,,,,,,,,,,,,,,,,,,,,,,,,,,,,,,,,,,,,,,,,,,,,,,,,,,324.8103123000001,None,space,2.3905463000000964,324.8103123000001,None,,,,,,,2,001,2022_Aug_05_1800,Flanker,2021.2.0,240.0954619558475,
,,,,,,,,,,,,,,,,,,,,,,,,,,,,,,,,,,,,,,,,,,,,,,,,,,,,,,,,,,,,,,,,,,,,,,,,,,,,,,,,,,,,,,327.21277199999986,None,space,3.0606981000000815,327.21277199999986,None,2,001,2022_Aug_05_1800,Flanker,2021.2.0,240.0954619558475,
