images,congruentcy,corrAns,arrow_1,arrow_2,arrow_3,target,arrow_5,arrow_6,arrow_7,practice.thisRepN,practice.thisTrialN,practice.thisN,practice.thisIndex,trials.thisRepN,trials.thisTrialN,trials.thisN,trials.thisIndex,trials_2.thisRepN,trials_2.thisTrialN,trials_2.thisN,trials_2.thisIndex,trials_3.thisRepN,trials_3.thisTrialN,trials_3.thisN,trials_3.thisIndex,instr_text.started,instr_text.stopped,instr_resp.keys,instr_resp.rt,polygon.started,polygon.stopped,arrow1_.started,arrow1_.stopped,arrow2_.started,arrow2_.stopped,arrow3_.started,arrow3_.stopped,target_p.started,target_p.stopped,arrow5_.started,arrow5_.stopped,arrow6_.started,arrow6_.stopped,arrow7_.started,arrow7_.stopped,key_resp_P.keys,key_resp_P.corr,key_resp_P.rt,key_resp_P.started,key_resp_P.stopped,text_2.started,text_2.stopped,text_3.started,text_3.stopped,text_4.started,text_4.stopped,key_resp_2.keys,key_resp_2.rt,key_resp_2.started,key_resp_2.stopped,arrow1.started,arrow1.stopped,arrow2.started,arrow2.stopped,arrow3.started,arrow3.stopped,target_t.started,target_t.stopped,arrow5.started,arrow5.stopped,arrow6.started,arrow6.stopped,arrow7.started,arrow7.stopped,key_resp.keys,key_resp.corr,key_resp.rt,key_resp.started,key_resp.stopped,text_5.started,text_5.stopped,key_resp_3.keys,key_resp_3.rt,key_resp_3.started,key_resp_3.stopped,text_6.started,text_6.stopped,key_resp_4.keys,key_resp_4.rt,key_resp_4.started,key_resp_4.stopped,participant,session,date,expName,psychopyVersion,frameRate,
,,,,,,,,,,,,,,,,,,,,,,,,,,9.661513500000183,None,space,15.7998434000001,,,,,,,,,,,,,,,,,,,,,,,,,,,,,,,,,,,,,,,,,,,,,,,,,,,,,,,,,,,,,,,3,001,2022_Aug_05_1807,Flanker,2021.2.0,239.86509986597258,
neutral left,0,a,neutral.png,neutral.png,neutral.png,left_arrow.png,neutral.png,neutral.png,neutral.png,0,0,0,4,,,,,,,,,,,,,,,,,25.487709500000165,None,26.48882820000017,None,26.48882820000017,None,26.48882820000017,None,26.48882820000017,None,26.48882820000017,None,26.48882820000017,None,26.48882820000017,None,a,1,1.404583300000013,26.48882820000017,None,27.915254300000015,None,,,,,,,,,,,,,,,,,,,,,,,,,,,,,,,,,,,,,,,,3,001,2022_Aug_05_1807,Flanker,2021.2.0,239.86509986597258,
congruent-right.jpg,1,k,right_arrow.png,right_arrow.png,right_arrow.png,right_arrow.png,right_arrow.png,right_arrow.png,right_arrow.png,0,1,1,2,,,,,,,,,,,,,,,,,29.408592300000237,None,30.417921000000206,None,30.417921000000206,None,30.417921000000206,None,30.417921000000206,None,30.417921000000206,None,30.417921000000206,None,30.417921000000206,None,k,1,0.6839297000001352,30.417921000000206,None,31.118674100000135,None,,,,,,,,,,,,,,,,,,,,,,,,,,,,,,,,,,,,,,,,3,001,2022_Aug_05_1807,Flanker,2021.2.0,239.86509986597258,
incongruent-right.jpg,0,k,left_arrow.png,left_arrow.png,left_arrow.png,right_arrow.png,left_arrow.png,left_arrow.png,left_arrow.png,0,2,2,3,,,,,,,,,,,,,,,,,32.620459199999914,None,33.629938100000345,None,33.629938100000345,None,33.629938100000345,None,33.629938100000345,None,33.629938100000345,None,33.629938100000345,None,33.629938100000345,None,k,1,0.9603485999996337,33.629938100000345,None,34.60568689999991,None,,,,,,,,,,,,,,,,,,,,,,,,,,,,,,,,,,,,,,,,3,001,2022_Aug_05_1807,Flanker,2021.2.0,239.86509986597258,
congruent-right.jpg,1,k,right_arrow.png,right_arrow.png,right_arrow.png,right_arrow.png,right_arrow.png,right_arrow.png,right_arrow.png,0,3,3,2,,,,,,,,,,,,,,,,,36.11174690000007,None,37.11667830000033,None,37.11667830000033,None,37.11667830000033,None,37.11667830000033,None,37.11667830000033,None,37.11667830000033,None,37.11667830000033,None,k,1,0.746060199999647,37.11667830000033,None,37.87581369999998,None,,,,,,,,,,,,,,,,,,,,,,,,,,,,,,,,,,,,,,,,3,001,2022_Aug_05_1807,Flanker,2021.2.0,239.86509986597258,
congruent-left.jpg,1,a,left_arrow.png,left_arrow.png,left_arrow.png,left_arrow.png,left_arrow.png,left_arrow.png,left_arrow.png,0,4,4,0,,,,,,,,,,,,,,,,,39.37780180000027,None,40.39097790000005,None,40.39097790000005,None,40.39097790000005,None,40.39097790000005,None,40.39097790000005,None,40.39097790000005,None,40.39097790000005,None,a,1,0.6002399000003606,40.39097790000005,None,41.00831169999992,None,,,,,,,,,,,,,,,,,,,,,,,,,,,,,,,,,,,,,,,,3,001,2022_Aug_05_1807,Flanker,2021.2.0,239.86509986597258,
congruent-left.jpg,1,a,left_arrow.png,left_arrow.png,left_arrow.png,left_arrow.png,left_arrow.png,left_arrow.png,left_arrow.png,0,5,5,0,,,,,,,,,,,,,,,,,42.50988630000029,None,43.523696799999925,None,43.523696799999925,None,43.523696799999925,None,43.523696799999925,None,43.523696799999925,None,43.523696799999925,None,43.523696799999925,None,a,1,0.4438455999998041,43.523696799999925,None,43.982285500000216,None,,,,,,,,,,,,,,,,,,,,,,,,,,,,,,,,,,,,,,,,3,001,2022_Aug_05_1807,Flanker,2021.2.0,239.86509986597258,
incongruent-right.jpg,0,k,left_arrow.png,left_arrow.png,left_arrow.png,right_arrow.png,left_arrow.png,left_arrow.png,left_arrow.png,1,0,6,3,,,,,,,,,,,,,,,,,45.484336800000165,None,46.49361940000017,None,46.49361940000017,None,46.49361940000017,None,46.49361940000017,None,46.49361940000017,None,46.49361940000017,None,46.49361940000017,None,k,1,0.46636880000005476,46.49361940000017,None,46.97711890000028,None,,,,,,,,,,,,,,,,,,,,,,,,,,,,,,,,,,,,,,,,3,001,2022_Aug_05_1807,Flanker,2021.2.0,239.86509986597258,
neutral right,0,k,neutral.png,neutral.png,neutral.png,right_arrow.png,neutral.png,neutral.png,neutral.png,1,1,7,5,,,,,,,,,,,,,,,,,48.48286770000004,None,49.48809789999996,None,49.48809789999996,None,49.48809789999996,None,49.48809789999996,None,49.48809789999996,None,49.48809789999996,None,49.48809789999996,None,k,1,0.4165431000001263,49.48809789999996,None,49.9218963000003,None,,,,,,,,,,,,,,,,,,,,,,,,,,,,,,,,,,,,,,,,3,001,2022_Aug_05_1807,Flanker,2021.2.0,239.86509986597258,
incongruent-left.jpg,0,a,right_arrow.png,right_arrow.png,right_arrow.png,left_arrow.png,right_arrow.png,right_arrow.png,right_arrow.png,1,2,8,1,,,,,,,,,,,,,,,,,51.42370680000022,None,52.43339730000025,None,52.43339730000025,None,52.43339730000025,None,52.43339730000025,None,52.43339730000025,None,52.43339730000025,None,52.43339730000025,None,a,1,0.40765190000001894,52.43339730000025,None,52.858416900000066,None,,,,,,,,,,,,,,,,,,,,,,,,,,,,,,,,,,,,,,,,3,001,2022_Aug_05_1807,Flanker,2021.2.0,239.86509986597258,
congruent-right.jpg,1,k,right_arrow.png,right_arrow.png,right_arrow.png,right_arrow.png,right_arrow.png,right_arrow.png,right_arrow.png,1,3,9,2,,,,,,,,,,,,,,,,,54.364328600000135,None,55.37387740000031,None,55.37387740000031,None,55.37387740000031,None,55.37387740000031,None,55.37387740000031,None,55.37387740000031,None,55.37387740000031,None,k,1,0.2914818999997806,55.37387740000031,None,55.682523400000264,None,,,,,,,,,,,,,,,,,,,,,,,,,,,,,,,,,,,,,,,,3,001,2022_Aug_05_1807,Flanker,2021.2.0,239.86509986597258,
incongruent-left.jpg,0,a,right_arrow.png,right_arrow.png,right_arrow.png,left_arrow.png,right_arrow.png,right_arrow.png,right_arrow.png,1,4,10,1,,,,,,,,,,,,,,,,,57.18828260000009,None,58.192910799999936,None,58.192910799999936,None,58.192910799999936,None,58.192910799999936,None,58.192910799999936,None,58.192910799999936,None,58.192910799999936,None,a,1,0.2885601999996652,58.192910799999936,None,58.49345910000011,None,,,,,,,,,,,,,,,,,,,,,,,,,,,,,,,,,,,,,,,,3,001,2022_Aug_05_1807,Flanker,2021.2.0,239.86509986597258,
incongruent-right.jpg,0,k,left_arrow.png,left_arrow.png,left_arrow.png,right_arrow.png,left_arrow.png,left_arrow.png,left_arrow.png,1,5,11,3,,,,,,,,,,,,,,,,,59.99966459999996,None,61.00446959999999,None,61.00446959999999,None,61.00446959999999,None,61.00446959999999,None,61.00446959999999,None,61.00446959999999,None,61.00446959999999,None,k,1,0.3893967000003613,61.00446959999999,None,61.405291800000214,None,,,,,,,,,,,,,,,,,,,,,,,,,,,,,,,,,,,,,,,,3,001,2022_Aug_05_1807,Flanker,2021.2.0,239.86509986597258,
neutral right,0,k,neutral.png,neutral.png,neutral.png,right_arrow.png,neutral.png,neutral.png,neutral.png,2,0,12,5,,,,,,,,,,,,,,,,,62.90646400000014,None,63.91588640000009,None,63.91588640000009,None,63.91588640000009,None,63.91588640000009,None,63.91588640000009,None,63.91588640000009,None,63.91588640000009,None,k,1,0.37439969999968525,63.91588640000009,None,64.30795810000018,None,,,,,,,,,,,,,,,,,,,,,,,,,,,,,,,,,,,,,,,,3,001,2022_Aug_05_1807,Flanker,2021.2.0,239.86509986597258,
neutral right,0,k,neutral.png,neutral.png,neutral.png,right_arrow.png,neutral.png,neutral.png,neutral.png,2,1,13,5,,,,,,,,,,,,,,,,,65.81401290000031,None,66.81896750000033,None,66.81896750000033,None,66.81896750000033,None,66.81896750000033,None,66.81896750000033,None,66.81896750000033,None,66.81896750000033,None,k,1,0.3436727999996947,66.81896750000033,None,67.17765660000032,None,,,,,,,,,,,,,,,,,,,,,,,,,,,,,,,,,,,,,,,,3,001,2022_Aug_05_1807,Flanker,2021.2.0,239.86509986597258,
incongruent-right.jpg,0,k,left_arrow.png,left_arrow.png,left_arrow.png,right_arrow.png,left_arrow.png,left_arrow.png,left_arrow.png,2,2,14,3,,,,,,,,,,,,,,,,,68.68371930000012,None,69.68894350000028,None,69.68894350000028,None,69.68894350000028,None,69.68894350000028,None,69.68894350000028,None,69.68894350000028,None,69.68894350000028,None,k,1,0.47441080000044167,69.68894350000028,None,70.1809088,None,,,,,,,,,,,,,,,,,,,,,,,,,,,,,,,,,,,,,,,,3,001,2022_Aug_05_1807,Flanker,2021.2.0,239.86509986597258,
neutral left,0,a,neutral.png,neutral.png,neutral.png,left_arrow.png,neutral.png,neutral.png,neutral.png,2,3,15,4,,,,,,,,,,,,,,,,,71.6827045,None,72.6918284000003,None,72.6918284000003,None,72.6918284000003,None,72.6918284000003,None,72.6918284000003,None,72.6918284000003,None,72.6918284000003,None,a,1,0.39959630000021207,72.6918284000003,None,73.10934010000028,None,,,,,,,,,,,,,,,,,,,,,,,,,,,,,,,,,,,,,,,,3,001,2022_Aug_05_1807,Flanker,2021.2.0,239.86509986597258,
neutral right,0,k,neutral.png,neutral.png,neutral.png,right_arrow.png,neutral.png,neutral.png,neutral.png,2,4,16,5,,,,,,,,,,,,,,,,,74.61470839999993,None,75.62436620000017,None,75.62436620000017,None,75.62436620000017,None,75.62436620000017,None,75.62436620000017,None,75.62436620000017,None,75.62436620000017,None,k,1,0.3158167000001413,75.62436620000017,None,75.95780120000018,None,,,,,,,,,,,,,,,,,,,,,,,,,,,,,,,,,,,,,,,,3,001,2022_Aug_05_1807,Flanker,2021.2.0,239.86509986597258,
neutral left,0,a,neutral.png,neutral.png,neutral.png,left_arrow.png,neutral.png,neutral.png,neutral.png,2,5,17,4,,,,,,,,,,,,,,,,,77.4635545000001,None,78.47302530000024,None,78.47302530000024,None,78.47302530000024,None,78.47302530000024,None,78.47302530000024,None,78.47302530000024,None,78.47302530000024,None,a,1,0.33917220000012094,78.47302530000024,None,78.83206270000028,None,,,,,,,,,,,,,,,,,,,,,,,,,,,,,,,,,,,,,,,,3,001,2022_Aug_05_1807,Flanker,2021.2.0,239.86509986597258,
neutral left,0,a,neutral.png,neutral.png,neutral.png,left_arrow.png,neutral.png,neutral.png,neutral.png,3,0,18,4,,,,,,,,,,,,,,,,,80.33748700000024,None,81.34289070000023,None,81.34289070000023,None,81.34289070000023,None,81.34289070000023,None,81.34289070000023,None,81.34289070000023,None,81.34289070000023,None,a,1,0.39769650000016554,81.34289070000023,None,81.75173339999992,None,,,,,,,,,,,,,,,,,,,,,,,,,,,,,,,,,,,,,,,,3,001,2022_Aug_05_1807,Flanker,2021.2.0,239.86509986597258,
congruent-left.jpg,1,a,left_arrow.png,left_arrow.png,left_arrow.png,left_arrow.png,left_arrow.png,left_arrow.png,left_arrow.png,3,1,19,0,,,,,,,,,,,,,,,,,83.2575197000001,None,84.26239579999992,None,84.26239579999992,None,84.26239579999992,None,84.26239579999992,None,84.26239579999992,None,84.26239579999992,None,84.26239579999992,None,a,1,0.41457079999963753,84.26239579999992,None,84.68787780000002,None,,,,,,,,,,,,,,,,,,,,,,,,,,,,,,,,,,,,,,,,3,001,2022_Aug_05_1807,Flanker,2021.2.0,239.86509986597258,
congruent-right.jpg,1,k,right_arrow.png,right_arrow.png,right_arrow.png,right_arrow.png,right_arrow.png,right_arrow.png,right_arrow.png,3,2,20,2,,,,,,,,,,,,,,,,,86.19361570000001,None,87.20302200000015,None,87.20302200000015,None,87.20302200000015,None,87.20302200000015,None,87.20302200000015,None,87.20302200000015,None,87.20302200000015,None,k,1,0.39434140000003026,87.20302200000015,None,87.61178430000018,None,,,,,,,,,,,,,,,,,,,,,,,,,,,,,,,,,,,,,,,,3,001,2022_Aug_05_1807,Flanker,2021.2.0,239.86509986597258,
congruent-left.jpg,1,a,left_arrow.png,left_arrow.png,left_arrow.png,left_arrow.png,left_arrow.png,left_arrow.png,left_arrow.png,3,3,21,0,,,,,,,,,,,,,,,,,89.11761270000034,None,90.12305629999992,None,90.12305629999992,None,90.12305629999992,None,90.12305629999992,None,90.12305629999992,None,90.12305629999992,None,90.12305629999992,None,a,1,0.3066980999997213,90.12305629999992,None,90.4481281000003,None,,,,,,,,,,,,,,,,,,,,,,,,,,,,,,,,,,,,,,,,3,001,2022_Aug_05_1807,Flanker,2021.2.0,239.86509986597258,
incongruent-left.jpg,0,a,right_arrow.png,right_arrow.png,right_arrow.png,left_arrow.png,right_arrow.png,right_arrow.png,right_arrow.png,3,4,22,1,,,,,,,,,,,,,,,,,91.95387930000015,None,92.95494670000016,None,92.95494670000016,None,92.95494670000016,None,92.95494670000016,None,92.95494670000016,None,92.95494670000016,None,92.95494670000016,None,a,1,0.37917560000005324,92.95494670000016,None,93.34702640000023,None,,,,,,,,,,,,,,,,,,,,,,,,,,,,,,,,,,,,,,,,3,001,2022_Aug_05_1807,Flanker,2021.2.0,239.86509986597258,
incongruent-left.jpg,0,a,right_arrow.png,right_arrow.png,right_arrow.png,left_arrow.png,right_arrow.png,right_arrow.png,right_arrow.png,3,5,23,1,,,,,,,,,,,,,,,,,94.84863440000026,None,95.85827890000019,None,95.85827890000019,None,95.85827890000019,None,95.85827890000019,None,95.85827890000019,None,95.85827890000019,None,95.85827890000019,None,a,1,0.4682617999997092,95.85827890000019,None,96.34185969999999,None,,,,,,,,,,,,,,,,,,,,,,,,,,,,,,,,,,,,,,,,3,001,2022_Aug_05_1807,Flanker,2021.2.0,239.86509986597258,
,,,,,,,,,,,,,,,,,,,,,,,,,,,,,,,,,,,,,,,,,,,,,,,,,,,,,97.86016950000021,None,99.84573390000014,None,space,8.066501199999948,99.84573390000014,None,,,,,,,,,,,,,,,,,,,,,,,,,,,,,,,,3,001,2022_Aug_05_1807,Flanker,2021.2.0,239.86509986597258,
neutral right,0,k,neutral.png,neutral.png,neutral.png,right_arrow.png,neutral.png,neutral.png,neutral.png,,,,,0,0,0,5,,,,,,,,,,,,,107.93339240000023,None,,,,,,,,,,,,,,,,,,,,,,,,,,,,,,108.93854379999993,None,108.93854379999993,None,108.93854379999993,None,108.93854379999993,None,108.93854379999993,None,108.93854379999993,None,108.93854379999993,None,k,1,0.7098155000003317,108.93854379999993,None,,,,,,,,,,,,,3,001,2022_Aug_05_1807,Flanker,2021.2.0,239.86509986597258,
congruent-right.jpg,1,k,right_arrow.png,right_arrow.png,right_arrow.png,right_arrow.png,right_arrow.png,right_arrow.png,right_arrow.png,,,,,0,1,1,2,,,,,,,,,,,,,109.66432000000032,None,,,,,,,,,,,,,,,,,,,,,,,,,,,,,,110.68230350000022,None,110.68230350000022,None,110.68230350000022,None,110.68230350000022,None,110.68230350000022,None,110.68230350000022,None,110.68230350000022,None,k,1,0.35025850000010905,110.68230350000022,None,,,,,,,,,,,,,3,001,2022_Aug_05_1807,Flanker,2021.2.0,239.86509986597258,
congruent-right.jpg,1,k,right_arrow.png,right_arrow.png,right_arrow.png,right_arrow.png,right_arrow.png,right_arrow.png,right_arrow.png,,,,,0,2,2,2,,,,,,,,,,,,,111.04910450000034,None,,,,,,,,,,,,,,,,,,,,,,,,,,,,,,112.06285040000012,None,112.06285040000012,None,112.06285040000012,None,112.06285040000012,None,112.06285040000012,None,112.06285040000012,None,112.06285040000012,None,k,1,0.32181879999961893,112.06285040000012,None,,,,,,,,,,,,,3,001,2022_Aug_05_1807,Flanker,2021.2.0,239.86509986597258,
neutral right,0,k,neutral.png,neutral.png,neutral.png,right_arrow.png,neutral.png,neutral.png,neutral.png,,,,,0,3,3,5,,,,,,,,,,,,,112.39638650000006,None,,,,,,,,,,,,,,,,,,,,,,,,,,,,,,113.40996020000011,None,113.40996020000011,None,113.40996020000011,None,113.40996020000011,None,113.40996020000011,None,113.40996020000011,None,113.40996020000011,None,k,1,0.31093090000013035,113.40996020000011,None,,,,,,,,,,,,,3,001,2022_Aug_05_1807,Flanker,2021.2.0,239.86509986597258,
incongruent-left.jpg,0,a,right_arrow.png,right_arrow.png,right_arrow.png,left_arrow.png,right_arrow.png,right_arrow.png,right_arrow.png,,,,,0,4,4,1,,,,,,,,,,,,,113.73530690000007,None,,,,,,,,,,,,,,,,,,,,,,,,,,,,,,114.74476529999993,None,114.74476529999993,None,114.74476529999993,None,114.74476529999993,None,114.74476529999993,None,114.74476529999993,None,114.74476529999993,None,a,1,0.3763183000000936,114.74476529999993,None,,,,,,,,,,,,,3,001,2022_Aug_05_1807,Flanker,2021.2.0,239.86509986597258,
neutral right,0,k,neutral.png,neutral.png,neutral.png,right_arrow.png,neutral.png,neutral.png,neutral.png,,,,,0,5,5,5,,,,,,,,,,,,,115.13680190000014,None,,,,,,,,,,,,,,,,,,,,,,,,,,,,,,116.1506975000002,None,116.1506975000002,None,116.1506975000002,None,116.1506975000002,None,116.1506975000002,None,116.1506975000002,None,116.1506975000002,None,k,1,0.36254550000012387,116.1506975000002,None,,,,,,,,,,,,,3,001,2022_Aug_05_1807,Flanker,2021.2.0,239.86509986597258,
neutral right,0,k,neutral.png,neutral.png,neutral.png,right_arrow.png,neutral.png,neutral.png,neutral.png,,,,,1,0,6,5,,,,,,,,,,,,,116.5260072000001,None,,,,,,,,,,,,,,,,,,,,,,,,,,,,,,117.5352269,None,117.5352269,None,117.5352269,None,117.5352269,None,117.5352269,None,117.5352269,None,117.5352269,None,k,1,0.3221846999999798,117.5352269,None,,,,,,,,,,,,,3,001,2022_Aug_05_1807,Flanker,2021.2.0,239.86509986597258,
incongruent-right.jpg,0,k,left_arrow.png,left_arrow.png,left_arrow.png,right_arrow.png,left_arrow.png,left_arrow.png,left_arrow.png,,,,,1,1,7,3,,,,,,,,,,,,,117.86881740000035,None,,,,,,,,,,,,,,,,,,,,,,,,,,,,,,118.88267680000035,None,118.88267680000035,None,118.88267680000035,None,118.88267680000035,None,118.88267680000035,None,118.88267680000035,None,118.88267680000035,None,k,1,0.575239700000111,118.88267680000035,None,,,,,,,,,,,,,3,001,2022_Aug_05_1807,Flanker,2021.2.0,239.86509986597258,
congruent-right.jpg,1,k,right_arrow.png,right_arrow.png,right_arrow.png,right_arrow.png,right_arrow.png,right_arrow.png,right_arrow.png,,,,,1,2,8,2,,,,,,,,,,,,,119.47466269999995,None,,,,,,,,,,,,,,,,,,,,,,,,,,,,,,120.48824319999994,None,120.48824319999994,None,120.48824319999994,None,120.48824319999994,None,120.48824319999994,None,120.48824319999994,None,120.48824319999994,None,k,1,0.3535764000002928,120.48824319999994,None,,,,,,,,,,,,,3,001,2022_Aug_05_1807,Flanker,2021.2.0,239.86509986597258,
neutral left,0,a,neutral.png,neutral.png,neutral.png,left_arrow.png,neutral.png,neutral.png,neutral.png,,,,,1,3,9,4,,,,,,,,,,,,,120.85530319999998,None,,,,,,,,,,,,,,,,,,,,,,,,,,,,,,121.86890080000012,None,121.86890080000012,None,121.86890080000012,None,121.86890080000012,None,121.86890080000012,None,121.86890080000012,None,121.86890080000012,None,a,1,0.38909560000001875,121.86890080000012,None,,,,,,,,,,,,,3,001,2022_Aug_05_1807,Flanker,2021.2.0,239.86509986597258,
neutral left,0,a,neutral.png,neutral.png,neutral.png,left_arrow.png,neutral.png,neutral.png,neutral.png,,,,,1,4,10,4,,,,,,,,,,,,,122.26938420000033,None,,,,,,,,,,,,,,,,,,,,,,,,,,,,,,123.2789915000003,None,123.2789915000003,None,123.2789915000003,None,123.2789915000003,None,123.2789915000003,None,123.2789915000003,None,123.2789915000003,None,a,1,0.3951944000000367,123.2789915000003,None,,,,,,,,,,,,,3,001,2022_Aug_05_1807,Flanker,2021.2.0,239.86509986597258,
incongruent-right.jpg,0,k,left_arrow.png,left_arrow.png,left_arrow.png,right_arrow.png,left_arrow.png,left_arrow.png,left_arrow.png,,,,,1,5,11,3,,,,,,,,,,,,,123.68749060000027,None,,,,,,,,,,,,,,,,,,,,,,,,,,,,,,124.7011192,None,124.7011192,None,124.7011192,None,124.7011192,None,124.7011192,None,124.7011192,None,124.7011192,None,k,1,0.589285000000018,124.7011192,None,,,,,,,,,,,,,3,001,2022_Aug_05_1807,Flanker,2021.2.0,239.86509986597258,
congruent-right.jpg,1,k,right_arrow.png,right_arrow.png,right_arrow.png,right_arrow.png,right_arrow.png,right_arrow.png,right_arrow.png,,,,,2,0,12,2,,,,,,,,,,,,,125.30174639999996,None,,,,,,,,,,,,,,,,,,,,,,,,,,,,,,126.31561770000008,None,126.31561770000008,None,126.31561770000008,None,126.31561770000008,None,126.31561770000008,None,126.31561770000008,None,126.31561770000008,None,k,1,0.43098680000002787,126.31561770000008,None,,,,,,,,,,,,,3,001,2022_Aug_05_1807,Flanker,2021.2.0,239.86509986597258,
neutral right,0,k,neutral.png,neutral.png,neutral.png,right_arrow.png,neutral.png,neutral.png,neutral.png,,,,,2,1,13,5,,,,,,,,,,,,,126.765985,None,,,,,,,,,,,,,,,,,,,,,,,,,,,,,,127.7793243000001,None,127.7793243000001,None,127.7793243000001,None,127.7793243000001,None,127.7793243000001,None,127.7793243000001,None,127.7793243000001,None,k,1,0.35947440000018105,127.7793243000001,None,,,,,,,,,,,,,3,001,2022_Aug_05_1807,Flanker,2021.2.0,239.86509986597258,
incongruent-left.jpg,0,a,right_arrow.png,right_arrow.png,right_arrow.png,left_arrow.png,right_arrow.png,right_arrow.png,right_arrow.png,,,,,2,2,14,1,,,,,,,,,,,,,128.1547869000001,None,,,,,,,,,,,,,,,,,,,,,,,,,,,,,,129.16826459999993,None,129.16826459999993,None,129.16826459999993,None,129.16826459999993,None,129.16826459999993,None,129.16826459999993,None,129.16826459999993,None,a,1,0.4507351000002018,129.16826459999993,None,,,,,,,,,,,,,3,001,2022_Aug_05_1807,Flanker,2021.2.0,239.86509986597258,
neutral left,0,a,neutral.png,neutral.png,neutral.png,left_arrow.png,neutral.png,neutral.png,neutral.png,,,,,2,3,15,4,,,,,,,,,,,,,129.63579909999999,None,,,,,,,,,,,,,,,,,,,,,,,,,,,,,,130.64484340000035,None,130.64484340000035,None,130.64484340000035,None,130.64484340000035,None,130.64484340000035,None,130.64484340000035,None,130.64484340000035,None,a,1,0.4383151000001817,130.64484340000035,None,,,,,,,,,,,,,3,001,2022_Aug_05_1807,Flanker,2021.2.0,239.86509986597258,
congruent-right.jpg,1,k,right_arrow.png,right_arrow.png,right_arrow.png,right_arrow.png,right_arrow.png,right_arrow.png,right_arrow.png,,,,,2,4,16,2,,,,,,,,,,,,,131.09530200000017,None,,,,,,,,,,,,,,,,,,,,,,,,,,,,,,132.10887730000013,None,132.10887730000013,None,132.10887730000013,None,132.10887730000013,None,132.10887730000013,None,132.10887730000013,None,132.10887730000013,None,k,1,0.39888989999963087,132.10887730000013,None,,,,,,,,,,,,,3,001,2022_Aug_05_1807,Flanker,2021.2.0,239.86509986597258,
neutral left,0,a,neutral.png,neutral.png,neutral.png,left_arrow.png,neutral.png,neutral.png,neutral.png,,,,,2,5,17,4,,,,,,,,,,,,,132.5260655000002,None,,,,,,,,,,,,,,,,,,,,,,,,,,,,,,133.53965229999994,None,133.53965229999994,None,133.53965229999994,None,133.53965229999994,None,133.53965229999994,None,133.53965229999994,None,133.53965229999994,None,a,1,0.38388380000014877,133.53965229999994,None,,,,,,,,,,,,,3,001,2022_Aug_05_1807,Flanker,2021.2.0,239.86509986597258,
incongruent-left.jpg,0,a,right_arrow.png,right_arrow.png,right_arrow.png,left_arrow.png,right_arrow.png,right_arrow.png,right_arrow.png,,,,,3,0,18,1,,,,,,,,,,,,,133.9400009000001,None,,,,,,,,,,,,,,,,,,,,,,,,,,,,,,134.95357850000028,None,134.95357850000028,None,134.95357850000028,None,134.95357850000028,None,134.95357850000028,None,134.95357850000028,None,134.95357850000028,None,a,1,0.47417429999995875,134.95357850000028,None,,,,,,,,,,,,,3,001,2022_Aug_05_1807,Flanker,2021.2.0,239.86509986597258,
congruent-right.jpg,1,k,right_arrow.png,right_arrow.png,right_arrow.png,right_arrow.png,right_arrow.png,right_arrow.png,right_arrow.png,,,,,3,1,19,2,,,,,,,,,,,,,135.44573979999996,None,,,,,,,,,,,,,,,,,,,,,,,,,,,,,,136.4554717000001,None,136.4554717000001,None,136.4554717000001,None,136.4554717000001,None,136.4554717000001,None,136.4554717000001,None,136.4554717000001,None,k,1,0.68453640000007,136.4554717000001,None,,,,,,,,,,,,,3,001,2022_Aug_05_1807,Flanker,2021.2.0,239.86509986597258,
neutral left,0,a,neutral.png,neutral.png,neutral.png,left_arrow.png,neutral.png,neutral.png,neutral.png,,,,,3,2,20,4,,,,,,,,,,,,,137.15592060000017,None,,,,,,,,,,,,,,,,,,,,,,,,,,,,,,138.16997340000034,None,138.16997340000034,None,138.16997340000034,None,138.16997340000034,None,138.16997340000034,None,138.16997340000034,None,138.16997340000034,None,a,1,0.38621199999988676,138.16997340000034,None,,,,,,,,,,,,,3,001,2022_Aug_05_1807,Flanker,2021.2.0,239.86509986597258,
incongruent-left.jpg,0,a,right_arrow.png,right_arrow.png,right_arrow.png,left_arrow.png,right_arrow.png,right_arrow.png,right_arrow.png,,,,,3,3,21,1,,,,,,,,,,,,,138.56990309999992,None,,,,,,,,,,,,,,,,,,,,,,,,,,,,,,139.58346170000004,None,139.58346170000004,None,139.58346170000004,None,139.58346170000004,None,139.58346170000004,None,139.58346170000004,None,139.58346170000004,None,a,1,0.4208976999998413,139.58346170000004,None,,,,,,,,,,,,,3,001,2022_Aug_05_1807,Flanker,2021.2.0,239.86509986597258,
congruent-right.jpg,1,k,right_arrow.png,right_arrow.png,right_arrow.png,right_arrow.png,right_arrow.png,right_arrow.png,right_arrow.png,,,,,3,4,22,2,,,,,,,,,,,,,140.01727500000015,None,,,,,,,,,,,,,,,,,,,,,,,,,,,,,,141.03528700000015,None,141.03528700000015,None,141.03528700000015,None,141.03528700000015,None,141.03528700000015,None,141.03528700000015,None,141.03528700000015,None,k,1,0.38530709999986357,141.03528700000015,None,,,,,,,,,,,,,3,001,2022_Aug_05_1807,Flanker,2021.2.0,239.86509986597258,
neutral left,0,a,neutral.png,neutral.png,neutral.png,left_arrow.png,neutral.png,neutral.png,neutral.png,,,,,3,5,23,4,,,,,,,,,,,,,141.43545470000026,None,,,,,,,,,,,,,,,,,,,,,,,,,,,,,,142.4534779999999,None,142.4534779999999,None,142.4534779999999,None,142.4534779999999,None,142.4534779999999,None,142.4534779999999,None,142.4534779999999,None,a,1,0.4392705999998725,142.4534779999999,None,,,,,,,,,,,,,3,001,2022_Aug_05_1807,Flanker,2021.2.0,239.86509986597258,
congruent-left.jpg,1,a,left_arrow.png,left_arrow.png,left_arrow.png,left_arrow.png,left_arrow.png,left_arrow.png,left_arrow.png,,,,,4,0,24,0,,,,,,,,,,,,,142.9120538000002,None,,,,,,,,,,,,,,,,,,,,,,,,,,,,,,143.92137540000022,None,143.92137540000022,None,143.92137540000022,None,143.92137540000022,None,143.92137540000022,None,143.92137540000022,None,143.92137540000022,None,a,1,0.4595510999997714,143.92137540000022,None,,,,,,,,,,,,,3,001,2022_Aug_05_1807,Flanker,2021.2.0,239.86509986597258,
congruent-right.jpg,1,k,right_arrow.png,right_arrow.png,right_arrow.png,right_arrow.png,right_arrow.png,right_arrow.png,right_arrow.png,,,,,4,1,25,2,,,,,,,,,,,,,144.3927438999999,None,,,,,,,,,,,,,,,,,,,,,,,,,,,,,,145.40244269999994,None,145.40244269999994,None,145.40244269999994,None,145.40244269999994,None,145.40244269999994,None,145.40244269999994,None,145.40244269999994,None,k,1,0.43472469999960595,145.40244269999994,None,,,,,,,,,,,,,3,001,2022_Aug_05_1807,Flanker,2021.2.0,239.86509986597258,
incongruent-left.jpg,0,a,right_arrow.png,right_arrow.png,right_arrow.png,left_arrow.png,right_arrow.png,right_arrow.png,right_arrow.png,,,,,4,2,26,1,,,,,,,,,,,,,145.8526022000001,None,,,,,,,,,,,,,,,,,,,,,,,,,,,,,,146.86618640000006,None,146.86618640000006,None,146.86618640000006,None,146.86618640000006,None,146.86618640000006,None,146.86618640000006,None,146.86618640000006,None,a,1,0.37914260000025024,146.86618640000006,None,,,,,,,,,,,,,3,001,2022_Aug_05_1807,Flanker,2021.2.0,239.86509986597258,
congruent-left.jpg,1,a,left_arrow.png,left_arrow.png,left_arrow.png,left_arrow.png,left_arrow.png,left_arrow.png,left_arrow.png,,,,,4,3,27,0,,,,,,,,,,,,,147.2582437000001,None,,,,,,,,,,,,,,,,,,,,,,,,,,,,,,148.26786970000012,None,148.26786970000012,None,148.26786970000012,None,148.26786970000012,None,148.26786970000012,None,148.26786970000012,None,148.26786970000012,None,a,1,0.3536809999995967,148.26786970000012,None,,,,,,,,,,,,,3,001,2022_Aug_05_1807,Flanker,2021.2.0,239.86509986597258,
congruent-left.jpg,1,a,left_arrow.png,left_arrow.png,left_arrow.png,left_arrow.png,left_arrow.png,left_arrow.png,left_arrow.png,,,,,4,4,28,0,,,,,,,,,,,,,148.63470929999994,None,,,,,,,,,,,,,,,,,,,,,,,,,,,,,,149.64855500000021,None,149.64855500000021,None,149.64855500000021,None,149.64855500000021,None,149.64855500000021,None,149.64855500000021,None,149.64855500000021,None,a,1,0.32518609999988257,149.64855500000021,None,,,,,,,,,,,,,3,001,2022_Aug_05_1807,Flanker,2021.2.0,239.86509986597258,
congruent-left.jpg,1,a,left_arrow.png,left_arrow.png,left_arrow.png,left_arrow.png,left_arrow.png,left_arrow.png,left_arrow.png,,,,,4,5,29,0,,,,,,,,,,,,,149.99031160000004,None,,,,,,,,,,,,,,,,,,,,,,,,,,,,,,151.00011859999995,None,151.00011859999995,None,151.00011859999995,None,151.00011859999995,None,151.00011859999995,None,151.00011859999995,None,151.00011859999995,None,a,1,0.4857935999998517,151.00011859999995,None,,,,,,,,,,,,,3,001,2022_Aug_05_1807,Flanker,2021.2.0,239.86509986597258,
neutral left,0,a,neutral.png,neutral.png,neutral.png,left_arrow.png,neutral.png,neutral.png,neutral.png,,,,,5,0,30,4,,,,,,,,,,,,,151.50031930000023,None,,,,,,,,,,,,,,,,,,,,,,,,,,,,,,152.5137933000001,None,152.5137933000001,None,152.5137933000001,None,152.5137933000001,None,152.5137933000001,None,152.5137933000001,None,152.5137933000001,None,a,1,0.6203308999997716,152.5137933000001,None,,,,,,,,,,,,,3,001,2022_Aug_05_1807,Flanker,2021.2.0,239.86509986597258,
incongruent-left.jpg,0,a,right_arrow.png,right_arrow.png,right_arrow.png,left_arrow.png,right_arrow.png,right_arrow.png,right_arrow.png,,,,,5,1,31,1,,,,,,,,,,,,,153.1481705000001,None,,,,,,,,,,,,,,,,,,,,,,,,,,,,,,154.1613923,None,154.1613923,None,154.1613923,None,154.1613923,None,154.1613923,None,154.1613923,None,154.1613923,None,a,1,0.6049500000003718,154.1613923,None,,,,,,,,,,,,,3,001,2022_Aug_05_1807,Flanker,2021.2.0,239.86509986597258,
incongruent-left.jpg,0,a,right_arrow.png,right_arrow.png,right_arrow.png,left_arrow.png,right_arrow.png,right_arrow.png,right_arrow.png,,,,,5,2,32,1,,,,,,,,,,,,,154.7829815,None,,,,,,,,,,,,,,,,,,,,,,,,,,,,,,155.79676270000027,None,155.79676270000027,None,155.79676270000027,None,155.79676270000027,None,155.79676270000027,None,155.79676270000027,None,155.79676270000027,None,a,1,0.4417641000000003,155.79676270000027,None,,,,,,,,,,,,,3,001,2022_Aug_05_1807,Flanker,2021.2.0,239.86509986597258,
incongruent-right.jpg,0,k,left_arrow.png,left_arrow.png,left_arrow.png,right_arrow.png,left_arrow.png,left_arrow.png,left_arrow.png,,,,,5,3,33,3,,,,,,,,,,,,,156.25527379999994,None,,,,,,,,,,,,,,,,,,,,,,,,,,,,,,157.26489900000024,None,157.26489900000024,None,157.26489900000024,None,157.26489900000024,None,157.26489900000024,None,157.26489900000024,None,157.26489900000024,None,k,1,0.4538511999999173,157.26489900000024,None,,,,,,,,,,,,,3,001,2022_Aug_05_1807,Flanker,2021.2.0,239.86509986597258,
congruent-left.jpg,1,a,left_arrow.png,left_arrow.png,left_arrow.png,left_arrow.png,left_arrow.png,left_arrow.png,left_arrow.png,,,,,5,4,34,0,,,,,,,,,,,,,157.73191850000012,None,,,,,,,,,,,,,,,,,,,,,,,,,,,,,,158.74153350000006,None,158.74153350000006,None,158.74153350000006,None,158.74153350000006,None,158.74153350000006,None,158.74153350000006,None,158.74153350000006,None,a,1,0.9854632999999922,158.74153350000006,None,,,,,,,,,,,,,3,001,2022_Aug_05_1807,Flanker,2021.2.0,239.86509986597258,
neutral left,0,a,neutral.png,neutral.png,neutral.png,left_arrow.png,neutral.png,neutral.png,neutral.png,,,,,5,5,35,4,,,,,,,,,,,,,159.74261909999996,None,,,,,,,,,,,,,,,,,,,,,,,,,,,,,,160.75170700000035,None,160.75170700000035,None,160.75170700000035,None,160.75170700000035,None,160.75170700000035,None,160.75170700000035,None,160.75170700000035,None,a,1,0.47948200000018915,160.75170700000035,None,,,,,,,,,,,,,3,001,2022_Aug_05_1807,Flanker,2021.2.0,239.86509986597258,
neutral right,0,k,neutral.png,neutral.png,neutral.png,right_arrow.png,neutral.png,neutral.png,neutral.png,,,,,6,0,36,5,,,,,,,,,,,,,161.24389229999997,None,,,,,,,,,,,,,,,,,,,,,,,,,,,,,,162.24917330000017,None,162.24917330000017,None,162.24917330000017,None,162.24917330000017,None,162.24917330000017,None,162.24917330000017,None,162.24917330000017,None,k,1,0.3824773000001187,162.24917330000017,None,,,,,,,,,,,,,3,001,2022_Aug_05_1807,Flanker,2021.2.0,239.86509986597258,
incongruent-right.jpg,0,k,left_arrow.png,left_arrow.png,left_arrow.png,right_arrow.png,left_arrow.png,left_arrow.png,left_arrow.png,,,,,6,1,37,3,,,,,,,,,,,,,162.64960539999993,None,,,,,,,,,,,,,,,,,,,,,,,,,,,,,,163.66319750000002,None,163.66319750000002,None,163.66319750000002,None,163.66319750000002,None,163.66319750000002,None,163.66319750000002,None,163.66319750000002,None,k,1,0.48836889999984123,163.66319750000002,None,,,,,,,,,,,,,3,001,2022_Aug_05_1807,Flanker,2021.2.0,239.86509986597258,
congruent-left.jpg,1,a,left_arrow.png,left_arrow.png,left_arrow.png,left_arrow.png,left_arrow.png,left_arrow.png,left_arrow.png,,,,,6,2,38,0,,,,,,,,,,,,,164.16391380000005,None,,,,,,,,,,,,,,,,,,,,,,,,,,,,,,165.1775103,None,165.1775103,None,165.1775103,None,165.1775103,None,165.1775103,None,165.1775103,None,165.1775103,None,a,1,0.4222620000000461,165.1775103,None,,,,,,,,,,,,,3,001,2022_Aug_05_1807,Flanker,2021.2.0,239.86509986597258,
incongruent-left.jpg,0,a,right_arrow.png,right_arrow.png,right_arrow.png,left_arrow.png,right_arrow.png,right_arrow.png,right_arrow.png,,,,,6,3,39,1,,,,,,,,,,,,,165.61102100000016,None,,,,,,,,,,,,,,,,,,,,,,,,,,,,,,166.61622410000018,None,166.61622410000018,None,166.61622410000018,None,166.61622410000018,None,166.61622410000018,None,166.61622410000018,None,166.61622410000018,None,a,1,0.37572769999997035,166.61622410000018,None,,,,,,,,,,,,,3,001,2022_Aug_05_1807,Flanker,2021.2.0,239.86509986597258,
congruent-left.jpg,1,a,left_arrow.png,left_arrow.png,left_arrow.png,left_arrow.png,left_arrow.png,left_arrow.png,left_arrow.png,,,,,6,4,40,0,,,,,,,,,,,,,167.0083297000001,None,,,,,,,,,,,,,,,,,,,,,,,,,,,,,,168.01794530000006,None,168.01794530000006,None,168.01794530000006,None,168.01794530000006,None,168.01794530000006,None,168.01794530000006,None,168.01794530000006,None,a,1,0.3984971999998379,168.01794530000006,None,,,,,,,,,,,,,3,001,2022_Aug_05_1807,Flanker,2021.2.0,239.86509986597258,
incongruent-right.jpg,0,k,left_arrow.png,left_arrow.png,left_arrow.png,right_arrow.png,left_arrow.png,left_arrow.png,left_arrow.png,,,,,6,5,41,3,,,,,,,,,,,,,168.43492250000008,None,,,,,,,,,,,,,,,,,,,,,,,,,,,,,,169.4486465,None,169.4486465,None,169.4486465,None,169.4486465,None,169.4486465,None,169.4486465,None,169.4486465,None,k,1,0.4080672999998569,169.4486465,None,,,,,,,,,,,,,3,001,2022_Aug_05_1807,Flanker,2021.2.0,239.86509986597258,
incongruent-right.jpg,0,k,left_arrow.png,left_arrow.png,left_arrow.png,right_arrow.png,left_arrow.png,left_arrow.png,left_arrow.png,,,,,7,0,42,3,,,,,,,,,,,,,169.87387179999996,None,,,,,,,,,,,,,,,,,,,,,,,,,,,,,,170.8833454999999,None,170.8833454999999,None,170.8833454999999,None,170.8833454999999,None,170.8833454999999,None,170.8833454999999,None,170.8833454999999,None,k,1,0.36549390000027415,170.8833454999999,None,,,,,,,,,,,,,3,001,2022_Aug_05_1807,Flanker,2021.2.0,239.86509986597258,
congruent-left.jpg,1,a,left_arrow.png,left_arrow.png,left_arrow.png,left_arrow.png,left_arrow.png,left_arrow.png,left_arrow.png,,,,,7,1,43,0,,,,,,,,,,,,,171.26731280000013,None,,,,,,,,,,,,,,,,,,,,,,,,,,,,,,172.2764075,None,172.2764075,None,172.2764075,None,172.2764075,None,172.2764075,None,172.2764075,None,172.2764075,None,a,1,0.3882997999999134,172.2764075,None,,,,,,,,,,,,,3,001,2022_Aug_05_1807,Flanker,2021.2.0,239.86509986597258,
incongruent-right.jpg,0,k,left_arrow.png,left_arrow.png,left_arrow.png,right_arrow.png,left_arrow.png,left_arrow.png,left_arrow.png,,,,,7,2,44,3,,,,,,,,,,,,,172.67681710000033,None,,,,,,,,,,,,,,,,,,,,,,,,,,,,,,173.69058910000012,None,173.69058910000012,None,173.69058910000012,None,173.69058910000012,None,173.69058910000012,None,173.69058910000012,None,173.69058910000012,None,k,1,0.39058969999996407,173.69058910000012,None,,,,,,,,,,,,,3,001,2022_Aug_05_1807,Flanker,2021.2.0,239.86509986597258,
incongruent-right.jpg,0,k,left_arrow.png,left_arrow.png,left_arrow.png,right_arrow.png,left_arrow.png,left_arrow.png,left_arrow.png,,,,,7,3,45,3,,,,,,,,,,,,,174.09915050000018,None,,,,,,,,,,,,,,,,,,,,,,,,,,,,,,175.11275920000026,None,175.11275920000026,None,175.11275920000026,None,175.11275920000026,None,175.11275920000026,None,175.11275920000026,None,175.11275920000026,None,k,1,0.40864239999973506,175.11275920000026,None,,,,,,,,,,,,,3,001,2022_Aug_05_1807,Flanker,2021.2.0,239.86509986597258,
neutral right,0,k,neutral.png,neutral.png,neutral.png,right_arrow.png,neutral.png,neutral.png,neutral.png,,,,,7,4,46,5,,,,,,,,,,,,,175.53840720000017,None,,,,,,,,,,,,,,,,,,,,,,,,,,,,,,176.5517534999999,None,176.5517534999999,None,176.5517534999999,None,176.5517534999999,None,176.5517534999999,None,176.5517534999999,None,176.5517534999999,None,k,1,0.43353109999998196,176.5517534999999,None,,,,,,,,,,,,,3,001,2022_Aug_05_1807,Flanker,2021.2.0,239.86509986597258,
neutral right,0,k,neutral.png,neutral.png,neutral.png,right_arrow.png,neutral.png,neutral.png,neutral.png,,,,,7,5,47,5,,,,,,,,,,,,,177.0022429999999,None,,,,,,,,,,,,,,,,,,,,,,,,,,,,,,178.01583449999998,None,178.01583449999998,None,178.01583449999998,None,178.01583449999998,None,178.01583449999998,None,178.01583449999998,None,178.01583449999998,None,k,1,0.3376424000002771,178.01583449999998,None,,,,,,,,,,,,,3,001,2022_Aug_05_1807,Flanker,2021.2.0,239.86509986597258,
,,,,,,,,,,,,,,,,,,,,,,,,,,,,,,,,,,,,,,,,,,,,,,,,,,,,,,,,,,,,,,,,,,,,,,,,,,,,,,,,178.3787037000002,None,space,9.784393800000089,178.3787037000002,None,,,,,,,3,001,2022_Aug_05_1807,Flanker,2021.2.0,239.86509986597258,
neutral right,0,k,neutral.png,neutral.png,neutral.png,right_arrow.png,neutral.png,neutral.png,neutral.png,,,,,,,,,0,0,0,5,,,,,,,,,188.18915000000015,None,,,,,,,,,,,,,,,,,,,,,,,,,,,,,,189.19459170000027,None,189.19459170000027,None,189.19459170000027,None,189.19459170000027,None,189.19459170000027,None,189.19459170000027,None,189.19459170000027,None,k,1,0.5926884000000427,189.19459170000027,None,,,,,,,,,,,,,3,001,2022_Aug_05_1807,Flanker,2021.2.0,239.86509986597258,
congruent-left.jpg,1,a,left_arrow.png,left_arrow.png,left_arrow.png,left_arrow.png,left_arrow.png,left_arrow.png,left_arrow.png,,,,,,,,,0,1,1,0,,,,,,,,,189.80327660000012,None,,,,,,,,,,,,,,,,,,,,,,,,,,,,,,190.82102269999996,None,190.82102269999996,None,190.82102269999996,None,190.82102269999996,None,190.82102269999996,None,190.82102269999996,None,190.82102269999996,None,a,1,0.39817279999988386,190.82102269999996,None,,,,,,,,,,,,,3,001,2022_Aug_05_1807,Flanker,2021.2.0,239.86509986597258,
congruent-left.jpg,1,a,left_arrow.png,left_arrow.png,left_arrow.png,left_arrow.png,left_arrow.png,left_arrow.png,left_arrow.png,,,,,,,,,0,2,2,0,,,,,,,,,191.2383401000002,None,,,,,,,,,,,,,,,,,,,,,,,,,,,,,,192.25197990000015,None,192.25197990000015,None,192.25197990000015,None,192.25197990000015,None,192.25197990000015,None,192.25197990000015,None,192.25197990000015,None,a,1,0.46339510000007067,192.25197990000015,None,,,,,,,,,,,,,3,001,2022_Aug_05_1807,Flanker,2021.2.0,239.86509986597258,
congruent-right.jpg,1,k,right_arrow.png,right_arrow.png,right_arrow.png,right_arrow.png,right_arrow.png,right_arrow.png,right_arrow.png,,,,,,,,,0,3,3,2,,,,,,,,,192.72723320000023,None,,,,,,,,,,,,,,,,,,,,,,,,,,,,,,193.73678240000027,None,193.73678240000027,None,193.73678240000027,None,193.73678240000027,None,193.73678240000027,None,193.73678240000027,None,193.73678240000027,None,k,1,0.4188554999996086,193.73678240000027,None,,,,,,,,,,,,,3,001,2022_Aug_05_1807,Flanker,2021.2.0,239.86509986597258,
incongruent-right.jpg,0,k,left_arrow.png,left_arrow.png,left_arrow.png,right_arrow.png,left_arrow.png,left_arrow.png,left_arrow.png,,,,,,,,,0,4,4,3,,,,,,,,,194.17043880000028,None,,,,,,,,,,,,,,,,,,,,,,,,,,,,,,195.1841462000002,None,195.1841462000002,None,195.1841462000002,None,195.1841462000002,None,195.1841462000002,None,195.1841462000002,None,195.1841462000002,None,k,1,0.3876224999999067,195.1841462000002,None,,,,,,,,,,,,,3,001,2022_Aug_05_1807,Flanker,2021.2.0,239.86509986597258,
neutral left,0,a,neutral.png,neutral.png,neutral.png,left_arrow.png,neutral.png,neutral.png,neutral.png,,,,,,,,,0,5,5,4,,,,,,,,,195.58441630000016,None,,,,,,,,,,,,,,,,,,,,,,,,,,,,,,196.59802089999994,None,196.59802089999994,None,196.59802089999994,None,196.59802089999994,None,196.59802089999994,None,196.59802089999994,None,196.59802089999994,None,a,1,0.4139628999996603,196.59802089999994,None,,,,,,,,,,,,,3,001,2022_Aug_05_1807,Flanker,2021.2.0,239.86509986597258,
incongruent-left.jpg,0,a,right_arrow.png,right_arrow.png,right_arrow.png,left_arrow.png,right_arrow.png,right_arrow.png,right_arrow.png,,,,,,,,,1,0,6,1,,,,,,,,,197.0236875999999,None,,,,,,,,,,,,,,,,,,,,,,,,,,,,,,198.03701720000026,None,198.03701720000026,None,198.03701720000026,None,198.03701720000026,None,198.03701720000026,None,198.03701720000026,None,198.03701720000026,None,a,1,0.3833973999999216,198.03701720000026,None,,,,,,,,,,,,,3,001,2022_Aug_05_1807,Flanker,2021.2.0,239.86509986597258,
incongruent-right.jpg,0,k,left_arrow.png,left_arrow.png,left_arrow.png,right_arrow.png,left_arrow.png,left_arrow.png,left_arrow.png,,,,,,,,,1,1,7,3,,,,,,,,,198.43743889999996,None,,,,,,,,,,,,,,,,,,,,,,,,,,,,,,199.44685500000014,None,199.44685500000014,None,199.44685500000014,None,199.44685500000014,None,199.44685500000014,None,199.44685500000014,None,199.44685500000014,None,k,1,0.47753869999996823,199.44685500000014,None,,,,,,,,,,,,,3,001,2022_Aug_05_1807,Flanker,2021.2.0,239.86509986597258,
incongruent-left.jpg,0,a,right_arrow.png,right_arrow.png,right_arrow.png,left_arrow.png,right_arrow.png,right_arrow.png,right_arrow.png,,,,,,,,,1,2,8,1,,,,,,,,,199.93937099999994,None,,,,,,,,,,,,,,,,,,,,,,,,,,,,,,200.94851210000024,None,200.94851210000024,None,200.94851210000024,None,200.94851210000024,None,200.94851210000024,None,200.94851210000024,None,200.94851210000024,None,a,1,0.5120793999999478,200.94851210000024,None,,,,,,,,,,,,,3,001,2022_Aug_05_1807,Flanker,2021.2.0,239.86509986597258,
neutral left,0,a,neutral.png,neutral.png,neutral.png,left_arrow.png,neutral.png,neutral.png,neutral.png,,,,,,,,,1,3,9,4,,,,,,,,,201.4739927999999,None,,,,,,,,,,,,,,,,,,,,,,,,,,,,,,202.4875594,None,202.4875594,None,202.4875594,None,202.4875594,None,202.4875594,None,202.4875594,None,202.4875594,None,a,1,0.5812111999998706,202.4875594,None,,,,,,,,,,,,,3,001,2022_Aug_05_1807,Flanker,2021.2.0,239.86509986597258,
neutral right,0,k,neutral.png,neutral.png,neutral.png,right_arrow.png,neutral.png,neutral.png,neutral.png,,,,,,,,,1,4,10,5,,,,,,,,,203.07985550000012,None,,,,,,,,,,,,,,,,,,,,,,,,,,,,,,204.0979496,None,204.0979496,None,204.0979496,None,204.0979496,None,204.0979496,None,204.0979496,None,204.0979496,None,k,1,0.4832437000000027,204.0979496,None,,,,,,,,,,,,,3,001,2022_Aug_05_1807,Flanker,2021.2.0,239.86509986597258,
congruent-right.jpg,1,k,right_arrow.png,right_arrow.png,right_arrow.png,right_arrow.png,right_arrow.png,right_arrow.png,right_arrow.png,,,,,,,,,1,5,11,2,,,,,,,,,204.5981237000001,None,,,,,,,,,,,,,,,,,,,,,,,,,,,,,,205.61193970000022,None,205.61193970000022,None,205.61193970000022,None,205.61193970000022,None,205.61193970000022,None,205.61193970000022,None,205.61193970000022,None,k,1,0.40126550000013594,205.61193970000022,None,,,,,,,,,,,,,3,001,2022_Aug_05_1807,Flanker,2021.2.0,239.86509986597258,
congruent-right.jpg,1,k,right_arrow.png,right_arrow.png,right_arrow.png,right_arrow.png,right_arrow.png,right_arrow.png,right_arrow.png,,,,,,,,,2,0,12,2,,,,,,,,,206.0288155000003,None,,,,,,,,,,,,,,,,,,,,,,,,,,,,,,207.03821319999997,None,207.03821319999997,None,207.03821319999997,None,207.03821319999997,None,207.03821319999997,None,207.03821319999997,None,207.03821319999997,None,k,1,0.35121350000008533,207.03821319999997,None,,,,,,,,,,,,,3,001,2022_Aug_05_1807,Flanker,2021.2.0,239.86509986597258,
congruent-right.jpg,1,k,right_arrow.png,right_arrow.png,right_arrow.png,right_arrow.png,right_arrow.png,right_arrow.png,right_arrow.png,,,,,,,,,2,1,13,2,,,,,,,,,207.4055969000001,None,,,,,,,,,,,,,,,,,,,,,,,,,,,,,,208.41892750000034,None,208.41892750000034,None,208.41892750000034,None,208.41892750000034,None,208.41892750000034,None,208.41892750000034,None,208.41892750000034,None,k,1,0.3386151999998219,208.41892750000034,None,,,,,,,,,,,,,3,001,2022_Aug_05_1807,Flanker,2021.2.0,239.86509986597258,
incongruent-left.jpg,0,a,right_arrow.png,right_arrow.png,right_arrow.png,left_arrow.png,right_arrow.png,right_arrow.png,right_arrow.png,,,,,,,,,2,2,14,1,,,,,,,,,208.76921459999994,None,,,,,,,,,,,,,,,,,,,,,,,,,,,,,,209.77861140000005,None,209.77861140000005,None,209.77861140000005,None,209.77861140000005,None,209.77861140000005,None,209.77861140000005,None,209.77861140000005,None,a,1,0.4031522000000223,209.77861140000005,None,,,,,,,,,,,,,3,001,2022_Aug_05_1807,Flanker,2021.2.0,239.86509986597258,
incongruent-right.jpg,0,k,left_arrow.png,left_arrow.png,left_arrow.png,right_arrow.png,left_arrow.png,left_arrow.png,left_arrow.png,,,,,,,,,2,3,15,3,,,,,,,,,210.19569470000033,None,,,,,,,,,,,,,,,,,,,,,,,,,,,,,,211.20514159999993,None,211.20514159999993,None,211.20514159999993,None,211.20514159999993,None,211.20514159999993,None,211.20514159999993,None,211.20514159999993,None,k,1,0.3208951999999954,211.20514159999993,None,,,,,,,,,,,,,3,001,2022_Aug_05_1807,Flanker,2021.2.0,239.86509986597258,
incongruent-left.jpg,0,a,right_arrow.png,right_arrow.png,right_arrow.png,left_arrow.png,right_arrow.png,right_arrow.png,right_arrow.png,,,,,,,,,2,4,16,1,,,,,,,,,211.54330000000027,None,,,,,,,,,,,,,,,,,,,,,,,,,,,,,,212.5569286,None,212.5569286,None,212.5569286,None,212.5569286,None,212.5569286,None,212.5569286,None,212.5569286,None,a,1,0.42519799999990937,212.5569286,None,,,,,,,,,,,,,3,001,2022_Aug_05_1807,Flanker,2021.2.0,239.86509986597258,
incongruent-left.jpg,0,a,right_arrow.png,right_arrow.png,right_arrow.png,left_arrow.png,right_arrow.png,right_arrow.png,right_arrow.png,,,,,,,,,2,5,17,1,,,,,,,,,212.99877090000018,None,,,,,,,,,,,,,,,,,,,,,,,,,,,,,,214.00825299999997,None,214.00825299999997,None,214.00825299999997,None,214.00825299999997,None,214.00825299999997,None,214.00825299999997,None,214.00825299999997,None,a,1,0.4060792999998739,214.00825299999997,None,,,,,,,,,,,,,3,001,2022_Aug_05_1807,Flanker,2021.2.0,239.86509986597258,
neutral left,0,a,neutral.png,neutral.png,neutral.png,left_arrow.png,neutral.png,neutral.png,neutral.png,,,,,,,,,3,0,18,4,,,,,,,,,214.43353879999995,None,,,,,,,,,,,,,,,,,,,,,,,,,,,,,,215.4429344,None,215.4429344,None,215.4429344,None,215.4429344,None,215.4429344,None,215.4429344,None,215.4429344,None,a,1,0.4195564999999988,215.4429344,None,,,,,,,,,,,,,3,001,2022_Aug_05_1807,Flanker,2021.2.0,239.86509986597258,
congruent-left.jpg,1,a,left_arrow.png,left_arrow.png,left_arrow.png,left_arrow.png,left_arrow.png,left_arrow.png,left_arrow.png,,,,,,,,,3,1,19,0,,,,,,,,,215.8768030000001,None,,,,,,,,,,,,,,,,,,,,,,,,,,,,,,216.89448360000006,None,216.89448360000006,None,216.89448360000006,None,216.89448360000006,None,216.89448360000006,None,216.89448360000006,None,216.89448360000006,None,a,1,0.4001917999999023,216.89448360000006,None,,,,,,,,,,,,,3,001,2022_Aug_05_1807,Flanker,2021.2.0,239.86509986597258,
incongruent-left.jpg,0,a,right_arrow.png,right_arrow.png,right_arrow.png,left_arrow.png,right_arrow.png,right_arrow.png,right_arrow.png,,,,,,,,,3,2,20,1,,,,,,,,,217.31157520000033,None,,,,,,,,,,,,,,,,,,,,,,,,,,,,,,218.32529460000023,None,218.32529460000023,None,218.32529460000023,None,218.32529460000023,None,218.32529460000023,None,218.32529460000023,None,218.32529460000023,None,a,1,0.4418633000000227,218.32529460000023,None,,,,,,,,,,,,,3,001,2022_Aug_05_1807,Flanker,2021.2.0,239.86509986597258,
neutral left,0,a,neutral.png,neutral.png,neutral.png,left_arrow.png,neutral.png,neutral.png,neutral.png,,,,,,,,,3,3,21,4,,,,,,,,,218.78403370000024,None,,,,,,,,,,,,,,,,,,,,,,,,,,,,,,219.7934897,None,219.7934897,None,219.7934897,None,219.7934897,None,219.7934897,None,219.7934897,None,219.7934897,None,a,1,0.34982739999986734,219.7934897,None,,,,,,,,,,,,,3,001,2022_Aug_05_1807,Flanker,2021.2.0,239.86509986597258,
incongruent-right.jpg,0,k,left_arrow.png,left_arrow.png,left_arrow.png,right_arrow.png,left_arrow.png,left_arrow.png,left_arrow.png,,,,,,,,,3,4,22,3,,,,,,,,,220.1606741999999,None,,,,,,,,,,,,,,,,,,,,,,,,,,,,,,221.16993060000004,None,221.16993060000004,None,221.16993060000004,None,221.16993060000004,None,221.16993060000004,None,221.16993060000004,None,221.16993060000004,None,k,1,0.41330969999989975,221.16993060000004,None,,,,,,,,,,,,,3,001,2022_Aug_05_1807,Flanker,2021.2.0,239.86509986597258,
congruent-left.jpg,1,a,left_arrow.png,left_arrow.png,left_arrow.png,left_arrow.png,left_arrow.png,left_arrow.png,left_arrow.png,,,,,,,,,3,5,23,0,,,,,,,,,221.5952916000001,None,,,,,,,,,,,,,,,,,,,,,,,,,,,,,,222.6090153,None,222.6090153,None,222.6090153,None,222.6090153,None,222.6090153,None,222.6090153,None,222.6090153,None,a,1,0.502462899999955,222.6090153,None,,,,,,,,,,,,,3,001,2022_Aug_05_1807,Flanker,2021.2.0,239.86509986597258,
incongruent-left.jpg,0,a,right_arrow.png,right_arrow.png,right_arrow.png,left_arrow.png,right_arrow.png,right_arrow.png,right_arrow.png,,,,,,,,,4,0,24,1,,,,,,,,,223.12603880000006,None,,,,,,,,,,,,,,,,,,,,,,,,,,,,,,224.13566790000004,None,224.13566790000004,None,224.13566790000004,None,224.13566790000004,None,224.13566790000004,None,224.13566790000004,None,224.13566790000004,None,a,1,0.4243487999997342,224.13566790000004,None,,,,,,,,,,,,,3,001,2022_Aug_05_1807,Flanker,2021.2.0,239.86509986597258,
incongruent-right.jpg,0,k,left_arrow.png,left_arrow.png,left_arrow.png,right_arrow.png,left_arrow.png,left_arrow.png,left_arrow.png,,,,,,,,,4,1,25,3,,,,,,,,,224.5778924000001,None,,,,,,,,,,,,,,,,,,,,,,,,,,,,,,225.5911612,None,225.5911612,None,225.5911612,None,225.5911612,None,225.5911612,None,225.5911612,None,225.5911612,None,k,1,0.42506550000007337,225.5911612,None,,,,,,,,,,,,,3,001,2022_Aug_05_1807,Flanker,2021.2.0,239.86509986597258,
neutral right,0,k,neutral.png,neutral.png,neutral.png,right_arrow.png,neutral.png,neutral.png,neutral.png,,,,,,,,,4,2,26,5,,,,,,,,,226.03359679999994,None,,,,,,,,,,,,,,,,,,,,,,,,,,,,,,227.0472109000002,None,227.0472109000002,None,227.0472109000002,None,227.0472109000002,None,227.0472109000002,None,227.0472109000002,None,227.0472109000002,None,k,1,0.4568509999999151,227.0472109000002,None,,,,,,,,,,,,,3,001,2022_Aug_05_1807,Flanker,2021.2.0,239.86509986597258,
neutral right,0,k,neutral.png,neutral.png,neutral.png,right_arrow.png,neutral.png,neutral.png,neutral.png,,,,,,,,,4,3,27,5,,,,,,,,,227.52237229999992,None,,,,,,,,,,,,,,,,,,,,,,,,,,,,,,228.52765210000007,None,228.52765210000007,None,228.52765210000007,None,228.52765210000007,None,228.52765210000007,None,228.52765210000007,None,228.52765210000007,None,k,1,0.40857039999991684,228.52765210000007,None,,,,,,,,,,,,,3,001,2022_Aug_05_1807,Flanker,2021.2.0,239.86509986597258,
incongruent-right.jpg,0,k,left_arrow.png,left_arrow.png,left_arrow.png,right_arrow.png,left_arrow.png,left_arrow.png,left_arrow.png,,,,,,,,,4,4,28,3,,,,,,,,,228.9531105000001,None,,,,,,,,,,,,,,,,,,,,,,,,,,,,,,229.96274240000002,None,229.96274240000002,None,229.96274240000002,None,229.96274240000002,None,229.96274240000002,None,229.96274240000002,None,229.96274240000002,None,k,1,0.5337153000000399,229.96274240000002,None,,,,,,,,,,,,,3,001,2022_Aug_05_1807,Flanker,2021.2.0,239.86509986597258,
neutral right,0,k,neutral.png,neutral.png,neutral.png,right_arrow.png,neutral.png,neutral.png,neutral.png,,,,,,,,,4,5,29,5,,,,,,,,,230.5133536000003,None,,,,,,,,,,,,,,,,,,,,,,,,,,,,,,231.52661590000025,None,231.52661590000025,None,231.52661590000025,None,231.52661590000025,None,231.52661590000025,None,231.52661590000025,None,231.52661590000025,None,k,1,0.41003249999994296,231.52661590000025,None,,,,,,,,,,,,,3,001,2022_Aug_05_1807,Flanker,2021.2.0,239.86509986597258,
congruent-left.jpg,1,a,left_arrow.png,left_arrow.png,left_arrow.png,left_arrow.png,left_arrow.png,left_arrow.png,left_arrow.png,,,,,,,,,5,0,30,0,,,,,,,,,231.95205720000013,None,,,,,,,,,,,,,,,,,,,,,,,,,,,,,,232.96146880000015,None,232.96146880000015,None,232.96146880000015,None,232.96146880000015,None,232.96146880000015,None,232.96146880000015,None,232.96146880000015,None,a,1,0.45532840000032593,232.96146880000015,None,,,,,,,,,,,,,3,001,2022_Aug_05_1807,Flanker,2021.2.0,239.86509986597258,
neutral left,0,a,neutral.png,neutral.png,neutral.png,left_arrow.png,neutral.png,neutral.png,neutral.png,,,,,,,,,5,1,31,4,,,,,,,,,233.42870040000025,None,,,,,,,,,,,,,,,,,,,,,,,,,,,,,,234.44231130000026,None,234.44231130000026,None,234.44231130000026,None,234.44231130000026,None,234.44231130000026,None,234.44231130000026,None,234.44231130000026,None,a,1,0.4147010000001501,234.44231130000026,None,,,,,,,,,,,,,3,001,2022_Aug_05_1807,Flanker,2021.2.0,239.86509986597258,
congruent-right.jpg,1,k,right_arrow.png,right_arrow.png,right_arrow.png,right_arrow.png,right_arrow.png,right_arrow.png,right_arrow.png,,,,,,,,,5,2,32,2,,,,,,,,,234.8760986000002,None,,,,,,,,,,,,,,,,,,,,,,,,,,,,,,235.88551589999997,None,235.88551589999997,None,235.88551589999997,None,235.88551589999997,None,235.88551589999997,None,235.88551589999997,None,235.88551589999997,None,k,1,0.44372840000005453,235.88551589999997,None,,,,,,,,,,,,,3,001,2022_Aug_05_1807,Flanker,2021.2.0,239.86509986597258,
congruent-right.jpg,1,k,right_arrow.png,right_arrow.png,right_arrow.png,right_arrow.png,right_arrow.png,right_arrow.png,right_arrow.png,,,,,,,,,5,3,33,2,,,,,,,,,236.34420189999992,None,,,,,,,,,,,,,,,,,,,,,,,,,,,,,,237.35387850000006,None,237.35387850000006,None,237.35387850000006,None,237.35387850000006,None,237.35387850000006,None,237.35387850000006,None,237.35387850000006,None,k,1,0.3435162999999193,237.35387850000006,None,,,,,,,,,,,,,3,001,2022_Aug_05_1807,Flanker,2021.2.0,239.86509986597258,
congruent-right.jpg,1,k,right_arrow.png,right_arrow.png,right_arrow.png,right_arrow.png,right_arrow.png,right_arrow.png,right_arrow.png,,,,,,,,,5,4,34,2,,,,,,,,,237.71244479999996,None,,,,,,,,,,,,,,,,,,,,,,,,,,,,,,238.7263664000002,None,238.7263664000002,None,238.7263664000002,None,238.7263664000002,None,238.7263664000002,None,238.7263664000002,None,238.7263664000002,None,k,1,0.37925059999997757,238.7263664000002,None,,,,,,,,,,,,,3,001,2022_Aug_05_1807,Flanker,2021.2.0,239.86509986597258,
neutral right,0,k,neutral.png,neutral.png,neutral.png,right_arrow.png,neutral.png,neutral.png,neutral.png,,,,,,,,,5,5,35,5,,,,,,,,,239.117972,None,,,,,,,,,,,,,,,,,,,,,,,,,,,,,,240.13154050000003,None,240.13154050000003,None,240.13154050000003,None,240.13154050000003,None,240.13154050000003,None,240.13154050000003,None,240.13154050000003,None,k,1,0.5586456000000908,240.13154050000003,None,,,,,,,,,,,,,3,001,2022_Aug_05_1807,Flanker,2021.2.0,239.86509986597258,
incongruent-left.jpg,0,a,right_arrow.png,right_arrow.png,right_arrow.png,left_arrow.png,right_arrow.png,right_arrow.png,right_arrow.png,,,,,,,,,6,0,36,1,,,,,,,,,240.70737280000003,None,,,,,,,,,,,,,,,,,,,,,,,,,,,,,,241.72106090000034,None,241.72106090000034,None,241.72106090000034,None,241.72106090000034,None,241.72106090000034,None,241.72106090000034,None,241.72106090000034,None,a,1,0.4009264000001167,241.72106090000034,None,,,,,,,,,,,,,3,001,2022_Aug_05_1807,Flanker,2021.2.0,239.86509986597258,
congruent-left.jpg,1,a,left_arrow.png,left_arrow.png,left_arrow.png,left_arrow.png,left_arrow.png,left_arrow.png,left_arrow.png,,,,,,,,,6,1,37,0,,,,,,,,,242.13791450000008,None,,,,,,,,,,,,,,,,,,,,,,,,,,,,,,243.1517901000002,None,243.1517901000002,None,243.1517901000002,None,243.1517901000002,None,243.1517901000002,None,243.1517901000002,None,243.1517901000002,None,a,1,0.31436470000016925,243.1517901000002,None,,,,,,,,,,,,,3,001,2022_Aug_05_1807,Flanker,2021.2.0,239.86509986597258,
neutral right,0,k,neutral.png,neutral.png,neutral.png,right_arrow.png,neutral.png,neutral.png,neutral.png,,,,,,,,,6,2,38,5,,,,,,,,,243.48540140000023,None,,,,,,,,,,,,,,,,,,,,,,,,,,,,,,244.5028470000002,None,244.5028470000002,None,244.5028470000002,None,244.5028470000002,None,244.5028470000002,None,244.5028470000002,None,244.5028470000002,None,k,1,0.46751910000011776,244.5028470000002,None,,,,,,,,,,,,,3,001,2022_Aug_05_1807,Flanker,2021.2.0,239.86509986597258,
neutral right,0,k,neutral.png,neutral.png,neutral.png,right_arrow.png,neutral.png,neutral.png,neutral.png,,,,,,,,,6,3,39,5,,,,,,,,,244.98667330000035,None,,,,,,,,,,,,,,,,,,,,,,,,,,,,,,246.00029970000014,None,246.00029970000014,None,246.00029970000014,None,246.00029970000014,None,246.00029970000014,None,246.00029970000014,None,246.00029970000014,None,k,1,0.3782799000000523,246.00029970000014,None,,,,,,,,,,,,,3,001,2022_Aug_05_1807,Flanker,2021.2.0,239.86509986597258,
incongruent-right.jpg,0,k,left_arrow.png,left_arrow.png,left_arrow.png,right_arrow.png,left_arrow.png,left_arrow.png,left_arrow.png,,,,,,,,,6,4,40,3,,,,,,,,,246.3923460000001,None,,,,,,,,,,,,,,,,,,,,,,,,,,,,,,247.40592890000016,None,247.40592890000016,None,247.40592890000016,None,247.40592890000016,None,247.40592890000016,None,247.40592890000016,None,247.40592890000016,None,k,1,0.4688234999998713,247.40592890000016,None,,,,,,,,,,,,,3,001,2022_Aug_05_1807,Flanker,2021.2.0,239.86509986597258,
neutral left,0,a,neutral.png,neutral.png,neutral.png,left_arrow.png,neutral.png,neutral.png,neutral.png,,,,,,,,,6,5,41,4,,,,,,,,,247.88975470000014,None,,,,,,,,,,,,,,,,,,,,,,,,,,,,,,248.89951770000016,None,248.89951770000016,None,248.89951770000016,None,248.89951770000016,None,248.89951770000016,None,248.89951770000016,None,248.89951770000016,None,a,1,0.4634292999999161,248.89951770000016,None,,,,,,,,,,,,,3,001,2022_Aug_05_1807,Flanker,2021.2.0,239.86509986597258,
congruent-right.jpg,1,k,right_arrow.png,right_arrow.png,right_arrow.png,right_arrow.png,right_arrow.png,right_arrow.png,right_arrow.png,,,,,,,,,7,0,42,2,,,,,,,,,249.37485659999993,None,,,,,,,,,,,,,,,,,,,,,,,,,,,,,,250.38845530000026,None,250.38845530000026,None,250.38845530000026,None,250.38845530000026,None,250.38845530000026,None,250.38845530000026,None,250.38845530000026,None,k,1,0.39099579999992784,250.38845530000026,None,,,,,,,,,,,,,3,001,2022_Aug_05_1807,Flanker,2021.2.0,239.86509986597258,
incongruent-right.jpg,0,k,left_arrow.png,left_arrow.png,left_arrow.png,right_arrow.png,left_arrow.png,left_arrow.png,left_arrow.png,,,,,,,,,7,1,43,3,,,,,,,,,250.79706890000034,None,,,,,,,,,,,,,,,,,,,,,,,,,,,,,,251.80647399999998,None,251.80647399999998,None,251.80647399999998,None,251.80647399999998,None,251.80647399999998,None,251.80647399999998,None,251.80647399999998,None,k,1,0.43689599999970596,251.80647399999998,None,,,,,,,,,,,,,3,001,2022_Aug_05_1807,Flanker,2021.2.0,239.86509986597258,
congruent-left.jpg,1,a,left_arrow.png,left_arrow.png,left_arrow.png,left_arrow.png,left_arrow.png,left_arrow.png,left_arrow.png,,,,,,,,,7,2,44,0,,,,,,,,,252.25690340000028,None,,,,,,,,,,,,,,,,,,,,,,,,,,,,,,253.2666876000003,None,253.2666876000003,None,253.2666876000003,None,253.2666876000003,None,253.2666876000003,None,253.2666876000003,None,253.2666876000003,None,a,1,0.4333281000003808,253.2666876000003,None,,,,,,,,,,,,,3,001,2022_Aug_05_1807,Flanker,2021.2.0,239.86509986597258,
congruent-left.jpg,1,a,left_arrow.png,left_arrow.png,left_arrow.png,left_arrow.png,left_arrow.png,left_arrow.png,left_arrow.png,,,,,,,,,7,3,45,0,,,,,,,,,253.71683650000023,None,,,,,,,,,,,,,,,,,,,,,,,,,,,,,,254.7305395000003,None,254.7305395000003,None,254.7305395000003,None,254.7305395000003,None,254.7305395000003,None,254.7305395000003,None,254.7305395000003,None,a,1,0.5212053999998716,254.7305395000003,None,,,,,,,,,,,,,3,001,2022_Aug_05_1807,Flanker,2021.2.0,239.86509986597258,
neutral left,0,a,neutral.png,neutral.png,neutral.png,left_arrow.png,neutral.png,neutral.png,neutral.png,,,,,,,,,7,4,46,4,,,,,,,,,255.26421990000017,None,,,,,,,,,,,,,,,,,,,,,,,,,,,,,,256.27809290000005,None,256.27809290000005,None,256.27809290000005,None,256.27809290000005,None,256.27809290000005,None,256.27809290000005,None,256.27809290000005,None,a,1,0.366128099999969,256.27809290000005,None,,,,,,,,,,,,,3,001,2022_Aug_05_1807,Flanker,2021.2.0,239.86509986597258,
neutral left,0,a,neutral.png,neutral.png,neutral.png,left_arrow.png,neutral.png,neutral.png,neutral.png,,,,,,,,,7,5,47,4,,,,,,,,,256.6615303000003,None,,,,,,,,,,,,,,,,,,,,,,,,,,,,,,257.67539460000035,None,257.67539460000035,None,257.67539460000035,None,257.67539460000035,None,257.67539460000035,None,257.67539460000035,None,257.67539460000035,None,a,1,0.4087019000003238,257.67539460000035,None,,,,,,,,,,,,,3,001,2022_Aug_05_1807,Flanker,2021.2.0,239.86509986597258,
,,,,,,,,,,,,,,,,,,,,,,,,,,,,,,,,,,,,,,,,,,,,,,,,,,,,,,,,,,,,,,,,,,,,,,,,,,,,,,,,258.1130909000003,None,space,11.524580799999967,258.1130909000003,None,,,,,,,3,001,2022_Aug_05_1807,Flanker,2021.2.0,239.86509986597258,
neutral right,0,k,neutral.png,neutral.png,neutral.png,right_arrow.png,neutral.png,neutral.png,neutral.png,,,,,,,,,,,,,0,0,0,5,,,,,269.65873120000015,None,,,,,,,,,,,,,,,,,,,,,,,,,,,,,,270.6680822000003,None,270.6680822000003,None,270.6680822000003,None,270.6680822000003,None,270.6680822000003,None,270.6680822000003,None,270.6680822000003,None,k,1,0.44182199999977456,270.6680822000003,None,,,,,,,,,,,,,3,001,2022_Aug_05_1807,Flanker,2021.2.0,239.86509986597258,
incongruent-right.jpg,0,k,left_arrow.png,left_arrow.png,left_arrow.png,right_arrow.png,left_arrow.png,left_arrow.png,left_arrow.png,,,,,,,,,,,,,0,1,1,3,,,,,271.12686950000034,None,,,,,,,,,,,,,,,,,,,,,,,,,,,,,,272.1404401,None,272.1404401,None,272.1404401,None,272.1404401,None,272.1404401,None,272.1404401,None,272.1404401,None,k,1,0.3456332000000657,272.1404401,None,,,,,,,,,,,,,3,001,2022_Aug_05_1807,Flanker,2021.2.0,239.86509986597258,
congruent-left.jpg,1,a,left_arrow.png,left_arrow.png,left_arrow.png,left_arrow.png,left_arrow.png,left_arrow.png,left_arrow.png,,,,,,,,,,,,,0,2,2,0,,,,,272.49915899999996,None,,,,,,,,,,,,,,,,,,,,,,,,,,,,,,273.51286960000016,None,273.51286960000016,None,273.51286960000016,None,273.51286960000016,None,273.51286960000016,None,273.51286960000016,None,273.51286960000016,None,a,1,0.41341700000020865,273.51286960000016,None,,,,,,,,,,,,,3,001,2022_Aug_05_1807,Flanker,2021.2.0,239.86509986597258,
incongruent-right.jpg,0,k,left_arrow.png,left_arrow.png,left_arrow.png,right_arrow.png,left_arrow.png,left_arrow.png,left_arrow.png,,,,,,,,,,,,,0,3,3,3,,,,,273.93827180000017,None,,,,,,,,,,,,,,,,,,,,,,,,,,,,,,274.9517581,None,274.9517581,None,274.9517581,None,274.9517581,None,274.9517581,None,274.9517581,None,274.9517581,None,k,1,0.4146555000002081,274.9517581,None,,,,,,,,,,,,,3,001,2022_Aug_05_1807,Flanker,2021.2.0,239.86509986597258,
congruent-right.jpg,1,k,right_arrow.png,right_arrow.png,right_arrow.png,right_arrow.png,right_arrow.png,right_arrow.png,right_arrow.png,,,,,,,,,,,,,0,4,4,2,,,,,275.38554079999994,None,,,,,,,,,,,,,,,,,,,,,,,,,,,,,,276.395031,None,276.395031,None,276.395031,None,276.395031,None,276.395031,None,276.395031,None,276.395031,None,k,1,0.3875803000000815,276.395031,None,,,,,,,,,,,,,3,001,2022_Aug_05_1807,Flanker,2021.2.0,239.86509986597258,
congruent-right.jpg,1,k,right_arrow.png,right_arrow.png,right_arrow.png,right_arrow.png,right_arrow.png,right_arrow.png,right_arrow.png,,,,,,,,,,,,,0,5,5,2,,,,,276.7954486000003,None,,,,,,,,,,,,,,,,,,,,,,,,,,,,,,277.8089165000001,None,277.8089165000001,None,277.8089165000001,None,277.8089165000001,None,277.8089165000001,None,277.8089165000001,None,277.8089165000001,None,k,1,0.3503018000001248,277.8089165000001,None,,,,,,,,,,,,,3,001,2022_Aug_05_1807,Flanker,2021.2.0,239.86509986597258,
neutral left,0,a,neutral.png,neutral.png,neutral.png,left_arrow.png,neutral.png,neutral.png,neutral.png,,,,,,,,,,,,,1,0,6,4,,,,,278.17596010000034,None,,,,,,,,,,,,,,,,,,,,,,,,,,,,,,279.1856680000001,None,279.1856680000001,None,279.1856680000001,None,279.1856680000001,None,279.1856680000001,None,279.1856680000001,None,279.1856680000001,None,a,1,0.38930459999983213,279.1856680000001,None,,,,,,,,,,,,,3,001,2022_Aug_05_1807,Flanker,2021.2.0,239.86509986597258,
neutral left,0,a,neutral.png,neutral.png,neutral.png,left_arrow.png,neutral.png,neutral.png,neutral.png,,,,,,,,,,,,,1,1,7,4,,,,,279.5858108000002,None,,,,,,,,,,,,,,,,,,,,,,,,,,,,,,280.5996161000003,None,280.5996161000003,None,280.5996161000003,None,280.5996161000003,None,280.5996161000003,None,280.5996161000003,None,280.5996161000003,None,a,1,0.35154170000032536,280.5996161000003,None,,,,,,,,,,,,,3,001,2022_Aug_05_1807,Flanker,2021.2.0,239.86509986597258,
incongruent-left.jpg,0,a,right_arrow.png,right_arrow.png,right_arrow.png,left_arrow.png,right_arrow.png,right_arrow.png,right_arrow.png,,,,,,,,,,,,,1,2,8,1,,,,,280.96644460000016,None,,,,,,,,,,,,,,,,,,,,,,,,,,,,,,281.98002670000005,None,281.98002670000005,None,281.98002670000005,None,281.98002670000005,None,281.98002670000005,None,281.98002670000005,None,281.98002670000005,None,a,1,0.39532469999994646,281.98002670000005,None,,,,,,,,,,,,,3,001,2022_Aug_05_1807,Flanker,2021.2.0,239.86509986597258,
congruent-right.jpg,1,k,right_arrow.png,right_arrow.png,right_arrow.png,right_arrow.png,right_arrow.png,right_arrow.png,right_arrow.png,,,,,,,,,,,,,1,3,9,2,,,,,282.38877690000027,None,,,,,,,,,,,,,,,,,,,,,,,,,,,,,,283.4026226000001,None,283.4026226000001,None,283.4026226000001,None,283.4026226000001,None,283.4026226000001,None,283.4026226000001,None,283.4026226000001,None,k,1,0.4049433999998655,283.4026226000001,None,,,,,,,,,,,,,3,001,2022_Aug_05_1807,Flanker,2021.2.0,239.86509986597258,
neutral right,0,k,neutral.png,neutral.png,neutral.png,right_arrow.png,neutral.png,neutral.png,neutral.png,,,,,,,,,,,,,1,4,10,5,,,,,283.8195528000001,None,,,,,,,,,,,,,,,,,,,,,,,,,,,,,,284.83731650000027,None,284.83731650000027,None,284.83731650000027,None,284.83731650000027,None,284.83731650000027,None,284.83731650000027,None,284.83731650000027,None,k,1,0.3383822999999211,284.83731650000027,None,,,,,,,,,,,,,3,001,2022_Aug_05_1807,Flanker,2021.2.0,239.86509986597258,
incongruent-left.jpg,0,a,right_arrow.png,right_arrow.png,right_arrow.png,left_arrow.png,right_arrow.png,right_arrow.png,right_arrow.png,,,,,,,,,,,,,1,5,11,1,,,,,285.18756540000004,None,,,,,,,,,,,,,,,,,,,,,,,,,,,,,,286.1969841,None,286.1969841,None,286.1969841,None,286.1969841,None,286.1969841,None,286.1969841,None,286.1969841,None,a,1,0.3869257999999718,286.1969841,None,,,,,,,,,,,,,3,001,2022_Aug_05_1807,Flanker,2021.2.0,239.86509986597258,
incongruent-right.jpg,0,k,left_arrow.png,left_arrow.png,left_arrow.png,right_arrow.png,left_arrow.png,left_arrow.png,left_arrow.png,,,,,,,,,,,,,2,0,12,3,,,,,286.5974679000001,None,,,,,,,,,,,,,,,,,,,,,,,,,,,,,,287.61096829999997,None,287.61096829999997,None,287.61096829999997,None,287.61096829999997,None,287.61096829999997,None,287.61096829999997,None,287.61096829999997,None,k,1,0.2851218999999219,287.61096829999997,None,,,,,,,,,,,,,3,001,2022_Aug_05_1807,Flanker,2021.2.0,239.86509986597258,
congruent-left.jpg,1,a,left_arrow.png,left_arrow.png,left_arrow.png,left_arrow.png,left_arrow.png,left_arrow.png,left_arrow.png,,,,,,,,,,,,,2,1,13,0,,,,,287.9112911000002,None,,,,,,,,,,,,,,,,,,,,,,,,,,,,,,288.92516060000025,None,288.92516060000025,None,288.92516060000025,None,288.92516060000025,None,288.92516060000025,None,288.92516060000025,None,288.92516060000025,None,a,1,0.37912310000001526,288.92516060000025,None,,,,,,,,,,,,,3,001,2022_Aug_05_1807,Flanker,2021.2.0,239.86509986597258,
neutral right,0,k,neutral.png,neutral.png,neutral.png,right_arrow.png,neutral.png,neutral.png,neutral.png,,,,,,,,,,,,,2,2,14,5,,,,,289.3169345000001,None,,,,,,,,,,,,,,,,,,,,,,,,,,,,,,290.3307804000001,None,290.3307804000001,None,290.3307804000001,None,290.3307804000001,None,290.3307804000001,None,290.3307804000001,None,290.3307804000001,None,k,1,0.36602570000013657,290.3307804000001,None,,,,,,,,,,,,,3,001,2022_Aug_05_1807,Flanker,2021.2.0,239.86509986597258,
neutral left,0,a,neutral.png,neutral.png,neutral.png,left_arrow.png,neutral.png,neutral.png,neutral.png,,,,,,,,,,,,,2,3,15,4,,,,,290.7143103000003,None,,,,,,,,,,,,,,,,,,,,,,,,,,,,,,291.7237094000002,None,291.7237094000002,None,291.7237094000002,None,291.7237094000002,None,291.7237094000002,None,291.7237094000002,None,291.7237094000002,None,a,1,0.34124640000027284,291.7237094000002,None,,,,,,,,,,,,,3,001,2022_Aug_05_1807,Flanker,2021.2.0,239.86509986597258,
incongruent-left.jpg,0,a,right_arrow.png,right_arrow.png,right_arrow.png,left_arrow.png,right_arrow.png,right_arrow.png,right_arrow.png,,,,,,,,,,,,,2,4,16,1,,,,,292.08236810000017,None,,,,,,,,,,,,,,,,,,,,,,,,,,,,,,293.1004181000003,None,293.1004181000003,None,293.1004181000003,None,293.1004181000003,None,293.1004181000003,None,293.1004181000003,None,293.1004181000003,None,a,1,0.46043379999991885,293.1004181000003,None,,,,,,,,,,,,,3,001,2022_Aug_05_1807,Flanker,2021.2.0,239.86509986597258,
neutral left,0,a,neutral.png,neutral.png,neutral.png,left_arrow.png,neutral.png,neutral.png,neutral.png,,,,,,,,,,,,,2,5,17,4,,,,,293.5759049000003,None,,,,,,,,,,,,,,,,,,,,,,,,,,,,,,294.58917420000034,None,294.58917420000034,None,294.58917420000034,None,294.58917420000034,None,294.58917420000034,None,294.58917420000034,None,294.58917420000034,None,a,1,0.44394800000009127,294.58917420000034,None,,,,,,,,,,,,,3,001,2022_Aug_05_1807,Flanker,2021.2.0,239.86509986597258,
neutral right,0,k,neutral.png,neutral.png,neutral.png,right_arrow.png,neutral.png,neutral.png,neutral.png,,,,,,,,,,,,,3,0,18,5,,,,,295.04800490000025,None,,,,,,,,,,,,,,,,,,,,,,,,,,,,,,296.05739070000027,None,296.05739070000027,None,296.05739070000027,None,296.05739070000027,None,296.05739070000027,None,296.05739070000027,None,296.05739070000027,None,k,1,0.4798737999999503,296.05739070000027,None,,,,,,,,,,,,,3,001,2022_Aug_05_1807,Flanker,2021.2.0,239.86509986597258,
congruent-left.jpg,1,a,left_arrow.png,left_arrow.png,left_arrow.png,left_arrow.png,left_arrow.png,left_arrow.png,left_arrow.png,,,,,,,,,,,,,3,1,19,0,,,,,296.54966000000013,None,,,,,,,,,,,,,,,,,,,,,,,,,,,,,,297.56330190000017,None,297.56330190000017,None,297.56330190000017,None,297.56330190000017,None,297.56330190000017,None,297.56330190000017,None,297.56330190000017,None,a,1,0.44612599999982194,297.56330190000017,None,,,,,,,,,,,,,3,001,2022_Aug_05_1807,Flanker,2021.2.0,239.86509986597258,
incongruent-right.jpg,0,k,left_arrow.png,left_arrow.png,left_arrow.png,right_arrow.png,left_arrow.png,left_arrow.png,left_arrow.png,,,,,,,,,,,,,3,2,20,3,,,,,298.0219849,None,,,,,,,,,,,,,,,,,,,,,,,,,,,,,,299.0313705000003,None,299.0313705000003,None,299.0313705000003,None,299.0313705000003,None,299.0313705000003,None,299.0313705000003,None,299.0313705000003,None,k,1,0.4503899999999703,299.0313705000003,None,,,,,,,,,,,,,3,001,2022_Aug_05_1807,Flanker,2021.2.0,239.86509986597258,
neutral right,0,k,neutral.png,neutral.png,neutral.png,right_arrow.png,neutral.png,neutral.png,neutral.png,,,,,,,,,,,,,3,3,21,5,,,,,299.4988612000002,None,,,,,,,,,,,,,,,,,,,,,,,,,,,,,,300.51213110000026,None,300.51213110000026,None,300.51213110000026,None,300.51213110000026,None,300.51213110000026,None,300.51213110000026,None,300.51213110000026,None,k,1,0.3937033999995947,300.51213110000026,None,,,,,,,,,,,,,3,001,2022_Aug_05_1807,Flanker,2021.2.0,239.86509986597258,
incongruent-left.jpg,0,a,right_arrow.png,right_arrow.png,right_arrow.png,left_arrow.png,right_arrow.png,right_arrow.png,right_arrow.png,,,,,,,,,,,,,3,4,22,1,,,,,300.9208745000001,None,,,,,,,,,,,,,,,,,,,,,,,,,,,,,,301.93445999999994,None,301.93445999999994,None,301.93445999999994,None,301.93445999999994,None,301.93445999999994,None,301.93445999999994,None,301.93445999999994,None,a,1,0.43562999999994645,301.93445999999994,None,,,,,,,,,,,,,3,001,2022_Aug_05_1807,Flanker,2021.2.0,239.86509986597258,
neutral right,0,k,neutral.png,neutral.png,neutral.png,right_arrow.png,neutral.png,neutral.png,neutral.png,,,,,,,,,,,,,3,5,23,5,,,,,302.3853616000001,None,,,,,,,,,,,,,,,,,,,,,,,,,,,,,,303.39459810000017,None,303.39459810000017,None,303.39459810000017,None,303.39459810000017,None,303.39459810000017,None,303.39459810000017,None,303.39459810000017,None,k,1,0.31160060000001977,303.39459810000017,None,,,,,,,,,,,,,3,001,2022_Aug_05_1807,Flanker,2021.2.0,239.86509986597258,
congruent-right.jpg,1,k,right_arrow.png,right_arrow.png,right_arrow.png,right_arrow.png,right_arrow.png,right_arrow.png,right_arrow.png,,,,,,,,,,,,,4,0,24,2,,,,,303.7196680000002,None,,,,,,,,,,,,,,,,,,,,,,,,,,,,,,304.7290995000003,None,304.7290995000003,None,304.7290995000003,None,304.7290995000003,None,304.7290995000003,None,304.7290995000003,None,304.7290995000003,None,k,1,0.33730229999991934,304.7290995000003,None,,,,,,,,,,,,,3,001,2022_Aug_05_1807,Flanker,2021.2.0,239.86509986597258,
incongruent-right.jpg,0,k,left_arrow.png,left_arrow.png,left_arrow.png,right_arrow.png,left_arrow.png,left_arrow.png,left_arrow.png,,,,,,,,,,,,,4,1,25,3,,,,,305.0794430000001,None,,,,,,,,,,,,,,,,,,,,,,,,,,,,,,306.0932593000002,None,306.0932593000002,None,306.0932593000002,None,306.0932593000002,None,306.0932593000002,None,306.0932593000002,None,306.0932593000002,None,a,0,0.31731360000003406,306.0932593000002,None,,,,,,,,,,,,,3,001,2022_Aug_05_1807,Flanker,2021.2.0,239.86509986597258,
congruent-left.jpg,1,a,left_arrow.png,left_arrow.png,left_arrow.png,left_arrow.png,left_arrow.png,left_arrow.png,left_arrow.png,,,,,,,,,,,,,4,2,26,0,,,,,306.4267279999999,None,,,,,,,,,,,,,,,,,,,,,,,,,,,,,,307.44029390000014,None,307.44029390000014,None,307.44029390000014,None,307.44029390000014,None,307.44029390000014,None,307.44029390000014,None,307.44029390000014,None,a,1,0.4184597999997095,307.44029390000014,None,,,,,,,,,,,,,3,001,2022_Aug_05_1807,Flanker,2021.2.0,239.86509986597258,
congruent-left.jpg,1,a,left_arrow.png,left_arrow.png,left_arrow.png,left_arrow.png,left_arrow.png,left_arrow.png,left_arrow.png,,,,,,,,,,,,,4,3,27,0,,,,,307.87405820000004,None,,,,,,,,,,,,,,,,,,,,,,,,,,,,,,308.8920277000002,None,308.8920277000002,None,308.8920277000002,None,308.8920277000002,None,308.8920277000002,None,308.8920277000002,None,308.8920277000002,None,a,1,0.4869535999996515,308.8920277000002,None,,,,,,,,,,,,,3,001,2022_Aug_05_1807,Flanker,2021.2.0,239.86509986597258,
neutral right,0,k,neutral.png,neutral.png,neutral.png,right_arrow.png,neutral.png,neutral.png,neutral.png,,,,,,,,,,,,,4,4,28,5,,,,,309.39260730000024,None,,,,,,,,,,,,,,,,,,,,,,,,,,,,,,310.4017508000002,None,310.4017508000002,None,310.4017508000002,None,310.4017508000002,None,310.4017508000002,None,310.4017508000002,None,310.4017508000002,None,k,1,0.36156519999985903,310.4017508000002,None,,,,,,,,,,,,,3,001,2022_Aug_05_1807,Flanker,2021.2.0,239.86509986597258,
congruent-left.jpg,1,a,left_arrow.png,left_arrow.png,left_arrow.png,left_arrow.png,left_arrow.png,left_arrow.png,left_arrow.png,,,,,,,,,,,,,4,5,29,0,,,,,310.77741270000024,None,,,,,,,,,,,,,,,,,,,,,,,,,,,,,,311.79098780000004,None,311.79098780000004,None,311.79098780000004,None,311.79098780000004,None,311.79098780000004,None,311.79098780000004,None,311.79098780000004,None,a,1,0.42865830000027927,311.79098780000004,None,,,,,,,,,,,,,3,001,2022_Aug_05_1807,Flanker,2021.2.0,239.86509986597258,
congruent-right.jpg,1,k,right_arrow.png,right_arrow.png,right_arrow.png,right_arrow.png,right_arrow.png,right_arrow.png,right_arrow.png,,,,,,,,,,,,,5,0,30,2,,,,,312.2328554999999,None,,,,,,,,,,,,,,,,,,,,,,,,,,,,,,313.24667880000015,None,313.24667880000015,None,313.24667880000015,None,313.24667880000015,None,313.24667880000015,None,313.24667880000015,None,313.24667880000015,None,k,1,0.39680730000009135,313.24667880000015,None,,,,,,,,,,,,,3,001,2022_Aug_05_1807,Flanker,2021.2.0,239.86509986597258,
neutral left,0,a,neutral.png,neutral.png,neutral.png,left_arrow.png,neutral.png,neutral.png,neutral.png,,,,,,,,,,,,,5,1,31,4,,,,,313.6552627000001,None,,,,,,,,,,,,,,,,,,,,,,,,,,,,,,314.66904980000027,None,314.66904980000027,None,314.66904980000027,None,314.66904980000027,None,314.66904980000027,None,314.66904980000027,None,314.66904980000027,None,a,1,0.4466576000004352,314.66904980000027,None,,,,,,,,,,,,,3,001,2022_Aug_05_1807,Flanker,2021.2.0,239.86509986597258,
congruent-right.jpg,1,k,right_arrow.png,right_arrow.png,right_arrow.png,right_arrow.png,right_arrow.png,right_arrow.png,right_arrow.png,,,,,,,,,,,,,5,2,32,2,,,,,315.12795840000035,None,,,,,,,,,,,,,,,,,,,,,,,,,,,,,,316.1414198000002,None,316.1414198000002,None,316.1414198000002,None,316.1414198000002,None,316.1414198000002,None,316.1414198000002,None,316.1414198000002,None,k,1,0.3748553999998876,316.1414198000002,None,,,,,,,,,,,,,3,001,2022_Aug_05_1807,Flanker,2021.2.0,239.86509986597258,
neutral right,0,k,neutral.png,neutral.png,neutral.png,right_arrow.png,neutral.png,neutral.png,neutral.png,,,,,,,,,,,,,5,3,33,5,,,,,316.53326229999993,None,,,,,,,,,,,,,,,,,,,,,,,,,,,,,,317.5470594000003,None,317.5470594000003,None,317.5470594000003,None,317.5470594000003,None,317.5470594000003,None,317.5470594000003,None,317.5470594000003,None,k,1,0.3770662000001721,317.5470594000003,None,,,,,,,,,,,,,3,001,2022_Aug_05_1807,Flanker,2021.2.0,239.86509986597258,
incongruent-right.jpg,0,k,left_arrow.png,left_arrow.png,left_arrow.png,right_arrow.png,left_arrow.png,left_arrow.png,left_arrow.png,,,,,,,,,,,,,5,4,34,3,,,,,317.9391856000002,None,,,,,,,,,,,,,,,,,,,,,,,,,,,,,,318.9524862000003,None,318.9524862000003,None,318.9524862000003,None,318.9524862000003,None,318.9524862000003,None,318.9524862000003,None,318.9524862000003,None,k,1,0.48382989999981874,318.9524862000003,None,,,,,,,,,,,,,3,001,2022_Aug_05_1807,Flanker,2021.2.0,239.86509986597258,
congruent-right.jpg,1,k,right_arrow.png,right_arrow.png,right_arrow.png,right_arrow.png,right_arrow.png,right_arrow.png,right_arrow.png,,,,,,,,,,,,,5,5,35,2,,,,,319.4532684999999,None,,,,,,,,,,,,,,,,,,,,,,,,,,,,,,320.4623965999999,None,320.4623965999999,None,320.4623965999999,None,320.4623965999999,None,320.4623965999999,None,320.4623965999999,None,320.4623965999999,None,k,1,0.40612670000018625,320.4623965999999,None,,,,,,,,,,,,,3,001,2022_Aug_05_1807,Flanker,2021.2.0,239.86509986597258,
incongruent-left.jpg,0,a,right_arrow.png,right_arrow.png,right_arrow.png,left_arrow.png,right_arrow.png,right_arrow.png,right_arrow.png,,,,,,,,,,,,,6,0,36,1,,,,,320.88812400000006,None,,,,,,,,,,,,,,,,,,,,,,,,,,,,,,321.90174690000003,None,321.90174690000003,None,321.90174690000003,None,321.90174690000003,None,321.90174690000003,None,321.90174690000003,None,321.90174690000003,None,a,1,0.4469220999999379,321.90174690000003,None,,,,,,,,,,,,,3,001,2022_Aug_05_1807,Flanker,2021.2.0,239.86509986597258,
neutral left,0,a,neutral.png,neutral.png,neutral.png,left_arrow.png,neutral.png,neutral.png,neutral.png,,,,,,,,,,,,,6,1,37,4,,,,,322.3605755000003,None,,,,,,,,,,,,,,,,,,,,,,,,,,,,,,323.3697384000002,None,323.3697384000002,None,323.3697384000002,None,323.3697384000002,None,323.3697384000002,None,323.3697384000002,None,323.3697384000002,None,a,1,0.4031529999997474,323.3697384000002,None,,,,,,,,,,,,,3,001,2022_Aug_05_1807,Flanker,2021.2.0,239.86509986597258,
congruent-left.jpg,1,a,left_arrow.png,left_arrow.png,left_arrow.png,left_arrow.png,left_arrow.png,left_arrow.png,left_arrow.png,,,,,,,,,,,,,6,2,38,0,,,,,323.78708240000014,None,,,,,,,,,,,,,,,,,,,,,,,,,,,,,,324.8007143,None,324.8007143,None,324.8007143,None,324.8007143,None,324.8007143,None,324.8007143,None,324.8007143,None,a,1,0.4523804000000382,324.8007143,None,,,,,,,,,,,,,3,001,2022_Aug_05_1807,Flanker,2021.2.0,239.86509986597258,
congruent-left.jpg,1,a,left_arrow.png,left_arrow.png,left_arrow.png,left_arrow.png,left_arrow.png,left_arrow.png,left_arrow.png,,,,,,,,,,,,,6,3,39,0,,,,,325.2674741000001,None,,,,,,,,,,,,,,,,,,,,,,,,,,,,,,326.2768959,None,326.2768959,None,326.2768959,None,326.2768959,None,326.2768959,None,326.2768959,None,326.2768959,None,a,1,0.40836510000008275,326.2768959,None,,,,,,,,,,,,,3,001,2022_Aug_05_1807,Flanker,2021.2.0,239.86509986597258,
neutral left,0,a,neutral.png,neutral.png,neutral.png,left_arrow.png,neutral.png,neutral.png,neutral.png,,,,,,,,,,,,,6,4,40,4,,,,,326.6982428000001,None,,,,,,,,,,,,,,,,,,,,,,,,,,,,,,327.71220300000004,None,327.71220300000004,None,327.71220300000004,None,327.71220300000004,None,327.71220300000004,None,327.71220300000004,None,327.71220300000004,None,a,1,0.44530159999976604,327.71220300000004,None,,,,,,,,,,,,,3,001,2022_Aug_05_1807,Flanker,2021.2.0,239.86509986597258,
neutral left,0,a,neutral.png,neutral.png,neutral.png,left_arrow.png,neutral.png,neutral.png,neutral.png,,,,,,,,,,,,,6,5,41,4,,,,,328.17087919999994,None,,,,,,,,,,,,,,,,,,,,,,,,,,,,,,329.1800254,None,329.1800254,None,329.1800254,None,329.1800254,None,329.1800254,None,329.1800254,None,329.1800254,None,a,1,0.41766599999982645,329.1800254,None,,,,,,,,,,,,,3,001,2022_Aug_05_1807,Flanker,2021.2.0,239.86509986597258,
incongruent-right.jpg,0,k,left_arrow.png,left_arrow.png,left_arrow.png,right_arrow.png,left_arrow.png,left_arrow.png,left_arrow.png,,,,,,,,,,,,,7,0,42,3,,,,,329.61374730000034,None,,,,,,,,,,,,,,,,,,,,,,,,,,,,,,330.62760130000015,None,330.62760130000015,None,330.62760130000015,None,330.62760130000015,None,330.62760130000015,None,330.62760130000015,None,330.62760130000015,None,k,1,0.3382271000000401,330.62760130000015,None,,,,,,,,,,,,,3,001,2022_Aug_05_1807,Flanker,2021.2.0,239.86509986597258,
incongruent-left.jpg,0,a,right_arrow.png,right_arrow.png,right_arrow.png,left_arrow.png,right_arrow.png,right_arrow.png,right_arrow.png,,,,,,,,,,,,,7,1,43,1,,,,,330.97771490000014,None,,,,,,,,,,,,,,,,,,,,,,,,,,,,,,331.9873788,None,331.9873788,None,331.9873788,None,331.9873788,None,331.9873788,None,331.9873788,None,331.9873788,None,a,1,0.37868180000032226,331.9873788,None,,,,,,,,,,,,,3,001,2022_Aug_05_1807,Flanker,2021.2.0,239.86509986597258,
congruent-right.jpg,1,k,right_arrow.png,right_arrow.png,right_arrow.png,right_arrow.png,right_arrow.png,right_arrow.png,right_arrow.png,,,,,,,,,,,,,7,2,44,2,,,,,332.3791777000001,None,,,,,,,,,,,,,,,,,,,,,,,,,,,,,,333.392957,None,333.392957,None,333.392957,None,333.392957,None,333.392957,None,333.392957,None,333.392957,None,k,1,0.36551349999990634,333.392957,None,,,,,,,,,,,,,3,001,2022_Aug_05_1807,Flanker,2021.2.0,239.86509986597258,
incongruent-left.jpg,0,a,right_arrow.png,right_arrow.png,right_arrow.png,left_arrow.png,right_arrow.png,right_arrow.png,right_arrow.png,,,,,,,,,,,,,7,3,45,1,,,,,333.7765661000003,None,,,,,,,,,,,,,,,,,,,,,,,,,,,,,,334.7902583,None,334.7902583,None,334.7902583,None,334.7902583,None,334.7902583,None,334.7902583,None,334.7902583,None,a,1,0.4002115000002959,334.7902583,None,,,,,,,,,,,,,3,001,2022_Aug_05_1807,Flanker,2021.2.0,239.86509986597258,
incongruent-left.jpg,0,a,right_arrow.png,right_arrow.png,right_arrow.png,left_arrow.png,right_arrow.png,right_arrow.png,right_arrow.png,,,,,,,,,,,,,7,4,46,1,,,,,335.20741560000033,None,,,,,,,,,,,,,,,,,,,,,,,,,,,,,,336.2165835999999,None,336.2165835999999,None,336.2165835999999,None,336.2165835999999,None,336.2165835999999,None,336.2165835999999,None,336.2165835999999,None,a,1,0.41398849999995946,336.2165835999999,None,,,,,,,,,,,,,3,001,2022_Aug_05_1807,Flanker,2021.2.0,239.86509986597258,
incongruent-right.jpg,0,k,left_arrow.png,left_arrow.png,left_arrow.png,right_arrow.png,left_arrow.png,left_arrow.png,left_arrow.png,,,,,,,,,,,,,7,5,47,3,,,,,336.6420228000002,None,,,,,,,,,,,,,,,,,,,,,,,,,,,,,,337.6558334000001,None,337.6558334000001,None,337.6558334000001,None,337.6558334000001,None,337.6558334000001,None,337.6558334000001,None,337.6558334000001,None,k,1,0.4152718999998797,337.6558334000001,None,,,,,,,,,,,,,3,001,2022_Aug_05_1807,Flanker,2021.2.0,239.86509986597258,
,,,,,,,,,,,,,,,,,,,,,,,,,,,,,,,,,,,,,,,,,,,,,,,,,,,,,,,,,,,,,,,,,,,,,,,,,,,,,,,,338.1019197999999,None,space,15.162898999999925,338.1019197999999,None,,,,,,,3,001,2022_Aug_05_1807,Flanker,2021.2.0,239.86509986597258,
,,,,,,,,,,,,,,,,,,,,,,,,,,,,,,,,,,,,,,,,,,,,,,,,,,,,,,,,,,,,,,,,,,,,,,,,,,,,,,,,,,,,,,353.27657390000013,None,space,17.85463750000008,353.27657390000013,None,3,001,2022_Aug_05_1807,Flanker,2021.2.0,239.86509986597258,
