images,congruentcy,corrAns,arrow_1,arrow_2,arrow_3,target,arrow_5,arrow_6,arrow_7,practice.thisRepN,practice.thisTrialN,practice.thisN,practice.thisIndex,trials.thisRepN,trials.thisTrialN,trials.thisN,trials.thisIndex,trials_2.thisRepN,trials_2.thisTrialN,trials_2.thisN,trials_2.thisIndex,trials_3.thisRepN,trials_3.thisTrialN,trials_3.thisN,trials_3.thisIndex,instr_text.started,instr_text.stopped,instr_resp.keys,instr_resp.rt,polygon.started,polygon.stopped,arrow1_.started,arrow1_.stopped,arrow2_.started,arrow2_.stopped,arrow3_.started,arrow3_.stopped,target_p.started,target_p.stopped,arrow5_.started,arrow5_.stopped,arrow6_.started,arrow6_.stopped,arrow7_.started,arrow7_.stopped,key_resp_P.keys,key_resp_P.corr,key_resp_P.rt,key_resp_P.started,key_resp_P.stopped,text_2.started,text_2.stopped,text_3.started,text_3.stopped,text_4.started,text_4.stopped,key_resp_2.keys,key_resp_2.rt,key_resp_2.started,key_resp_2.stopped,arrow1.started,arrow1.stopped,arrow2.started,arrow2.stopped,arrow3.started,arrow3.stopped,target_t.started,target_t.stopped,arrow5.started,arrow5.stopped,arrow6.started,arrow6.stopped,arrow7.started,arrow7.stopped,key_resp.keys,key_resp.corr,key_resp.rt,key_resp.started,key_resp.stopped,text_5.started,text_5.stopped,key_resp_3.keys,key_resp_3.rt,key_resp_3.started,key_resp_3.stopped,text_6.started,text_6.stopped,key_resp_4.keys,key_resp_4.rt,key_resp_4.started,key_resp_4.stopped,participant,session,date,expName,psychopyVersion,frameRate,
,,,,,,,,,,,,,,,,,,,,,,,,,,9.192679899999803,None,space,20.886134800000036,,,,,,,,,,,,,,,,,,,,,,,,,,,,,,,,,,,,,,,,,,,,,,,,,,,,,,,,,,,,,,,4,001,2022_Aug_07_1644,Flanker,2021.2.0,240.95688799179072,
neutral right,0,k,neutral.png,neutral.png,neutral.png,right_arrow.png,neutral.png,neutral.png,neutral.png,0,0,0,5,,,,,,,,,,,,,,,,,30.104718499999763,None,31.126428199999737,None,31.126428199999737,None,31.126428199999737,None,31.126428199999737,None,31.126428199999737,None,31.126428199999737,None,31.126428199999737,None,k,1,4.408928199999991,31.126428199999737,None,35.55610320000005,None,,,,,,,,,,,,,,,,,,,,,,,,,,,,,,,,,,,,,,,,4,001,2022_Aug_07_1644,Flanker,2021.2.0,240.95688799179072,
congruent-left.jpg,1,a,left_arrow.png,left_arrow.png,left_arrow.png,left_arrow.png,left_arrow.png,left_arrow.png,left_arrow.png,0,1,1,0,,,,,,,,,,,,,,,,,37.05805119999968,None,38.075592700000016,None,38.075592700000016,None,38.075592700000016,None,38.075592700000016,None,38.075592700000016,None,38.075592700000016,None,38.075592700000016,None,a,1,1.1244421999999759,38.075592700000016,None,39.21845260000009,None,,,,,,,,,,,,,,,,,,,,,,,,,,,,,,,,,,,,,,,,4,001,2022_Aug_07_1644,Flanker,2021.2.0,240.95688799179072,
incongruent-right.jpg,0,k,left_arrow.png,left_arrow.png,left_arrow.png,right_arrow.png,left_arrow.png,left_arrow.png,left_arrow.png,0,2,2,3,,,,,,,,,,,,,,,,,40.724135699999806,None,41.72936889999983,None,41.72936889999983,None,41.72936889999983,None,41.72936889999983,None,41.72936889999983,None,41.72936889999983,None,41.72936889999983,None,k,1,0.5829066999999668,41.72936889999983,None,42.32992259999992,None,,,,,,,,,,,,,,,,,,,,,,,,,,,,,,,,,,,,,,,,4,001,2022_Aug_07_1644,Flanker,2021.2.0,240.95688799179072,
incongruent-left.jpg,0,a,right_arrow.png,right_arrow.png,right_arrow.png,left_arrow.png,right_arrow.png,right_arrow.png,right_arrow.png,0,3,3,1,,,,,,,,,,,,,,,,,43.83152519999976,None,44.8369146,None,44.8369146,None,44.8369146,None,44.8369146,None,44.8369146,None,44.8369146,None,44.8369146,None,a,1,0.5238184999998339,44.8369146,None,45.379086299999926,None,,,,,,,,,,,,,,,,,,,,,,,,,,,,,,,,,,,,,,,,4,001,2022_Aug_07_1644,Flanker,2021.2.0,240.95688799179072,
congruent-right.jpg,1,k,right_arrow.png,right_arrow.png,right_arrow.png,right_arrow.png,right_arrow.png,right_arrow.png,right_arrow.png,0,4,4,2,,,,,,,,,,,,,,,,,46.88065340000003,None,47.89011709999977,None,47.89011709999977,None,47.89011709999977,None,47.89011709999977,None,47.89011709999977,None,47.89011709999977,None,47.89011709999977,None,k,1,0.575199199999588,47.89011709999977,None,48.48240709999982,None,,,,,,,,,,,,,,,,,,,,,,,,,,,,,,,,,,,,,,,,4,001,2022_Aug_07_1644,Flanker,2021.2.0,240.95688799179072,
neutral right,0,k,neutral.png,neutral.png,neutral.png,right_arrow.png,neutral.png,neutral.png,neutral.png,0,5,5,5,,,,,,,,,,,,,,,,,49.988177599999744,None,50.99348680000003,None,50.99348680000003,None,50.99348680000003,None,50.99348680000003,None,50.99348680000003,None,50.99348680000003,None,50.99348680000003,None,k,1,0.45598340000015014,50.99348680000003,None,51.460582899999736,None,,,,,,,,,,,,,,,,,,,,,,,,,,,,,,,,,,,,,,,,4,001,2022_Aug_07_1644,Flanker,2021.2.0,240.95688799179072,
congruent-left.jpg,1,a,left_arrow.png,left_arrow.png,left_arrow.png,left_arrow.png,left_arrow.png,left_arrow.png,left_arrow.png,1,0,6,0,,,,,,,,,,,,,,,,,52.966225699999995,None,53.97157190000007,None,53.97157190000007,None,53.97157190000007,None,53.97157190000007,None,53.97157190000007,None,53.97157190000007,None,53.97157190000007,None,a,1,0.4143164999995861,53.97157190000007,None,54.40535849999969,None,,,,,,,,,,,,,,,,,,,,,,,,,,,,,,,,,,,,,,,,4,001,2022_Aug_07_1644,Flanker,2021.2.0,240.95688799179072,
congruent-left.jpg,1,a,left_arrow.png,left_arrow.png,left_arrow.png,left_arrow.png,left_arrow.png,left_arrow.png,left_arrow.png,1,1,7,0,,,,,,,,,,,,,,,,,55.90693199999987,None,56.920576399999845,None,56.920576399999845,None,56.920576399999845,None,56.920576399999845,None,56.920576399999845,None,56.920576399999845,None,56.920576399999845,None,a,1,0.5137122000001,56.920576399999845,None,57.44607760000008,None,,,,,,,,,,,,,,,,,,,,,,,,,,,,,,,,,,,,,,,,4,001,2022_Aug_07_1644,Flanker,2021.2.0,240.95688799179072,
incongruent-left.jpg,0,a,right_arrow.png,right_arrow.png,right_arrow.png,left_arrow.png,right_arrow.png,right_arrow.png,right_arrow.png,1,2,8,1,,,,,,,,,,,,,,,,,58.947653700000046,None,59.961290299999746,None,59.961290299999746,None,59.961290299999746,None,59.961290299999746,None,59.961290299999746,None,59.961290299999746,None,59.961290299999746,None,a,1,0.5854225000002771,59.961290299999746,None,60.56194740000001,None,,,,,,,,,,,,,,,,,,,,,,,,,,,,,,,,,,,,,,,,4,001,2022_Aug_07_1644,Flanker,2021.2.0,240.95688799179072,
neutral left,0,a,neutral.png,neutral.png,neutral.png,left_arrow.png,neutral.png,neutral.png,neutral.png,1,3,9,4,,,,,,,,,,,,,,,,,62.06344689999969,None,63.07702859999972,None,63.07702859999972,None,63.07702859999972,None,63.07702859999972,None,63.07702859999972,None,63.07702859999972,None,63.07702859999972,None,a,1,0.374078499999996,63.07702859999972,None,63.46910630000002,None,,,,,,,,,,,,,,,,,,,,,,,,,,,,,,,,,,,,,,,,4,001,2022_Aug_07_1644,Flanker,2021.2.0,240.95688799179072,
congruent-right.jpg,1,k,right_arrow.png,right_arrow.png,right_arrow.png,right_arrow.png,right_arrow.png,right_arrow.png,right_arrow.png,1,4,10,2,,,,,,,,,,,,,,,,,64.97473349999973,None,65.98427719999972,None,65.98427719999972,None,65.98427719999972,None,65.98427719999972,None,65.98427719999972,None,65.98427719999972,None,65.98427719999972,None,k,1,0.4594184999996287,65.98427719999972,None,66.45977519999997,None,,,,,,,,,,,,,,,,,,,,,,,,,,,,,,,,,,,,,,,,4,001,2022_Aug_07_1644,Flanker,2021.2.0,240.95688799179072,
neutral left,0,a,neutral.png,neutral.png,neutral.png,left_arrow.png,neutral.png,neutral.png,neutral.png,1,5,11,4,,,,,,,,,,,,,,,,,67.96553709999989,None,68.97478019999971,None,68.97478019999971,None,68.97478019999971,None,68.97478019999971,None,68.97478019999971,None,68.97478019999971,None,68.97478019999971,None,a,1,0.6371746999998322,68.97478019999971,None,69.62571359999993,None,,,,,,,,,,,,,,,,,,,,,,,,,,,,,,,,,,,,,,,,4,001,2022_Aug_07_1644,Flanker,2021.2.0,240.95688799179072,
congruent-right.jpg,1,k,right_arrow.png,right_arrow.png,right_arrow.png,right_arrow.png,right_arrow.png,right_arrow.png,right_arrow.png,2,0,12,2,,,,,,,,,,,,,,,,,71.13156049999998,None,72.13661890000003,None,72.13661890000003,None,72.13661890000003,None,72.13661890000003,None,72.13661890000003,None,72.13661890000003,None,72.13661890000003,None,k,1,0.4037170999999944,72.13661890000003,None,72.55380439999999,None,,,,,,,,,,,,,,,,,,,,,,,,,,,,,,,,,,,,,,,,4,001,2022_Aug_07_1644,Flanker,2021.2.0,240.95688799179072,
incongruent-right.jpg,0,k,left_arrow.png,left_arrow.png,left_arrow.png,right_arrow.png,left_arrow.png,left_arrow.png,left_arrow.png,2,1,13,3,,,,,,,,,,,,,,,,,74.0553915999999,None,75.06476729999986,None,75.06476729999986,None,75.06476729999986,None,75.06476729999986,None,75.06476729999986,None,75.06476729999986,None,75.06476729999986,None,k,1,0.5479535999998006,75.06476729999986,None,75.63204719999976,None,,,,,,,,,,,,,,,,,,,,,,,,,,,,,,,,,,,,,,,,4,001,2022_Aug_07_1644,Flanker,2021.2.0,240.95688799179072,
neutral right,0,k,neutral.png,neutral.png,neutral.png,right_arrow.png,neutral.png,neutral.png,neutral.png,2,2,14,5,,,,,,,,,,,,,,,,,77.13342609999972,None,78.14283269999987,None,78.14283269999987,None,78.14283269999987,None,78.14283269999987,None,78.14283269999987,None,78.14283269999987,None,78.14283269999987,None,k,1,0.42227890000003754,78.14283269999987,None,78.5768622999999,None,,,,,,,,,,,,,,,,,,,,,,,,,,,,,,,,,,,,,,,,4,001,2022_Aug_07_1644,Flanker,2021.2.0,240.95688799179072,
neutral right,0,k,neutral.png,neutral.png,neutral.png,right_arrow.png,neutral.png,neutral.png,neutral.png,2,3,15,5,,,,,,,,,,,,,,,,,80.0782178999998,None,81.09193619999996,None,81.09193619999996,None,81.09193619999996,None,81.09193619999996,None,81.09193619999996,None,81.09193619999996,None,81.09193619999996,None,k,1,0.37756390000004103,81.09193619999996,None,81.48401209999975,None,,,,,,,,,,,,,,,,,,,,,,,,,,,,,,,,,,,,,,,,4,001,2022_Aug_07_1644,Flanker,2021.2.0,240.95688799179072,
congruent-left.jpg,1,a,left_arrow.png,left_arrow.png,left_arrow.png,left_arrow.png,left_arrow.png,left_arrow.png,left_arrow.png,2,4,16,0,,,,,,,,,,,,,,,,,82.98568320000004,None,83.99499819999983,None,83.99499819999983,None,83.99499819999983,None,83.99499819999983,None,83.99499819999983,None,83.99499819999983,None,83.99499819999983,None,a,1,0.3548908000002484,83.99499819999983,None,84.36205849999988,None,,,,,,,,,,,,,,,,,,,,,,,,,,,,,,,,,,,,,,,,4,001,2022_Aug_07_1644,Flanker,2021.2.0,240.95688799179072,
neutral left,0,a,neutral.png,neutral.png,neutral.png,left_arrow.png,neutral.png,neutral.png,neutral.png,2,5,17,4,,,,,,,,,,,,,,,,,85.86781650000012,None,86.87333099999978,None,86.87333099999978,None,86.87333099999978,None,86.87333099999978,None,86.87333099999978,None,86.87333099999978,None,86.87333099999978,None,a,1,0.5170048999998471,86.87333099999978,None,87.40701480000007,None,,,,,,,,,,,,,,,,,,,,,,,,,,,,,,,,,,,,,,,,4,001,2022_Aug_07_1644,Flanker,2021.2.0,240.95688799179072,
incongruent-right.jpg,0,k,left_arrow.png,left_arrow.png,left_arrow.png,right_arrow.png,left_arrow.png,left_arrow.png,left_arrow.png,3,0,18,3,,,,,,,,,,,,,,,,,88.90852330000007,None,89.92219389999991,None,89.92219389999991,None,89.92219389999991,None,89.92219389999991,None,89.92219389999991,None,89.92219389999991,None,89.92219389999991,None,k,1,0.49285039999995206,89.92219389999991,None,90.43085990000009,None,,,,,,,,,,,,,,,,,,,,,,,,,,,,,,,,,,,,,,,,4,001,2022_Aug_07_1644,Flanker,2021.2.0,240.95688799179072,
incongruent-right.jpg,0,k,left_arrow.png,left_arrow.png,left_arrow.png,right_arrow.png,left_arrow.png,left_arrow.png,left_arrow.png,3,1,19,3,,,,,,,,,,,,,,,,,91.93242400000008,None,92.94613570000001,None,92.94613570000001,None,92.94613570000001,None,92.94613570000001,None,92.94613570000001,None,92.94613570000001,None,92.94613570000001,None,k,1,0.4849864000002526,92.94613570000001,None,93.44674600000008,None,,,,,,,,,,,,,,,,,,,,,,,,,,,,,,,,,,,,,,,,4,001,2022_Aug_07_1644,Flanker,2021.2.0,240.95688799179072,
incongruent-left.jpg,0,a,right_arrow.png,right_arrow.png,right_arrow.png,left_arrow.png,right_arrow.png,right_arrow.png,right_arrow.png,3,2,20,1,,,,,,,,,,,,,,,,,94.94831879999992,None,95.9619361,None,95.9619361,None,95.9619361,None,95.9619361,None,95.9619361,None,95.9619361,None,95.9619361,None,a,1,0.5896042999997917,95.9619361,None,96.57080349999978,None,,,,,,,,,,,,,,,,,,,,,,,,,,,,,,,,,,,,,,,,4,001,2022_Aug_07_1644,Flanker,2021.2.0,240.95688799179072,
incongruent-left.jpg,0,a,right_arrow.png,right_arrow.png,right_arrow.png,left_arrow.png,right_arrow.png,right_arrow.png,right_arrow.png,3,3,21,1,,,,,,,,,,,,,,,,,98.07239729999992,None,99.08600249999972,None,99.08600249999972,None,99.08600249999972,None,99.08600249999972,None,99.08600249999972,None,99.08600249999972,None,99.08600249999972,None,a,1,0.5459311999998135,99.08600249999972,None,99.64489370000001,None,,,,,,,,,,,,,,,,,,,,,,,,,,,,,,,,,,,,,,,,4,001,2022_Aug_07_1644,Flanker,2021.2.0,240.95688799179072,
congruent-right.jpg,1,k,right_arrow.png,right_arrow.png,right_arrow.png,right_arrow.png,right_arrow.png,right_arrow.png,right_arrow.png,3,4,22,2,,,,,,,,,,,,,,,,,101.14655360000006,None,102.16006669999979,None,102.16006669999979,None,102.16006669999979,None,102.16006669999979,None,102.16006669999979,None,102.16006669999979,None,102.16006669999979,None,k,1,0.6085950000001503,102.16006669999979,None,102.78571740000007,None,,,,,,,,,,,,,,,,,,,,,,,,,,,,,,,,,,,,,,,,4,001,2022_Aug_07_1644,Flanker,2021.2.0,240.95688799179072,
neutral left,0,a,neutral.png,neutral.png,neutral.png,left_arrow.png,neutral.png,neutral.png,neutral.png,3,5,23,4,,,,,,,,,,,,,,,,,104.2874769,None,105.2967937999997,None,105.2967937999997,None,105.2967937999997,None,105.2967937999997,None,105.2967937999997,None,105.2967937999997,None,105.2967937999997,None,a,1,0.49592459999985294,105.2967937999997,None,105.80543540000008,None,,,,,,,,,,,,,,,,,,,,,,,,,,,,,,,,,,,,,,,,4,001,2022_Aug_07_1644,Flanker,2021.2.0,240.95688799179072,
,,,,,,,,,,,,,,,,,,,,,,,,,,,,,,,,,,,,,,,,,,,,,,,,,,,,,107.32435750000013,None,109.30914489999986,None,space,0.9881913999997778,109.30914489999986,None,,,,,,,,,,,,,,,,,,,,,,,,,,,,,,,,4,001,2022_Aug_07_1644,Flanker,2021.2.0,240.95688799179072,
incongruent-right.jpg,0,k,left_arrow.png,left_arrow.png,left_arrow.png,right_arrow.png,left_arrow.png,left_arrow.png,left_arrow.png,,,,,0,0,0,3,,,,,,,,,,,,,110.31869909999978,None,,,,,,,,,,,,,,,,,,,,,,,,,,,,,,111.3237893999999,None,111.3237893999999,None,111.3237893999999,None,111.3237893999999,None,111.3237893999999,None,111.3237893999999,None,111.3237893999999,None,k,1,0.6377766999999039,111.3237893999999,None,,,,,,,,,,,,,4,001,2022_Aug_07_1644,Flanker,2021.2.0,240.95688799179072,
congruent-right.jpg,1,k,right_arrow.png,right_arrow.png,right_arrow.png,right_arrow.png,right_arrow.png,right_arrow.png,right_arrow.png,,,,,0,1,1,2,,,,,,,,,,,,,111.9745539999999,None,,,,,,,,,,,,,,,,,,,,,,,,,,,,,,112.99243079999997,None,112.99243079999997,None,112.99243079999997,None,112.99243079999997,None,112.99243079999997,None,112.99243079999997,None,112.99243079999997,None,k,1,0.6415406999999504,112.99243079999997,None,,,,,,,,,,,,,4,001,2022_Aug_07_1644,Flanker,2021.2.0,240.95688799179072,
incongruent-right.jpg,0,k,left_arrow.png,left_arrow.png,left_arrow.png,right_arrow.png,left_arrow.png,left_arrow.png,left_arrow.png,,,,,0,2,2,3,,,,,,,,,,,,,113.6513230999999,None,,,,,,,,,,,,,,,,,,,,,,,,,,,,,,114.66491760000008,None,114.66491760000008,None,114.66491760000008,None,114.66491760000008,None,114.66491760000008,None,114.66491760000008,None,114.66491760000008,None,k,1,0.5451097999998638,114.66491760000008,None,,,,,,,,,,,,,4,001,2022_Aug_07_1644,Flanker,2021.2.0,240.95688799179072,
incongruent-right.jpg,0,k,left_arrow.png,left_arrow.png,left_arrow.png,right_arrow.png,left_arrow.png,left_arrow.png,left_arrow.png,,,,,0,3,3,3,,,,,,,,,,,,,115.22374869999976,None,,,,,,,,,,,,,,,,,,,,,,,,,,,,,,116.23763980000012,None,116.23763980000012,None,116.23763980000012,None,116.23763980000012,None,116.23763980000012,None,116.23763980000012,None,116.23763980000012,None,k,1,0.39655039999979635,116.23763980000012,None,,,,,,,,,,,,,4,001,2022_Aug_07_1644,Flanker,2021.2.0,240.95688799179072,
incongruent-left.jpg,0,a,right_arrow.png,right_arrow.png,right_arrow.png,left_arrow.png,right_arrow.png,right_arrow.png,right_arrow.png,,,,,0,4,4,1,,,,,,,,,,,,,116.64640879999979,None,,,,,,,,,,,,,,,,,,,,,,,,,,,,,,117.65979119999975,None,117.65979119999975,None,117.65979119999975,None,117.65979119999975,None,117.65979119999975,None,117.65979119999975,None,117.65979119999975,None,a,1,0.47884490000024016,117.65979119999975,None,,,,,,,,,,,,,4,001,2022_Aug_07_1644,Flanker,2021.2.0,240.95688799179072,
congruent-right.jpg,1,k,right_arrow.png,right_arrow.png,right_arrow.png,right_arrow.png,right_arrow.png,right_arrow.png,right_arrow.png,,,,,0,5,5,2,,,,,,,,,,,,,118.15206179999996,None,,,,,,,,,,,,,,,,,,,,,,,,,,,,,,119.16122919999998,None,119.16122919999998,None,119.16122919999998,None,119.16122919999998,None,119.16122919999998,None,119.16122919999998,None,119.16122919999998,None,k,1,0.36935700000003635,119.16122919999998,None,,,,,,,,,,,,,4,001,2022_Aug_07_1644,Flanker,2021.2.0,240.95688799179072,
congruent-left.jpg,1,a,left_arrow.png,left_arrow.png,left_arrow.png,left_arrow.png,left_arrow.png,left_arrow.png,left_arrow.png,,,,,1,0,6,0,,,,,,,,,,,,,119.5451023999999,None,,,,,,,,,,,,,,,,,,,,,,,,,,,,,,120.5586943999997,None,120.5586943999997,None,120.5586943999997,None,120.5586943999997,None,120.5586943999997,None,120.5586943999997,None,120.5586943999997,None,a,1,0.4441062000000784,120.5586943999997,None,,,,,,,,,,,,,4,001,2022_Aug_07_1644,Flanker,2021.2.0,240.95688799179072,
neutral right,0,k,neutral.png,neutral.png,neutral.png,right_arrow.png,neutral.png,neutral.png,neutral.png,,,,,1,1,7,5,,,,,,,,,,,,,121.01751830000012,None,,,,,,,,,,,,,,,,,,,,,,,,,,,,,,122.02696119999973,None,122.02696119999973,None,122.02696119999973,None,122.02696119999973,None,122.02696119999973,None,122.02696119999973,None,122.02696119999973,None,k,1,0.40815229999998337,122.02696119999973,None,,,,,,,,,,,,,4,001,2022_Aug_07_1644,Flanker,2021.2.0,240.95688799179072,
neutral left,0,a,neutral.png,neutral.png,neutral.png,left_arrow.png,neutral.png,neutral.png,neutral.png,,,,,1,2,8,4,,,,,,,,,,,,,122.45241429999987,None,,,,,,,,,,,,,,,,,,,,,,,,,,,,,,123.46168529999977,None,123.46168529999977,None,123.46168529999977,None,123.46168529999977,None,123.46168529999977,None,123.46168529999977,None,123.46168529999977,None,a,1,0.4694829000000027,123.46168529999977,None,,,,,,,,,,,,,4,001,2022_Aug_07_1644,Flanker,2021.2.0,240.95688799179072,
incongruent-right.jpg,0,k,left_arrow.png,left_arrow.png,left_arrow.png,right_arrow.png,left_arrow.png,left_arrow.png,left_arrow.png,,,,,1,3,9,3,,,,,,,,,,,,,123.94569210000009,None,,,,,,,,,,,,,,,,,,,,,,,,,,,,,,124.95927989999973,None,124.95927989999973,None,124.95927989999973,None,124.95927989999973,None,124.95927989999973,None,124.95927989999973,None,124.95927989999973,None,k,1,0.48425659999975323,124.95927989999973,None,,,,,,,,,,,,,4,001,2022_Aug_07_1644,Flanker,2021.2.0,240.95688799179072,
incongruent-left.jpg,0,a,right_arrow.png,right_arrow.png,right_arrow.png,left_arrow.png,right_arrow.png,right_arrow.png,right_arrow.png,,,,,1,4,10,1,,,,,,,,,,,,,125.4595433999998,None,,,,,,,,,,,,,,,,,,,,,,,,,,,,,,126.4772966999999,None,126.4772966999999,None,126.4772966999999,None,126.4772966999999,None,126.4772966999999,None,126.4772966999999,None,126.4772966999999,None,a,1,0.566449499999635,126.4772966999999,None,,,,,,,,,,,,,4,001,2022_Aug_07_1644,Flanker,2021.2.0,240.95688799179072,
neutral right,0,k,neutral.png,neutral.png,neutral.png,right_arrow.png,neutral.png,neutral.png,neutral.png,,,,,1,5,11,5,,,,,,,,,,,,,127.06137649999982,None,,,,,,,,,,,,,,,,,,,,,,,,,,,,,,128.0748278000001,None,128.0748278000001,None,128.0748278000001,None,128.0748278000001,None,128.0748278000001,None,128.0748278000001,None,128.0748278000001,None,k,1,0.44895790000009583,128.0748278000001,None,,,,,,,,,,,,,4,001,2022_Aug_07_1644,Flanker,2021.2.0,240.95688799179072,
congruent-left.jpg,1,a,left_arrow.png,left_arrow.png,left_arrow.png,left_arrow.png,left_arrow.png,left_arrow.png,left_arrow.png,,,,,2,0,12,0,,,,,,,,,,,,,128.54212989999996,None,,,,,,,,,,,,,,,,,,,,,,,,,,,,,,129.55141049999975,None,129.55141049999975,None,129.55141049999975,None,129.55141049999975,None,129.55141049999975,None,129.55141049999975,None,129.55141049999975,None,a,1,0.5087297000000035,129.55141049999975,None,,,,,,,,,,,,,4,001,2022_Aug_07_1644,Flanker,2021.2.0,240.95688799179072,
congruent-left.jpg,1,a,left_arrow.png,left_arrow.png,left_arrow.png,left_arrow.png,left_arrow.png,left_arrow.png,left_arrow.png,,,,,2,1,13,0,,,,,,,,,,,,,130.0769425999997,None,,,,,,,,,,,,,,,,,,,,,,,,,,,,,,131.08633039999995,None,131.08633039999995,None,131.08633039999995,None,131.08633039999995,None,131.08633039999995,None,131.08633039999995,None,131.08633039999995,None,a,1,0.4218385999997736,131.08633039999995,None,,,,,,,,,,,,,4,001,2022_Aug_07_1644,Flanker,2021.2.0,240.95688799179072,
congruent-left.jpg,1,a,left_arrow.png,left_arrow.png,left_arrow.png,left_arrow.png,left_arrow.png,left_arrow.png,left_arrow.png,,,,,2,2,14,0,,,,,,,,,,,,,131.52031039999974,None,,,,,,,,,,,,,,,,,,,,,,,,,,,,,,132.53385739999976,None,132.53385739999976,None,132.53385739999976,None,132.53385739999976,None,132.53385739999976,None,132.53385739999976,None,132.53385739999976,None,a,1,0.43049559999963094,132.53385739999976,None,,,,,,,,,,,,,4,001,2022_Aug_07_1644,Flanker,2021.2.0,240.95688799179072,
incongruent-left.jpg,0,a,right_arrow.png,right_arrow.png,right_arrow.png,left_arrow.png,right_arrow.png,right_arrow.png,right_arrow.png,,,,,2,3,15,1,,,,,,,,,,,,,132.9760084999998,None,,,,,,,,,,,,,,,,,,,,,,,,,,,,,,133.98956629999975,None,133.98956629999975,None,133.98956629999975,None,133.98956629999975,None,133.98956629999975,None,133.98956629999975,None,133.98956629999975,None,a,1,0.38313270000026023,133.98956629999975,None,,,,,,,,,,,,,4,001,2022_Aug_07_1644,Flanker,2021.2.0,240.95688799179072,
congruent-left.jpg,1,a,left_arrow.png,left_arrow.png,left_arrow.png,left_arrow.png,left_arrow.png,left_arrow.png,left_arrow.png,,,,,2,4,16,0,,,,,,,,,,,,,134.38999349999995,None,,,,,,,,,,,,,,,,,,,,,,,,,,,,,,135.4035997000001,None,135.4035997000001,None,135.4035997000001,None,135.4035997000001,None,135.4035997000001,None,135.4035997000001,None,135.4035997000001,None,a,1,0.3694508999997197,135.4035997000001,None,,,,,,,,,,,,,4,001,2022_Aug_07_1644,Flanker,2021.2.0,240.95688799179072,
congruent-left.jpg,1,a,left_arrow.png,left_arrow.png,left_arrow.png,left_arrow.png,left_arrow.png,left_arrow.png,left_arrow.png,,,,,2,5,17,0,,,,,,,,,,,,,135.7873040999998,None,,,,,,,,,,,,,,,,,,,,,,,,,,,,,,136.796691,None,136.796691,None,136.796691,None,136.796691,None,136.796691,None,136.796691,None,136.796691,None,a,1,0.3362595000003239,136.796691,None,,,,,,,,,,,,,4,001,2022_Aug_07_1644,Flanker,2021.2.0,240.95688799179072,
incongruent-left.jpg,0,a,right_arrow.png,right_arrow.png,right_arrow.png,left_arrow.png,right_arrow.png,right_arrow.png,right_arrow.png,,,,,3,0,18,1,,,,,,,,,,,,,137.14706780000006,None,,,,,,,,,,,,,,,,,,,,,,,,,,,,,,138.16066339999998,None,138.16066339999998,None,138.16066339999998,None,138.16066339999998,None,138.16066339999998,None,138.16066339999998,None,138.16066339999998,None,a,1,0.4444725000003018,138.16066339999998,None,,,,,,,,,,,,,4,001,2022_Aug_07_1644,Flanker,2021.2.0,240.95688799179072,
congruent-left.jpg,1,a,left_arrow.png,left_arrow.png,left_arrow.png,left_arrow.png,left_arrow.png,left_arrow.png,left_arrow.png,,,,,3,1,19,0,,,,,,,,,,,,,138.61951520000002,None,,,,,,,,,,,,,,,,,,,,,,,,,,,,,,139.6287465999999,None,139.6287465999999,None,139.6287465999999,None,139.6287465999999,None,139.6287465999999,None,139.6287465999999,None,139.6287465999999,None,a,1,0.45658869999988383,139.6287465999999,None,,,,,,,,,,,,,4,001,2022_Aug_07_1644,Flanker,2021.2.0,240.95688799179072,
incongruent-right.jpg,0,k,left_arrow.png,left_arrow.png,left_arrow.png,right_arrow.png,left_arrow.png,left_arrow.png,left_arrow.png,,,,,3,2,20,3,,,,,,,,,,,,,140.09603689999994,None,,,,,,,,,,,,,,,,,,,,,,,,,,,,,,141.1137745000001,None,141.1137745000001,None,141.1137745000001,None,141.1137745000001,None,141.1137745000001,None,141.1137745000001,None,141.1137745000001,None,k,1,0.41189120000035473,141.1137745000001,None,,,,,,,,,,,,,4,001,2022_Aug_07_1644,Flanker,2021.2.0,240.95688799179072,
neutral left,0,a,neutral.png,neutral.png,neutral.png,left_arrow.png,neutral.png,neutral.png,neutral.png,,,,,3,3,21,4,,,,,,,,,,,,,141.53922479999983,None,,,,,,,,,,,,,,,,,,,,,,,,,,,,,,142.55279969999992,None,142.55279969999992,None,142.55279969999992,None,142.55279969999992,None,142.55279969999992,None,142.55279969999992,None,142.55279969999992,None,a,1,0.3889049000003979,142.55279969999992,None,,,,,,,,,,,,,4,001,2022_Aug_07_1644,Flanker,2021.2.0,240.95688799179072,
neutral right,0,k,neutral.png,neutral.png,neutral.png,right_arrow.png,neutral.png,neutral.png,neutral.png,,,,,3,4,22,5,,,,,,,,,,,,,142.95321740000009,None,,,,,,,,,,,,,,,,,,,,,,,,,,,,,,143.9668117000001,None,143.9668117000001,None,143.9668117000001,None,143.9668117000001,None,143.9668117000001,None,143.9668117000001,None,143.9668117000001,None,k,1,0.38332709999986037,143.9668117000001,None,,,,,,,,,,,,,4,001,2022_Aug_07_1644,Flanker,2021.2.0,240.95688799179072,
congruent-right.jpg,1,k,right_arrow.png,right_arrow.png,right_arrow.png,right_arrow.png,right_arrow.png,right_arrow.png,right_arrow.png,,,,,3,5,23,2,,,,,,,,,,,,,144.3672314999999,None,,,,,,,,,,,,,,,,,,,,,,,,,,,,,,145.38080889999992,None,145.38080889999992,None,145.38080889999992,None,145.38080889999992,None,145.38080889999992,None,145.38080889999992,None,145.38080889999992,None,k,1,0.41742840000006254,145.38080889999992,None,,,,,,,,,,,,,4,001,2022_Aug_07_1644,Flanker,2021.2.0,240.95688799179072,
neutral right,0,k,neutral.png,neutral.png,neutral.png,right_arrow.png,neutral.png,neutral.png,neutral.png,,,,,4,0,24,5,,,,,,,,,,,,,145.8145801999999,None,,,,,,,,,,,,,,,,,,,,,,,,,,,,,,146.8280033000001,None,146.8280033000001,None,146.8280033000001,None,146.8280033000001,None,146.8280033000001,None,146.8280033000001,None,146.8280033000001,None,k,1,0.3945211999998719,146.8280033000001,None,,,,,,,,,,,,,4,001,2022_Aug_07_1644,Flanker,2021.2.0,240.95688799179072,
incongruent-right.jpg,0,k,left_arrow.png,left_arrow.png,left_arrow.png,right_arrow.png,left_arrow.png,left_arrow.png,left_arrow.png,,,,,4,1,25,3,,,,,,,,,,,,,147.23692679999976,None,,,,,,,,,,,,,,,,,,,,,,,,,,,,,,148.24632269999984,None,148.24632269999984,None,148.24632269999984,None,148.24632269999984,None,148.24632269999984,None,148.24632269999984,None,148.24632269999984,None,k,1,0.5123164000001452,148.24632269999984,None,,,,,,,,,,,,,4,001,2022_Aug_07_1644,Flanker,2021.2.0,240.95688799179072,
incongruent-right.jpg,0,k,left_arrow.png,left_arrow.png,left_arrow.png,right_arrow.png,left_arrow.png,left_arrow.png,left_arrow.png,,,,,4,2,26,3,,,,,,,,,,,,,148.77188369999976,None,,,,,,,,,,,,,,,,,,,,,,,,,,,,,,149.78124979999984,None,149.78124979999984,None,149.78124979999984,None,149.78124979999984,None,149.78124979999984,None,149.78124979999984,None,149.78124979999984,None,k,1,0.45783350000010614,149.78124979999984,None,,,,,,,,,,,,,4,001,2022_Aug_07_1644,Flanker,2021.2.0,240.95688799179072,
neutral right,0,k,neutral.png,neutral.png,neutral.png,right_arrow.png,neutral.png,neutral.png,neutral.png,,,,,4,3,27,5,,,,,,,,,,,,,150.25680060000013,None,,,,,,,,,,,,,,,,,,,,,,,,,,,,,,151.2703692,None,151.2703692,None,151.2703692,None,151.2703692,None,151.2703692,None,151.2703692,None,151.2703692,None,k,1,0.3286290999999437,151.2703692,None,,,,,,,,,,,,,4,001,2022_Aug_07_1644,Flanker,2021.2.0,240.95688799179072,
congruent-right.jpg,1,k,right_arrow.png,right_arrow.png,right_arrow.png,right_arrow.png,right_arrow.png,right_arrow.png,right_arrow.png,,,,,4,4,28,2,,,,,,,,,,,,,151.61238860000003,None,,,,,,,,,,,,,,,,,,,,,,,,,,,,,,152.62163650000002,None,152.62163650000002,None,152.62163650000002,None,152.62163650000002,None,152.62163650000002,None,152.62163650000002,None,152.62163650000002,None,k,1,0.3213854000000538,152.62163650000002,None,,,,,,,,,,,,,4,001,2022_Aug_07_1644,Flanker,2021.2.0,240.95688799179072,
congruent-right.jpg,1,k,right_arrow.png,right_arrow.png,right_arrow.png,right_arrow.png,right_arrow.png,right_arrow.png,right_arrow.png,,,,,4,5,29,2,,,,,,,,,,,,,152.95552300000008,None,,,,,,,,,,,,,,,,,,,,,,,,,,,,,,153.96906409999974,None,153.96906409999974,None,153.96906409999974,None,153.96906409999974,None,153.96906409999974,None,153.96906409999974,None,153.96906409999974,None,k,1,0.39816739999969286,153.96906409999974,None,,,,,,,,,,,,,4,001,2022_Aug_07_1644,Flanker,2021.2.0,240.95688799179072,
neutral right,0,k,neutral.png,neutral.png,neutral.png,right_arrow.png,neutral.png,neutral.png,neutral.png,,,,,5,0,30,5,,,,,,,,,,,,,154.38620429999992,None,,,,,,,,,,,,,,,,,,,,,,,,,,,,,,155.39971849999984,None,155.39971849999984,None,155.39971849999984,None,155.39971849999984,None,155.39971849999984,None,155.39971849999984,None,155.39971849999984,None,k,1,0.3198370000000068,155.39971849999984,None,,,,,,,,,,,,,4,001,2022_Aug_07_1644,Flanker,2021.2.0,240.95688799179072,
neutral right,0,k,neutral.png,neutral.png,neutral.png,right_arrow.png,neutral.png,neutral.png,neutral.png,,,,,5,1,31,5,,,,,,,,,,,,,155.7334894999999,None,,,,,,,,,,,,,,,,,,,,,,,,,,,,,,156.7430986999998,None,156.7430986999998,None,156.7430986999998,None,156.7430986999998,None,156.7430986999998,None,156.7430986999998,None,156.7430986999998,None,k,1,0.25682289999986097,156.7430986999998,None,,,,,,,,,,,,,4,001,2022_Aug_07_1644,Flanker,2021.2.0,240.95688799179072,
congruent-left.jpg,1,a,left_arrow.png,left_arrow.png,left_arrow.png,left_arrow.png,left_arrow.png,left_arrow.png,left_arrow.png,,,,,5,2,32,0,,,,,,,,,,,,,157.0181588999999,None,,,,,,,,,,,,,,,,,,,,,,,,,,,,,,158.0275155999998,None,158.0275155999998,None,158.0275155999998,None,158.0275155999998,None,158.0275155999998,None,158.0275155999998,None,158.0275155999998,None,a,1,0.4285581000003731,158.0275155999998,None,,,,,,,,,,,,,4,001,2022_Aug_07_1644,Flanker,2021.2.0,240.95688799179072,
neutral left,0,a,neutral.png,neutral.png,neutral.png,left_arrow.png,neutral.png,neutral.png,neutral.png,,,,,5,3,33,4,,,,,,,,,,,,,158.46965120000004,None,,,,,,,,,,,,,,,,,,,,,,,,,,,,,,159.4790377999998,None,159.4790377999998,None,159.4790377999998,None,159.4790377999998,None,159.4790377999998,None,159.4790377999998,None,159.4790377999998,None,a,1,0.3613812999997208,159.4790377999998,None,,,,,,,,,,,,,4,001,2022_Aug_07_1644,Flanker,2021.2.0,240.95688799179072,
incongruent-left.jpg,0,a,right_arrow.png,right_arrow.png,right_arrow.png,left_arrow.png,right_arrow.png,right_arrow.png,right_arrow.png,,,,,5,4,34,1,,,,,,,,,,,,,159.8545095999998,None,,,,,,,,,,,,,,,,,,,,,,,,,,,,,,160.86790889999975,None,160.86790889999975,None,160.86790889999975,None,160.86790889999975,None,160.86790889999975,None,160.86790889999975,None,160.86790889999975,None,k,0,0.364234199999828,160.86790889999975,None,,,,,,,,,,,,,4,001,2022_Aug_07_1644,Flanker,2021.2.0,240.95688799179072,
neutral left,0,a,neutral.png,neutral.png,neutral.png,left_arrow.png,neutral.png,neutral.png,neutral.png,,,,,5,5,35,4,,,,,,,,,,,,,161.24344960000008,None,,,,,,,,,,,,,,,,,,,,,,,,,,,,,,162.25681919999988,None,162.25681919999988,None,162.25681919999988,None,162.25681919999988,None,162.25681919999988,None,162.25681919999988,None,162.25681919999988,None,a,1,0.6315530000001672,162.25681919999988,None,,,,,,,,,,,,,4,001,2022_Aug_07_1644,Flanker,2021.2.0,240.95688799179072,
incongruent-left.jpg,0,a,right_arrow.png,right_arrow.png,right_arrow.png,left_arrow.png,right_arrow.png,right_arrow.png,right_arrow.png,,,,,6,0,36,1,,,,,,,,,,,,,162.89940350000006,None,,,,,,,,,,,,,,,,,,,,,,,,,,,,,,163.91706290000002,None,163.91706290000002,None,163.91706290000002,None,163.91706290000002,None,163.91706290000002,None,163.91706290000002,None,163.91706290000002,None,a,1,0.49972059999981866,163.91706290000002,None,,,,,,,,,,,,,4,001,2022_Aug_07_1644,Flanker,2021.2.0,240.95688799179072,
neutral left,0,a,neutral.png,neutral.png,neutral.png,left_arrow.png,neutral.png,neutral.png,neutral.png,,,,,6,1,37,4,,,,,,,,,,,,,164.43432269999994,None,,,,,,,,,,,,,,,,,,,,,,,,,,,,,,165.44788879999987,None,165.44788879999987,None,165.44788879999987,None,165.44788879999987,None,165.44788879999987,None,165.44788879999987,None,165.44788879999987,None,a,1,0.3448889000001145,165.44788879999987,None,,,,,,,,,,,,,4,001,2022_Aug_07_1644,Flanker,2021.2.0,240.95688799179072,
incongruent-left.jpg,0,a,right_arrow.png,right_arrow.png,right_arrow.png,left_arrow.png,right_arrow.png,right_arrow.png,right_arrow.png,,,,,6,2,38,1,,,,,,,,,,,,,165.80655699999988,None,,,,,,,,,,,,,,,,,,,,,,,,,,,,,,166.82013589999997,None,166.82013589999997,None,166.82013589999997,None,166.82013589999997,None,166.82013589999997,None,166.82013589999997,None,166.82013589999997,None,a,1,0.40480909999996584,166.82013589999997,None,,,,,,,,,,,,,4,001,2022_Aug_07_1644,Flanker,2021.2.0,240.95688799179072,
congruent-right.jpg,1,k,right_arrow.png,right_arrow.png,right_arrow.png,right_arrow.png,right_arrow.png,right_arrow.png,right_arrow.png,,,,,6,3,39,2,,,,,,,,,,,,,167.2372636,None,,,,,,,,,,,,,,,,,,,,,,,,,,,,,,168.25081939999973,None,168.25081939999973,None,168.25081939999973,None,168.25081939999973,None,168.25081939999973,None,168.25081939999973,None,168.25081939999973,None,k,1,0.39832730000034644,168.25081939999973,None,,,,,,,,,,,,,4,001,2022_Aug_07_1644,Flanker,2021.2.0,240.95688799179072,
neutral left,0,a,neutral.png,neutral.png,neutral.png,left_arrow.png,neutral.png,neutral.png,neutral.png,,,,,6,4,40,4,,,,,,,,,,,,,168.66792279999981,None,,,,,,,,,,,,,,,,,,,,,,,,,,,,,,169.67719009999973,None,169.67719009999973,None,169.67719009999973,None,169.67719009999973,None,169.67719009999973,None,169.67719009999973,None,169.67719009999973,None,a,1,0.35614559999976336,169.67719009999973,None,,,,,,,,,,,,,4,001,2022_Aug_07_1644,Flanker,2021.2.0,240.95688799179072,
neutral left,0,a,neutral.png,neutral.png,neutral.png,left_arrow.png,neutral.png,neutral.png,neutral.png,,,,,6,5,41,4,,,,,,,,,,,,,170.0527962000001,None,,,,,,,,,,,,,,,,,,,,,,,,,,,,,,171.06633920000013,None,171.06633920000013,None,171.06633920000013,None,171.06633920000013,None,171.06633920000013,None,171.06633920000013,None,171.06633920000013,None,a,1,0.367386500000066,171.06633920000013,None,,,,,,,,,,,,,4,001,2022_Aug_07_1644,Flanker,2021.2.0,240.95688799179072,
neutral left,0,a,neutral.png,neutral.png,neutral.png,left_arrow.png,neutral.png,neutral.png,neutral.png,,,,,7,0,42,4,,,,,,,,,,,,,171.4501035999997,None,,,,,,,,,,,,,,,,,,,,,,,,,,,,,,172.4594847999997,None,172.4594847999997,None,172.4594847999997,None,172.4594847999997,None,172.4594847999997,None,172.4594847999997,None,172.4594847999997,None,a,1,0.35037089999968885,172.4594847999997,None,,,,,,,,,,,,,4,001,2022_Aug_07_1644,Flanker,2021.2.0,240.95688799179072,
incongruent-right.jpg,0,k,left_arrow.png,left_arrow.png,left_arrow.png,right_arrow.png,left_arrow.png,left_arrow.png,left_arrow.png,,,,,7,1,43,3,,,,,,,,,,,,,172.82635979999986,None,,,,,,,,,,,,,,,,,,,,,,,,,,,,,,173.84006670000008,None,173.84006670000008,None,173.84006670000008,None,173.84006670000008,None,173.84006670000008,None,173.84006670000008,None,173.84006670000008,None,k,1,0.44183620000012525,173.84006670000008,None,,,,,,,,,,,,,4,001,2022_Aug_07_1644,Flanker,2021.2.0,240.95688799179072,
congruent-right.jpg,1,k,right_arrow.png,right_arrow.png,right_arrow.png,right_arrow.png,right_arrow.png,right_arrow.png,right_arrow.png,,,,,7,2,44,2,,,,,,,,,,,,,174.29888759999994,None,,,,,,,,,,,,,,,,,,,,,,,,,,,,,,175.30410540000003,None,175.30410540000003,None,175.30410540000003,None,175.30410540000003,None,175.30410540000003,None,175.30410540000003,None,175.30410540000003,None,k,1,0.42598739999993995,175.30410540000003,None,,,,,,,,,,,,,4,001,2022_Aug_07_1644,Flanker,2021.2.0,240.95688799179072,
congruent-right.jpg,1,k,right_arrow.png,right_arrow.png,right_arrow.png,right_arrow.png,right_arrow.png,right_arrow.png,right_arrow.png,,,,,7,3,45,2,,,,,,,,,,,,,175.7462584,None,,,,,,,,,,,,,,,,,,,,,,,,,,,,,,176.7514274,None,176.7514274,None,176.7514274,None,176.7514274,None,176.7514274,None,176.7514274,None,176.7514274,None,k,1,0.34681460000001607,176.7514274,None,,,,,,,,,,,,,4,001,2022_Aug_07_1644,Flanker,2021.2.0,240.95688799179072,
neutral right,0,k,neutral.png,neutral.png,neutral.png,right_arrow.png,neutral.png,neutral.png,neutral.png,,,,,7,4,46,5,,,,,,,,,,,,,177.1100449999999,None,,,,,,,,,,,,,,,,,,,,,,,,,,,,,,178.119467,None,178.119467,None,178.119467,None,178.119467,None,178.119467,None,178.119467,None,178.119467,None,k,1,0.3469695999997384,178.119467,None,,,,,,,,,,,,,4,001,2022_Aug_07_1644,Flanker,2021.2.0,240.95688799179072,
incongruent-left.jpg,0,a,right_arrow.png,right_arrow.png,right_arrow.png,left_arrow.png,right_arrow.png,right_arrow.png,right_arrow.png,,,,,7,5,47,1,,,,,,,,,,,,,178.47829839999986,None,,,,,,,,,,,,,,,,,,,,,,,,,,,,,,179.4875750000001,None,179.4875750000001,None,179.4875750000001,None,179.4875750000001,None,179.4875750000001,None,179.4875750000001,None,179.4875750000001,None,a,1,0.3793489999998201,179.4875750000001,None,,,,,,,,,,,,,4,001,2022_Aug_07_1644,Flanker,2021.2.0,240.95688799179072,
,,,,,,,,,,,,,,,,,,,,,,,,,,,,,,,,,,,,,,,,,,,,,,,,,,,,,,,,,,,,,,,,,,,,,,,,,,,,,,,,179.89217569999983,None,space,3.934995799999797,179.89217569999983,None,,,,,,,4,001,2022_Aug_07_1644,Flanker,2021.2.0,240.95688799179072,
incongruent-right.jpg,0,k,left_arrow.png,left_arrow.png,left_arrow.png,right_arrow.png,left_arrow.png,left_arrow.png,left_arrow.png,,,,,,,,,0,0,0,3,,,,,,,,,183.84642200000008,None,,,,,,,,,,,,,,,,,,,,,,,,,,,,,,184.85157470000013,None,184.85157470000013,None,184.85157470000013,None,184.85157470000013,None,184.85157470000013,None,184.85157470000013,None,184.85157470000013,None,k,1,2.8482778000002327,184.85157470000013,None,,,,,,,,,,,,,4,001,2022_Aug_07_1644,Flanker,2021.2.0,240.95688799179072,
congruent-right.jpg,1,k,right_arrow.png,right_arrow.png,right_arrow.png,right_arrow.png,right_arrow.png,right_arrow.png,right_arrow.png,,,,,,,,,0,1,1,2,,,,,,,,,187.71323159999974,None,,,,,,,,,,,,,,,,,,,,,,,,,,,,,,188.7266437999997,None,188.7266437999997,None,188.7266437999997,None,188.7266437999997,None,188.7266437999997,None,188.7266437999997,None,188.7266437999997,None,k,1,0.6212725000000319,188.7266437999997,None,,,,,,,,,,,,,4,001,2022_Aug_07_1644,Flanker,2021.2.0,240.95688799179072,
congruent-left.jpg,1,a,left_arrow.png,left_arrow.png,left_arrow.png,left_arrow.png,left_arrow.png,left_arrow.png,left_arrow.png,,,,,,,,,0,2,2,0,,,,,,,,,189.36064469999974,None,,,,,,,,,,,,,,,,,,,,,,,,,,,,,,190.3699200000001,None,190.3699200000001,None,190.3699200000001,None,190.3699200000001,None,190.3699200000001,None,190.3699200000001,None,190.3699200000001,None,a,1,0.4263236000001598,190.3699200000001,None,,,,,,,,,,,,,4,001,2022_Aug_07_1644,Flanker,2021.2.0,240.95688799179072,
incongruent-right.jpg,0,k,left_arrow.png,left_arrow.png,left_arrow.png,right_arrow.png,left_arrow.png,left_arrow.png,left_arrow.png,,,,,,,,,0,3,3,3,,,,,,,,,190.8123673,None,,,,,,,,,,,,,,,,,,,,,,,,,,,,,,191.82999449999988,None,191.82999449999988,None,191.82999449999988,None,191.82999449999988,None,191.82999449999988,None,191.82999449999988,None,191.82999449999988,None,k,1,0.5745456999998169,191.82999449999988,None,,,,,,,,,,,,,4,001,2022_Aug_07_1644,Flanker,2021.2.0,240.95688799179072,
incongruent-left.jpg,0,a,right_arrow.png,right_arrow.png,right_arrow.png,left_arrow.png,right_arrow.png,right_arrow.png,right_arrow.png,,,,,,,,,0,4,4,1,,,,,,,,,192.42222270000002,None,,,,,,,,,,,,,,,,,,,,,,,,,,,,,,193.43148689999998,None,193.43148689999998,None,193.43148689999998,None,193.43148689999998,None,193.43148689999998,None,193.43148689999998,None,193.43148689999998,None,a,1,0.47705050000013216,193.43148689999998,None,,,,,,,,,,,,,4,001,2022_Aug_07_1644,Flanker,2021.2.0,240.95688799179072,
congruent-left.jpg,1,a,left_arrow.png,left_arrow.png,left_arrow.png,left_arrow.png,left_arrow.png,left_arrow.png,left_arrow.png,,,,,,,,,0,5,5,0,,,,,,,,,193.92385689999992,None,,,,,,,,,,,,,,,,,,,,,,,,,,,,,,194.92890739999984,None,194.92890739999984,None,194.92890739999984,None,194.92890739999984,None,194.92890739999984,None,194.92890739999984,None,194.92890739999984,None,a,1,0.43579890000000887,194.92890739999984,None,,,,,,,,,,,,,4,001,2022_Aug_07_1644,Flanker,2021.2.0,240.95688799179072,
neutral right,0,k,neutral.png,neutral.png,neutral.png,right_arrow.png,neutral.png,neutral.png,neutral.png,,,,,,,,,1,0,6,5,,,,,,,,,195.37959749999982,None,,,,,,,,,,,,,,,,,,,,,,,,,,,,,,196.39713429999983,None,196.39713429999983,None,196.39713429999983,None,196.39713429999983,None,196.39713429999983,None,196.39713429999983,None,196.39713429999983,None,k,1,0.4079175000001669,196.39713429999983,None,,,,,,,,,,,,,4,001,2022_Aug_07_1644,Flanker,2021.2.0,240.95688799179072,
incongruent-left.jpg,0,a,right_arrow.png,right_arrow.png,right_arrow.png,left_arrow.png,right_arrow.png,right_arrow.png,right_arrow.png,,,,,,,,,1,1,7,1,,,,,,,,,196.8227197000001,None,,,,,,,,,,,,,,,,,,,,,,,,,,,,,,197.83631319999995,None,197.83631319999995,None,197.83631319999995,None,197.83631319999995,None,197.83631319999995,None,197.83631319999995,None,197.83631319999995,None,a,1,0.40878169999996317,197.83631319999995,None,,,,,,,,,,,,,4,001,2022_Aug_07_1644,Flanker,2021.2.0,240.95688799179072,
congruent-left.jpg,1,a,left_arrow.png,left_arrow.png,left_arrow.png,left_arrow.png,left_arrow.png,left_arrow.png,left_arrow.png,,,,,,,,,1,2,8,0,,,,,,,,,198.2617425999997,None,,,,,,,,,,,,,,,,,,,,,,,,,,,,,,199.2753232,None,199.2753232,None,199.2753232,None,199.2753232,None,199.2753232,None,199.2753232,None,199.2753232,None,a,1,0.3540493999998944,199.2753232,None,,,,,,,,,,,,,4,001,2022_Aug_07_1644,Flanker,2021.2.0,240.95688799179072,
congruent-left.jpg,1,a,left_arrow.png,left_arrow.png,left_arrow.png,left_arrow.png,left_arrow.png,left_arrow.png,left_arrow.png,,,,,,,,,1,3,9,0,,,,,,,,,199.64237189999994,None,,,,,,,,,,,,,,,,,,,,,,,,,,,,,,200.65596879999975,None,200.65596879999975,None,200.65596879999975,None,200.65596879999975,None,200.65596879999975,None,200.65596879999975,None,200.65596879999975,None,a,1,0.37347249999993437,200.65596879999975,None,,,,,,,,,,,,,4,001,2022_Aug_07_1644,Flanker,2021.2.0,240.95688799179072,
congruent-right.jpg,1,k,right_arrow.png,right_arrow.png,right_arrow.png,right_arrow.png,right_arrow.png,right_arrow.png,right_arrow.png,,,,,,,,,1,4,10,2,,,,,,,,,201.04788329999974,None,,,,,,,,,,,,,,,,,,,,,,,,,,,,,,202.06158229999983,None,202.06158229999983,None,202.06158229999983,None,202.06158229999983,None,202.06158229999983,None,202.06158229999983,None,202.06158229999983,None,k,1,0.4002205000001595,202.06158229999983,None,,,,,,,,,,,,,4,001,2022_Aug_07_1644,Flanker,2021.2.0,240.95688799179072,
congruent-right.jpg,1,k,right_arrow.png,right_arrow.png,right_arrow.png,right_arrow.png,right_arrow.png,right_arrow.png,right_arrow.png,,,,,,,,,1,5,11,2,,,,,,,,,202.47871769999983,None,,,,,,,,,,,,,,,,,,,,,,,,,,,,,,203.4922901,None,203.4922901,None,203.4922901,None,203.4922901,None,203.4922901,None,203.4922901,None,203.4922901,None,k,1,0.3855719000002864,203.4922901,None,,,,,,,,,,,,,4,001,2022_Aug_07_1644,Flanker,2021.2.0,240.95688799179072,
congruent-right.jpg,1,k,right_arrow.png,right_arrow.png,right_arrow.png,right_arrow.png,right_arrow.png,right_arrow.png,right_arrow.png,,,,,,,,,2,0,12,2,,,,,,,,,203.89276579999978,None,,,,,,,,,,,,,,,,,,,,,,,,,,,,,,204.9061916999999,None,204.9061916999999,None,204.9061916999999,None,204.9061916999999,None,204.9061916999999,None,204.9061916999999,None,204.9061916999999,None,k,1,0.37182380000012927,204.9061916999999,None,,,,,,,,,,,,,4,001,2022_Aug_07_1644,Flanker,2021.2.0,240.95688799179072,
congruent-right.jpg,1,k,right_arrow.png,right_arrow.png,right_arrow.png,right_arrow.png,right_arrow.png,right_arrow.png,right_arrow.png,,,,,,,,,2,1,13,2,,,,,,,,,205.2898722,None,,,,,,,,,,,,,,,,,,,,,,,,,,,,,,206.30344909999985,None,206.30344909999985,None,206.30344909999985,None,206.30344909999985,None,206.30344909999985,None,206.30344909999985,None,206.30344909999985,None,k,1,0.31077949999962584,206.30344909999985,None,,,,,,,,,,,,,4,001,2022_Aug_07_1644,Flanker,2021.2.0,240.95688799179072,
incongruent-left.jpg,0,a,right_arrow.png,right_arrow.png,right_arrow.png,left_arrow.png,right_arrow.png,right_arrow.png,right_arrow.png,,,,,,,,,2,2,14,1,,,,,,,,,206.62878169999976,None,,,,,,,,,,,,,,,,,,,,,,,,,,,,,,207.64256609999984,None,207.64256609999984,None,207.64256609999984,None,207.64256609999984,None,207.64256609999984,None,207.64256609999984,None,207.64256609999984,None,a,1,0.4278737999998157,207.64256609999984,None,,,,,,,,,,,,,4,001,2022_Aug_07_1644,Flanker,2021.2.0,240.95688799179072,
congruent-left.jpg,1,a,left_arrow.png,left_arrow.png,left_arrow.png,left_arrow.png,left_arrow.png,left_arrow.png,left_arrow.png,,,,,,,,,2,3,15,0,,,,,,,,,208.08471439999994,None,,,,,,,,,,,,,,,,,,,,,,,,,,,,,,209.09814430000006,None,209.09814430000006,None,209.09814430000006,None,209.09814430000006,None,209.09814430000006,None,209.09814430000006,None,209.09814430000006,None,a,1,0.34873090000019147,209.09814430000006,None,,,,,,,,,,,,,4,001,2022_Aug_07_1644,Flanker,2021.2.0,240.95688799179072,
neutral left,0,a,neutral.png,neutral.png,neutral.png,left_arrow.png,neutral.png,neutral.png,neutral.png,,,,,,,,,2,4,16,4,,,,,,,,,209.46511329999976,None,,,,,,,,,,,,,,,,,,,,,,,,,,,,,,210.47468320000007,None,210.47468320000007,None,210.47468320000007,None,210.47468320000007,None,210.47468320000007,None,210.47468320000007,None,210.47468320000007,None,a,1,0.36410420000038357,210.47468320000007,None,,,,,,,,,,,,,4,001,2022_Aug_07_1644,Flanker,2021.2.0,240.95688799179072,
incongruent-left.jpg,0,a,right_arrow.png,right_arrow.png,right_arrow.png,left_arrow.png,right_arrow.png,right_arrow.png,right_arrow.png,,,,,,,,,2,5,17,1,,,,,,,,,210.8500841,None,,,,,,,,,,,,,,,,,,,,,,,,,,,,,,211.86781389999987,None,211.86781389999987,None,211.86781389999987,None,211.86781389999987,None,211.86781389999987,None,211.86781389999987,None,211.86781389999987,None,k,0,0.387301799999932,211.86781389999987,None,,,,,,,,,,,,,4,001,2022_Aug_07_1644,Flanker,2021.2.0,240.95688799179072,
neutral right,0,k,neutral.png,neutral.png,neutral.png,right_arrow.png,neutral.png,neutral.png,neutral.png,,,,,,,,,3,0,18,5,,,,,,,,,212.2682875999999,None,,,,,,,,,,,,,,,,,,,,,,,,,,,,,,213.28168069999992,None,213.28168069999992,None,213.28168069999992,None,213.28168069999992,None,213.28168069999992,None,213.28168069999992,None,213.28168069999992,None,k,1,0.36547010000003866,213.28168069999992,None,,,,,,,,,,,,,4,001,2022_Aug_07_1644,Flanker,2021.2.0,240.95688799179072,
incongruent-right.jpg,0,k,left_arrow.png,left_arrow.png,left_arrow.png,right_arrow.png,left_arrow.png,left_arrow.png,left_arrow.png,,,,,,,,,3,1,19,3,,,,,,,,,213.66554199999973,None,,,,,,,,,,,,,,,,,,,,,,,,,,,,,,214.67913169999974,None,214.67913169999974,None,214.67913169999974,None,214.67913169999974,None,214.67913169999974,None,214.67913169999974,None,214.67913169999974,None,k,1,0.4802184000000125,214.67913169999974,None,,,,,,,,,,,,,4,001,2022_Aug_07_1644,Flanker,2021.2.0,240.95688799179072,
congruent-right.jpg,1,k,right_arrow.png,right_arrow.png,right_arrow.png,right_arrow.png,right_arrow.png,right_arrow.png,right_arrow.png,,,,,,,,,3,2,20,2,,,,,,,,,215.1713749999999,None,,,,,,,,,,,,,,,,,,,,,,,,,,,,,,216.1807214999999,None,216.1807214999999,None,216.1807214999999,None,216.1807214999999,None,216.1807214999999,None,216.1807214999999,None,216.1807214999999,None,k,1,0.33884249999982785,216.1807214999999,None,,,,,,,,,,,,,4,001,2022_Aug_07_1644,Flanker,2021.2.0,240.95688799179072,
congruent-left.jpg,1,a,left_arrow.png,left_arrow.png,left_arrow.png,left_arrow.png,left_arrow.png,left_arrow.png,left_arrow.png,,,,,,,,,3,3,21,0,,,,,,,,,216.53108220000013,None,,,,,,,,,,,,,,,,,,,,,,,,,,,,,,217.5405098000001,None,217.5405098000001,None,217.5405098000001,None,217.5405098000001,None,217.5405098000001,None,217.5405098000001,None,217.5405098000001,None,a,1,0.3952345000002424,217.5405098000001,None,,,,,,,,,,,,,4,001,2022_Aug_07_1644,Flanker,2021.2.0,240.95688799179072,
neutral right,0,k,neutral.png,neutral.png,neutral.png,right_arrow.png,neutral.png,neutral.png,neutral.png,,,,,,,,,3,4,22,5,,,,,,,,,217.9492626000001,None,,,,,,,,,,,,,,,,,,,,,,,,,,,,,,218.95866339999975,None,218.95866339999975,None,218.95866339999975,None,218.95866339999975,None,218.95866339999975,None,218.95866339999975,None,218.95866339999975,None,k,1,0.41740660000004937,218.95866339999975,None,,,,,,,,,,,,,4,001,2022_Aug_07_1644,Flanker,2021.2.0,240.95688799179072,
neutral left,0,a,neutral.png,neutral.png,neutral.png,left_arrow.png,neutral.png,neutral.png,neutral.png,,,,,,,,,3,5,23,4,,,,,,,,,219.3924546999997,None,,,,,,,,,,,,,,,,,,,,,,,,,,,,,,220.40602149999995,None,220.40602149999995,None,220.40602149999995,None,220.40602149999995,None,220.40602149999995,None,220.40602149999995,None,220.40602149999995,None,a,1,0.378216699999939,220.40602149999995,None,,,,,,,,,,,,,4,001,2022_Aug_07_1644,Flanker,2021.2.0,240.95688799179072,
neutral right,0,k,neutral.png,neutral.png,neutral.png,right_arrow.png,neutral.png,neutral.png,neutral.png,,,,,,,,,4,0,24,5,,,,,,,,,220.7980496,None,,,,,,,,,,,,,,,,,,,,,,,,,,,,,,221.8074858,None,221.8074858,None,221.8074858,None,221.8074858,None,221.8074858,None,221.8074858,None,221.8074858,None,k,1,0.3691350999997667,221.8074858,None,,,,,,,,,,,,,4,001,2022_Aug_07_1644,Flanker,2021.2.0,240.95688799179072,
neutral left,0,a,neutral.png,neutral.png,neutral.png,left_arrow.png,neutral.png,neutral.png,neutral.png,,,,,,,,,4,1,25,4,,,,,,,,,222.1912425999999,None,,,,,,,,,,,,,,,,,,,,,,,,,,,,,,223.20064460000003,None,223.20064460000003,None,223.20064460000003,None,223.20064460000003,None,223.20064460000003,None,223.20064460000003,None,223.20064460000003,None,a,1,0.3919865999996546,223.20064460000003,None,,,,,,,,,,,,,4,001,2022_Aug_07_1644,Flanker,2021.2.0,240.95688799179072,
incongruent-right.jpg,0,k,left_arrow.png,left_arrow.png,left_arrow.png,right_arrow.png,left_arrow.png,left_arrow.png,left_arrow.png,,,,,,,,,4,2,26,3,,,,,,,,,223.60924879999993,None,,,,,,,,,,,,,,,,,,,,,,,,,,,,,,224.62298340000007,None,224.62298340000007,None,224.62298340000007,None,224.62298340000007,None,224.62298340000007,None,224.62298340000007,None,224.62298340000007,None,k,1,0.5216786999999385,224.62298340000007,None,,,,,,,,,,,,,4,001,2022_Aug_07_1644,Flanker,2021.2.0,240.95688799179072,
incongruent-left.jpg,0,a,right_arrow.png,right_arrow.png,right_arrow.png,left_arrow.png,right_arrow.png,right_arrow.png,right_arrow.png,,,,,,,,,4,3,27,1,,,,,,,,,225.1569439,None,,,,,,,,,,,,,,,,,,,,,,,,,,,,,,226.16628009999977,None,226.16628009999977,None,226.16628009999977,None,226.16628009999977,None,226.16628009999977,None,226.16628009999977,None,226.16628009999977,None,a,1,0.45082060000004276,226.16628009999977,None,,,,,,,,,,,,,4,001,2022_Aug_07_1644,Flanker,2021.2.0,240.95688799179072,
neutral right,0,k,neutral.png,neutral.png,neutral.png,right_arrow.png,neutral.png,neutral.png,neutral.png,,,,,,,,,4,4,28,5,,,,,,,,,226.63355550000006,None,,,,,,,,,,,,,,,,,,,,,,,,,,,,,,227.64714249999997,None,227.64714249999997,None,227.64714249999997,None,227.64714249999997,None,227.64714249999997,None,227.64714249999997,None,227.64714249999997,None,k,1,0.4020848999998634,227.64714249999997,None,,,,,,,,,,,,,4,001,2022_Aug_07_1644,Flanker,2021.2.0,240.95688799179072,
congruent-right.jpg,1,k,right_arrow.png,right_arrow.png,right_arrow.png,right_arrow.png,right_arrow.png,right_arrow.png,right_arrow.png,,,,,,,,,4,5,29,2,,,,,,,,,228.0642339000001,None,,,,,,,,,,,,,,,,,,,,,,,,,,,,,,229.07769129999997,None,229.07769129999997,None,229.07769129999997,None,229.07769129999997,None,229.07769129999997,None,229.07769129999997,None,229.07769129999997,None,k,1,0.4117823999999928,229.07769129999997,None,,,,,,,,,,,,,4,001,2022_Aug_07_1644,Flanker,2021.2.0,240.95688799179072,
congruent-left.jpg,1,a,left_arrow.png,left_arrow.png,left_arrow.png,left_arrow.png,left_arrow.png,left_arrow.png,left_arrow.png,,,,,,,,,5,0,30,0,,,,,,,,,229.50314359999993,None,,,,,,,,,,,,,,,,,,,,,,,,,,,,,,230.50834910000003,None,230.50834910000003,None,230.50834910000003,None,230.50834910000003,None,230.50834910000003,None,230.50834910000003,None,230.50834910000003,None,a,1,0.40507599999955346,230.50834910000003,None,,,,,,,,,,,,,4,001,2022_Aug_07_1644,Flanker,2021.2.0,240.95688799179072,
incongruent-left.jpg,0,a,right_arrow.png,right_arrow.png,right_arrow.png,left_arrow.png,right_arrow.png,right_arrow.png,right_arrow.png,,,,,,,,,5,1,31,1,,,,,,,,,230.92562839999982,None,,,,,,,,,,,,,,,,,,,,,,,,,,,,,,231.94333289999986,None,231.94333289999986,None,231.94333289999986,None,231.94333289999986,None,231.94333289999986,None,231.94333289999986,None,231.94333289999986,None,a,1,0.42662339999969845,231.94333289999986,None,,,,,,,,,,,,,4,001,2022_Aug_07_1644,Flanker,2021.2.0,240.95688799179072,
congruent-left.jpg,1,a,left_arrow.png,left_arrow.png,left_arrow.png,left_arrow.png,left_arrow.png,left_arrow.png,left_arrow.png,,,,,,,,,5,2,32,0,,,,,,,,,232.38537610000003,None,,,,,,,,,,,,,,,,,,,,,,,,,,,,,,233.39887240000007,None,233.39887240000007,None,233.39887240000007,None,233.39887240000007,None,233.39887240000007,None,233.39887240000007,None,233.39887240000007,None,a,1,0.39526569999998173,233.39887240000007,None,,,,,,,,,,,,,4,001,2022_Aug_07_1644,Flanker,2021.2.0,240.95688799179072,
incongruent-left.jpg,0,a,right_arrow.png,right_arrow.png,right_arrow.png,left_arrow.png,right_arrow.png,right_arrow.png,right_arrow.png,,,,,,,,,5,3,33,1,,,,,,,,,233.80775510000012,None,,,,,,,,,,,,,,,,,,,,,,,,,,,,,,234.8171167999999,None,234.8171167999999,None,234.8171167999999,None,234.8171167999999,None,234.8171167999999,None,234.8171167999999,None,234.8171167999999,None,a,1,0.47293820000004416,234.8171167999999,None,,,,,,,,,,,,,4,001,2022_Aug_07_1644,Flanker,2021.2.0,240.95688799179072,
congruent-right.jpg,1,k,right_arrow.png,right_arrow.png,right_arrow.png,right_arrow.png,right_arrow.png,right_arrow.png,right_arrow.png,,,,,,,,,5,4,34,2,,,,,,,,,235.30931099999998,None,,,,,,,,,,,,,,,,,,,,,,,,,,,,,,236.31892530000005,None,236.31892530000005,None,236.31892530000005,None,236.31892530000005,None,236.31892530000005,None,236.31892530000005,None,236.31892530000005,None,k,1,0.42729140000028565,236.31892530000005,None,,,,,,,,,,,,,4,001,2022_Aug_07_1644,Flanker,2021.2.0,240.95688799179072,
neutral right,0,k,neutral.png,neutral.png,neutral.png,right_arrow.png,neutral.png,neutral.png,neutral.png,,,,,,,,,5,5,35,5,,,,,,,,,236.7608193000001,None,,,,,,,,,,,,,,,,,,,,,,,,,,,,,,237.77452589999984,None,237.77452589999984,None,237.77452589999984,None,237.77452589999984,None,237.77452589999984,None,237.77452589999984,None,237.77452589999984,None,k,1,0.3958830000001399,237.77452589999984,None,,,,,,,,,,,,,4,001,2022_Aug_07_1644,Flanker,2021.2.0,240.95688799179072,
neutral left,0,a,neutral.png,neutral.png,neutral.png,left_arrow.png,neutral.png,neutral.png,neutral.png,,,,,,,,,6,0,36,4,,,,,,,,,238.1833784999999,None,,,,,,,,,,,,,,,,,,,,,,,,,,,,,,239.18837489999987,None,239.18837489999987,None,239.18837489999987,None,239.18837489999987,None,239.18837489999987,None,239.18837489999987,None,239.18837489999987,None,a,1,0.39821260000007896,239.18837489999987,None,,,,,,,,,,,,,4,001,2022_Aug_07_1644,Flanker,2021.2.0,240.95688799179072,
incongruent-right.jpg,0,k,left_arrow.png,left_arrow.png,left_arrow.png,right_arrow.png,left_arrow.png,left_arrow.png,left_arrow.png,,,,,,,,,6,1,37,3,,,,,,,,,239.60552359999974,None,,,,,,,,,,,,,,,,,,,,,,,,,,,,,,240.62308059999987,None,240.62308059999987,None,240.62308059999987,None,240.62308059999987,None,240.62308059999987,None,240.62308059999987,None,240.62308059999987,None,k,1,0.44381669999984297,240.62308059999987,None,,,,,,,,,,,,,4,001,2022_Aug_07_1644,Flanker,2021.2.0,240.95688799179072,
neutral left,0,a,neutral.png,neutral.png,neutral.png,left_arrow.png,neutral.png,neutral.png,neutral.png,,,,,,,,,6,2,38,4,,,,,,,,,241.0820232000001,None,,,,,,,,,,,,,,,,,,,,,,,,,,,,,,242.09578629999987,None,242.09578629999987,None,242.09578629999987,None,242.09578629999987,None,242.09578629999987,None,242.09578629999987,None,242.09578629999987,None,a,1,0.4111908999998377,242.09578629999987,None,,,,,,,,,,,,,4,001,2022_Aug_07_1644,Flanker,2021.2.0,240.95688799179072,
neutral left,0,a,neutral.png,neutral.png,neutral.png,left_arrow.png,neutral.png,neutral.png,neutral.png,,,,,,,,,6,3,39,4,,,,,,,,,242.5209445999999,None,,,,,,,,,,,,,,,,,,,,,,,,,,,,,,243.53035640000007,None,243.53035640000007,None,243.53035640000007,None,243.53035640000007,None,243.53035640000007,None,243.53035640000007,None,243.53035640000007,None,a,1,0.40081099999997605,243.53035640000007,None,,,,,,,,,,,,,4,001,2022_Aug_07_1644,Flanker,2021.2.0,240.95688799179072,
neutral left,0,a,neutral.png,neutral.png,neutral.png,left_arrow.png,neutral.png,neutral.png,neutral.png,,,,,,,,,6,4,40,4,,,,,,,,,243.9474712000001,None,,,,,,,,,,,,,,,,,,,,,,,,,,,,,,244.95716719999973,None,244.95716719999973,None,244.95716719999973,None,244.95716719999973,None,244.95716719999973,None,244.95716719999973,None,244.95716719999973,None,a,1,0.3823523999999452,244.95716719999973,None,,,,,,,,,,,,,4,001,2022_Aug_07_1644,Flanker,2021.2.0,240.95688799179072,
neutral right,0,k,neutral.png,neutral.png,neutral.png,right_arrow.png,neutral.png,neutral.png,neutral.png,,,,,,,,,6,5,41,5,,,,,,,,,245.35725509999975,None,,,,,,,,,,,,,,,,,,,,,,,,,,,,,,246.37086679999993,None,246.37086679999993,None,246.37086679999993,None,246.37086679999993,None,246.37086679999993,None,246.37086679999993,None,246.37086679999993,None,k,1,0.40876380000008794,246.37086679999993,None,,,,,,,,,,,,,4,001,2022_Aug_07_1644,Flanker,2021.2.0,240.95688799179072,
incongruent-left.jpg,0,a,right_arrow.png,right_arrow.png,right_arrow.png,left_arrow.png,right_arrow.png,right_arrow.png,right_arrow.png,,,,,,,,,7,0,42,1,,,,,,,,,246.79662169999983,None,,,,,,,,,,,,,,,,,,,,,,,,,,,,,,247.80985899999996,None,247.80985899999996,None,247.80985899999996,None,247.80985899999996,None,247.80985899999996,None,247.80985899999996,None,247.80985899999996,None,a,1,0.45003540000016073,247.80985899999996,None,,,,,,,,,,,,,4,001,2022_Aug_07_1644,Flanker,2021.2.0,240.95688799179072,
incongruent-right.jpg,0,k,left_arrow.png,left_arrow.png,left_arrow.png,right_arrow.png,left_arrow.png,left_arrow.png,left_arrow.png,,,,,,,,,7,1,43,3,,,,,,,,,248.27701389999993,None,,,,,,,,,,,,,,,,,,,,,,,,,,,,,,249.28657350000003,None,249.28657350000003,None,249.28657350000003,None,249.28657350000003,None,249.28657350000003,None,249.28657350000003,None,249.28657350000003,None,k,1,0.4214161999998396,249.28657350000003,None,,,,,,,,,,,,,4,001,2022_Aug_07_1644,Flanker,2021.2.0,240.95688799179072,
incongruent-right.jpg,0,k,left_arrow.png,left_arrow.png,left_arrow.png,right_arrow.png,left_arrow.png,left_arrow.png,left_arrow.png,,,,,,,,,7,2,44,3,,,,,,,,,249.72020909999992,None,,,,,,,,,,,,,,,,,,,,,,,,,,,,,,250.7339517999999,None,250.7339517999999,None,250.7339517999999,None,250.7339517999999,None,250.7339517999999,None,250.7339517999999,None,250.7339517999999,None,k,1,0.5181965000001583,250.7339517999999,None,,,,,,,,,,,,,4,001,2022_Aug_07_1644,Flanker,2021.2.0,240.95688799179072,
incongruent-right.jpg,0,k,left_arrow.png,left_arrow.png,left_arrow.png,right_arrow.png,left_arrow.png,left_arrow.png,left_arrow.png,,,,,,,,,7,3,45,3,,,,,,,,,251.26776689999997,None,,,,,,,,,,,,,,,,,,,,,,,,,,,,,,252.27724439999974,None,252.27724439999974,None,252.27724439999974,None,252.27724439999974,None,252.27724439999974,None,252.27724439999974,None,252.27724439999974,None,k,1,0.4630936999997175,252.27724439999974,None,,,,,,,,,,,,,4,001,2022_Aug_07_1644,Flanker,2021.2.0,240.95688799179072,
neutral left,0,a,neutral.png,neutral.png,neutral.png,left_arrow.png,neutral.png,neutral.png,neutral.png,,,,,,,,,7,4,46,4,,,,,,,,,252.75267320000012,None,,,,,,,,,,,,,,,,,,,,,,,,,,,,,,253.77045520000001,None,253.77045520000001,None,253.77045520000001,None,253.77045520000001,None,253.77045520000001,None,253.77045520000001,None,253.77045520000001,None,a,1,0.5781062999999449,253.77045520000001,None,,,,,,,,,,,,,4,001,2022_Aug_07_1644,Flanker,2021.2.0,240.95688799179072,
neutral right,0,k,neutral.png,neutral.png,neutral.png,right_arrow.png,neutral.png,neutral.png,neutral.png,,,,,,,,,7,5,47,5,,,,,,,,,254.36296850000008,None,,,,,,,,,,,,,,,,,,,,,,,,,,,,,,255.3720417999998,None,255.3720417999998,None,255.3720417999998,None,255.3720417999998,None,255.3720417999998,None,255.3720417999998,None,255.3720417999998,None,k,1,0.37672840000004726,255.3720417999998,None,,,,,,,,,,,,,4,001,2022_Aug_07_1644,Flanker,2021.2.0,240.95688799179072,
,,,,,,,,,,,,,,,,,,,,,,,,,,,,,,,,,,,,,,,,,,,,,,,,,,,,,,,,,,,,,,,,,,,,,,,,,,,,,,,,255.77686210000002,None,space,2.0763100999997732,255.77686210000002,None,,,,,,,4,001,2022_Aug_07_1644,Flanker,2021.2.0,240.95688799179072,
neutral right,0,k,neutral.png,neutral.png,neutral.png,right_arrow.png,neutral.png,neutral.png,neutral.png,,,,,,,,,,,,,0,0,0,5,,,,,257.8789363000001,None,,,,,,,,,,,,,,,,,,,,,,,,,,,,,,258.8882540999998,None,258.8882540999998,None,258.8882540999998,None,258.8882540999998,None,258.8882540999998,None,258.8882540999998,None,258.8882540999998,None,k,1,0.45301689999996597,258.8882540999998,None,,,,,,,,,,,,,4,001,2022_Aug_07_1644,Flanker,2021.2.0,240.95688799179072,
congruent-left.jpg,1,a,left_arrow.png,left_arrow.png,left_arrow.png,left_arrow.png,left_arrow.png,left_arrow.png,left_arrow.png,,,,,,,,,,,,,0,1,1,0,,,,,259.3554704999997,None,,,,,,,,,,,,,,,,,,,,,,,,,,,,,,260.36935330000006,None,260.36935330000006,None,260.36935330000006,None,260.36935330000006,None,260.36935330000006,None,260.36935330000006,None,260.36935330000006,None,a,1,0.3880480000002535,260.36935330000006,None,,,,,,,,,,,,,4,001,2022_Aug_07_1644,Flanker,2021.2.0,240.95688799179072,
congruent-right.jpg,1,k,right_arrow.png,right_arrow.png,right_arrow.png,right_arrow.png,right_arrow.png,right_arrow.png,right_arrow.png,,,,,,,,,,,,,0,2,2,2,,,,,260.7694161999998,None,,,,,,,,,,,,,,,,,,,,,,,,,,,,,,261.78314550000005,None,261.78314550000005,None,261.78314550000005,None,261.78314550000005,None,261.78314550000005,None,261.78314550000005,None,261.78314550000005,None,k,1,0.38271420000000944,261.78314550000005,None,,,,,,,,,,,,,4,001,2022_Aug_07_1644,Flanker,2021.2.0,240.95688799179072,
incongruent-right.jpg,0,k,left_arrow.png,left_arrow.png,left_arrow.png,right_arrow.png,left_arrow.png,left_arrow.png,left_arrow.png,,,,,,,,,,,,,0,3,3,3,,,,,262.1835695,None,,,,,,,,,,,,,,,,,,,,,,,,,,,,,,263.1969833999997,None,263.1969833999997,None,263.1969833999997,None,263.1969833999997,None,263.1969833999997,None,263.1969833999997,None,263.1969833999997,None,k,1,0.40081110000028275,263.1969833999997,None,,,,,,,,,,,,,4,001,2022_Aug_07_1644,Flanker,2021.2.0,240.95688799179072,
incongruent-right.jpg,0,k,left_arrow.png,left_arrow.png,left_arrow.png,right_arrow.png,left_arrow.png,left_arrow.png,left_arrow.png,,,,,,,,,,,,,0,4,4,3,,,,,263.61408359999996,None,,,,,,,,,,,,,,,,,,,,,,,,,,,,,,264.6193573999999,None,264.6193573999999,None,264.6193573999999,None,264.6193573999999,None,264.6193573999999,None,264.6193573999999,None,264.6193573999999,None,k,1,0.3466222000001835,264.6193573999999,None,,,,,,,,,,,,,4,001,2022_Aug_07_1644,Flanker,2021.2.0,240.95688799179072,
neutral right,0,k,neutral.png,neutral.png,neutral.png,right_arrow.png,neutral.png,neutral.png,neutral.png,,,,,,,,,,,,,0,5,5,5,,,,,264.97804270000006,None,,,,,,,,,,,,,,,,,,,,,,,,,,,,,,265.99593449999975,None,265.99593449999975,None,265.99593449999975,None,265.99593449999975,None,265.99593449999975,None,265.99593449999975,None,265.99593449999975,None,k,1,0.3142177999998239,265.99593449999975,None,,,,,,,,,,,,,4,001,2022_Aug_07_1644,Flanker,2021.2.0,240.95688799179072,
incongruent-right.jpg,0,k,left_arrow.png,left_arrow.png,left_arrow.png,right_arrow.png,left_arrow.png,left_arrow.png,left_arrow.png,,,,,,,,,,,,,1,0,6,3,,,,,266.3294824999998,None,,,,,,,,,,,,,,,,,,,,,,,,,,,,,,267.3473452999997,None,267.3473452999997,None,267.3473452999997,None,267.3473452999997,None,267.3473452999997,None,267.3473452999997,None,267.3473452999997,None,a,0,0.36298390000001746,267.3473452999997,None,,,,,,,,,,,,,4,001,2022_Aug_07_1644,Flanker,2021.2.0,240.95688799179072,
incongruent-right.jpg,0,k,left_arrow.png,left_arrow.png,left_arrow.png,right_arrow.png,left_arrow.png,left_arrow.png,left_arrow.png,,,,,,,,,,,,,1,1,7,3,,,,,267.7227066999999,None,,,,,,,,,,,,,,,,,,,,,,,,,,,,,,268.7279619000001,None,268.7279619000001,None,268.7279619000001,None,268.7279619000001,None,268.7279619000001,None,268.7279619000001,None,268.7279619000001,None,k,1,0.4709877999998753,268.7279619000001,None,,,,,,,,,,,,,4,001,2022_Aug_07_1644,Flanker,2021.2.0,240.95688799179072,
congruent-left.jpg,1,a,left_arrow.png,left_arrow.png,left_arrow.png,left_arrow.png,left_arrow.png,left_arrow.png,left_arrow.png,,,,,,,,,,,,,1,2,8,0,,,,,269.2118365000001,None,,,,,,,,,,,,,,,,,,,,,,,,,,,,,,270.22123079999983,None,270.22123079999983,None,270.22123079999983,None,270.22123079999983,None,270.22123079999983,None,270.22123079999983,None,270.22123079999983,None,a,1,0.47354559999985213,270.22123079999983,None,,,,,,,,,,,,,4,001,2022_Aug_07_1644,Flanker,2021.2.0,240.95688799179072,
incongruent-left.jpg,0,a,right_arrow.png,right_arrow.png,right_arrow.png,left_arrow.png,right_arrow.png,right_arrow.png,right_arrow.png,,,,,,,,,,,,,1,3,9,1,,,,,270.7135088,None,,,,,,,,,,,,,,,,,,,,,,,,,,,,,,271.72692689999985,None,271.72692689999985,None,271.72692689999985,None,271.72692689999985,None,271.72692689999985,None,271.72692689999985,None,271.72692689999985,None,a,1,0.48003319999997984,271.72692689999985,None,,,,,,,,,,,,,4,001,2022_Aug_07_1644,Flanker,2021.2.0,240.95688799179072,
incongruent-left.jpg,0,a,right_arrow.png,right_arrow.png,right_arrow.png,left_arrow.png,right_arrow.png,right_arrow.png,right_arrow.png,,,,,,,,,,,,,1,4,10,1,,,,,272.2192332999998,None,,,,,,,,,,,,,,,,,,,,,,,,,,,,,,273.2285999999999,None,273.2285999999999,None,273.2285999999999,None,273.2285999999999,None,273.2285999999999,None,273.2285999999999,None,273.2285999999999,None,a,1,0.4267122000001109,273.2285999999999,None,,,,,,,,,,,,,4,001,2022_Aug_07_1644,Flanker,2021.2.0,240.95688799179072,
incongruent-right.jpg,0,k,left_arrow.png,left_arrow.png,left_arrow.png,right_arrow.png,left_arrow.png,left_arrow.png,left_arrow.png,,,,,,,,,,,,,1,5,11,3,,,,,273.67080499999975,None,,,,,,,,,,,,,,,,,,,,,,,,,,,,,,274.6801201999997,None,274.6801201999997,None,274.6801201999997,None,274.6801201999997,None,274.6801201999997,None,274.6801201999997,None,274.6801201999997,None,k,1,0.4392493000000286,274.6801201999997,None,,,,,,,,,,,,,4,001,2022_Aug_07_1644,Flanker,2021.2.0,240.95688799179072,
incongruent-left.jpg,0,a,right_arrow.png,right_arrow.png,right_arrow.png,left_arrow.png,right_arrow.png,right_arrow.png,right_arrow.png,,,,,,,,,,,,,2,0,12,1,,,,,275.13074419999975,None,,,,,,,,,,,,,,,,,,,,,,,,,,,,,,276.1440316999997,None,276.1440316999997,None,276.1440316999997,None,276.1440316999997,None,276.1440316999997,None,276.1440316999997,None,276.1440316999997,None,a,1,0.3835051000000931,276.1440316999997,None,,,,,,,,,,,,,4,001,2022_Aug_07_1644,Flanker,2021.2.0,240.95688799179072,
congruent-left.jpg,1,a,left_arrow.png,left_arrow.png,left_arrow.png,left_arrow.png,left_arrow.png,left_arrow.png,left_arrow.png,,,,,,,,,,,,,2,1,13,0,,,,,276.54058369999984,None,,,,,,,,,,,,,,,,,,,,,,,,,,,,,,277.5498241999999,None,277.5498241999999,None,277.5498241999999,None,277.5498241999999,None,277.5498241999999,None,277.5498241999999,None,277.5498241999999,None,a,1,0.39419520000001285,277.5498241999999,None,,,,,,,,,,,,,4,001,2022_Aug_07_1644,Flanker,2021.2.0,240.95688799179072,
incongruent-left.jpg,0,a,right_arrow.png,right_arrow.png,right_arrow.png,left_arrow.png,right_arrow.png,right_arrow.png,right_arrow.png,,,,,,,,,,,,,2,2,14,1,,,,,277.95858309999994,None,,,,,,,,,,,,,,,,,,,,,,,,,,,,,,278.97215749999987,None,278.97215749999987,None,278.97215749999987,None,278.97215749999987,None,278.97215749999987,None,278.97215749999987,None,278.97215749999987,None,a,1,0.49190709999993487,278.97215749999987,None,,,,,,,,,,,,,4,001,2022_Aug_07_1644,Flanker,2021.2.0,240.95688799179072,
congruent-right.jpg,1,k,right_arrow.png,right_arrow.png,right_arrow.png,right_arrow.png,right_arrow.png,right_arrow.png,right_arrow.png,,,,,,,,,,,,,2,3,15,2,,,,,279.4809028999998,None,,,,,,,,,,,,,,,,,,,,,,,,,,,,,,280.4946534999999,None,280.4946534999999,None,280.4946534999999,None,280.4946534999999,None,280.4946534999999,None,280.4946534999999,None,280.4946534999999,None,k,1,0.3936407999999574,280.4946534999999,None,,,,,,,,,,,,,4,001,2022_Aug_07_1644,Flanker,2021.2.0,240.95688799179072,
incongruent-left.jpg,0,a,right_arrow.png,right_arrow.png,right_arrow.png,left_arrow.png,right_arrow.png,right_arrow.png,right_arrow.png,,,,,,,,,,,,,2,4,16,1,,,,,280.90342250000003,None,,,,,,,,,,,,,,,,,,,,,,,,,,,,,,281.9169558999997,None,281.9169558999997,None,281.9169558999997,None,281.9169558999997,None,281.9169558999997,None,281.9169558999997,None,281.9169558999997,None,a,1,0.42734520000021803,281.9169558999997,None,,,,,,,,,,,,,4,001,2022_Aug_07_1644,Flanker,2021.2.0,240.95688799179072,
neutral right,0,k,neutral.png,neutral.png,neutral.png,right_arrow.png,neutral.png,neutral.png,neutral.png,,,,,,,,,,,,,2,5,17,5,,,,,282.3591468999998,None,,,,,,,,,,,,,,,,,,,,,,,,,,,,,,283.3727263999999,None,283.3727263999999,None,283.3727263999999,None,283.3727263999999,None,283.3727263999999,None,283.3727263999999,None,283.3727263999999,None,k,1,0.38776529999995546,283.3727263999999,None,,,,,,,,,,,,,4,001,2022_Aug_07_1644,Flanker,2021.2.0,240.95688799179072,
neutral left,0,a,neutral.png,neutral.png,neutral.png,left_arrow.png,neutral.png,neutral.png,neutral.png,,,,,,,,,,,,,3,0,18,4,,,,,283.7732160999999,None,,,,,,,,,,,,,,,,,,,,,,,,,,,,,,284.78670060000013,None,284.78670060000013,None,284.78670060000013,None,284.78670060000013,None,284.78670060000013,None,284.78670060000013,None,284.78670060000013,None,a,1,0.39003009999987626,284.78670060000013,None,,,,,,,,,,,,,4,001,2022_Aug_07_1644,Flanker,2021.2.0,240.95688799179072,
congruent-left.jpg,1,a,left_arrow.png,left_arrow.png,left_arrow.png,left_arrow.png,left_arrow.png,left_arrow.png,left_arrow.png,,,,,,,,,,,,,3,1,19,0,,,,,285.19548769999983,None,,,,,,,,,,,,,,,,,,,,,,,,,,,,,,286.2048168000001,None,286.2048168000001,None,286.2048168000001,None,286.2048168000001,None,286.2048168000001,None,286.2048168000001,None,286.2048168000001,None,a,1,0.3640832999999475,286.2048168000001,None,,,,,,,,,,,,,4,001,2022_Aug_07_1644,Flanker,2021.2.0,240.95688799179072,
congruent-left.jpg,1,a,left_arrow.png,left_arrow.png,left_arrow.png,left_arrow.png,left_arrow.png,left_arrow.png,left_arrow.png,,,,,,,,,,,,,3,2,20,0,,,,,286.5803513000001,None,,,,,,,,,,,,,,,,,,,,,,,,,,,,,,287.59378909999987,None,287.59378909999987,None,287.59378909999987,None,287.59378909999987,None,287.59378909999987,None,287.59378909999987,None,287.59378909999987,None,a,1,0.40730219999977635,287.59378909999987,None,,,,,,,,,,,,,4,001,2022_Aug_07_1644,Flanker,2021.2.0,240.95688799179072,
neutral right,0,k,neutral.png,neutral.png,neutral.png,right_arrow.png,neutral.png,neutral.png,neutral.png,,,,,,,,,,,,,3,3,21,5,,,,,288.01911100000007,None,,,,,,,,,,,,,,,,,,,,,,,,,,,,,,289.0371181999999,None,289.0371181999999,None,289.0371181999999,None,289.0371181999999,None,289.0371181999999,None,289.0371181999999,None,289.0371181999999,None,k,1,0.42039829999976064,289.0371181999999,None,,,,,,,,,,,,,4,001,2022_Aug_07_1644,Flanker,2021.2.0,240.95688799179072,
congruent-right.jpg,1,k,right_arrow.png,right_arrow.png,right_arrow.png,right_arrow.png,right_arrow.png,right_arrow.png,right_arrow.png,,,,,,,,,,,,,3,4,22,2,,,,,289.4709428000001,None,,,,,,,,,,,,,,,,,,,,,,,,,,,,,,290.48018139999976,None,290.48018139999976,None,290.48018139999976,None,290.48018139999976,None,290.48018139999976,None,290.48018139999976,None,290.48018139999976,None,k,1,0.36142800000015995,290.48018139999976,None,,,,,,,,,,,,,4,001,2022_Aug_07_1644,Flanker,2021.2.0,240.95688799179072,
congruent-right.jpg,1,k,right_arrow.png,right_arrow.png,right_arrow.png,right_arrow.png,right_arrow.png,right_arrow.png,right_arrow.png,,,,,,,,,,,,,3,5,23,2,,,,,290.85557740000013,None,,,,,,,,,,,,,,,,,,,,,,,,,,,,,,291.86923780000006,None,291.86923780000006,None,291.86923780000006,None,291.86923780000006,None,291.86923780000006,None,291.86923780000006,None,291.86923780000006,None,k,1,0.34874030000037237,291.86923780000006,None,,,,,,,,,,,,,4,001,2022_Aug_07_1644,Flanker,2021.2.0,240.95688799179072,
congruent-right.jpg,1,k,right_arrow.png,right_arrow.png,right_arrow.png,right_arrow.png,right_arrow.png,right_arrow.png,right_arrow.png,,,,,,,,,,,,,4,0,24,2,,,,,292.2361934999999,None,,,,,,,,,,,,,,,,,,,,,,,,,,,,,,293.2455786999999,None,293.2455786999999,None,293.2455786999999,None,293.2455786999999,None,293.2455786999999,None,293.2455786999999,None,293.2455786999999,None,k,1,0.3164071999999578,293.2455786999999,None,,,,,,,,,,,,,4,001,2022_Aug_07_1644,Flanker,2021.2.0,240.95688799179072,
congruent-right.jpg,1,k,right_arrow.png,right_arrow.png,right_arrow.png,right_arrow.png,right_arrow.png,right_arrow.png,right_arrow.png,,,,,,,,,,,,,4,1,25,2,,,,,293.5792790999999,None,,,,,,,,,,,,,,,,,,,,,,,,,,,,,,294.5886956999998,None,294.5886956999998,None,294.5886956999998,None,294.5886956999998,None,294.5886956999998,None,294.5886956999998,None,294.5886956999998,None,k,1,0.30143879999968703,294.5886956999998,None,,,,,,,,,,,,,4,001,2022_Aug_07_1644,Flanker,2021.2.0,240.95688799179072,
neutral left,0,a,neutral.png,neutral.png,neutral.png,left_arrow.png,neutral.png,neutral.png,neutral.png,,,,,,,,,,,,,4,2,26,4,,,,,294.90590919999977,None,,,,,,,,,,,,,,,,,,,,,,,,,,,,,,295.9151068000001,None,295.9151068000001,None,295.9151068000001,None,295.9151068000001,None,295.9151068000001,None,295.9151068000001,None,295.9151068000001,None,a,1,0.4073653000000377,295.9151068000001,None,,,,,,,,,,,,,4,001,2022_Aug_07_1644,Flanker,2021.2.0,240.95688799179072,
congruent-left.jpg,1,a,left_arrow.png,left_arrow.png,left_arrow.png,left_arrow.png,left_arrow.png,left_arrow.png,left_arrow.png,,,,,,,,,,,,,4,3,27,0,,,,,296.34055549999994,None,,,,,,,,,,,,,,,,,,,,,,,,,,,,,,297.3541258999999,None,297.3541258999999,None,297.3541258999999,None,297.3541258999999,None,297.3541258999999,None,297.3541258999999,None,297.3541258999999,None,a,1,0.39226000000007843,297.3541258999999,None,,,,,,,,,,,,,4,001,2022_Aug_07_1644,Flanker,2021.2.0,240.95688799179072,
neutral right,0,k,neutral.png,neutral.png,neutral.png,right_arrow.png,neutral.png,neutral.png,neutral.png,,,,,,,,,,,,,4,4,28,5,,,,,297.76275959999975,None,,,,,,,,,,,,,,,,,,,,,,,,,,,,,,298.7721511999998,None,298.7721511999998,None,298.7721511999998,None,298.7721511999998,None,298.7721511999998,None,298.7721511999998,None,298.7721511999998,None,k,1,0.43037520000007135,298.7721511999998,None,,,,,,,,,,,,,4,001,2022_Aug_07_1644,Flanker,2021.2.0,240.95688799179072,
congruent-right.jpg,1,k,right_arrow.png,right_arrow.png,right_arrow.png,right_arrow.png,right_arrow.png,right_arrow.png,right_arrow.png,,,,,,,,,,,,,4,5,29,2,,,,,299.21448009999995,None,,,,,,,,,,,,,,,,,,,,,,,,,,,,,,300.2280151,None,300.2280151,None,300.2280151,None,300.2280151,None,300.2280151,None,300.2280151,None,300.2280151,None,k,1,0.38275819999989835,300.2280151,None,,,,,,,,,,,,,4,001,2022_Aug_07_1644,Flanker,2021.2.0,240.95688799179072,
incongruent-right.jpg,0,k,left_arrow.png,left_arrow.png,left_arrow.png,right_arrow.png,left_arrow.png,left_arrow.png,left_arrow.png,,,,,,,,,,,,,5,0,30,3,,,,,300.6284069999997,None,,,,,,,,,,,,,,,,,,,,,,,,,,,,,,301.6419907999998,None,301.6419907999998,None,301.6419907999998,None,301.6419907999998,None,301.6419907999998,None,301.6419907999998,None,301.6419907999998,None,k,1,0.4492847999999867,301.6419907999998,None,,,,,,,,,,,,,4,001,2022_Aug_07_1644,Flanker,2021.2.0,240.95688799179072,
neutral right,0,k,neutral.png,neutral.png,neutral.png,right_arrow.png,neutral.png,neutral.png,neutral.png,,,,,,,,,,,,,5,1,31,5,,,,,302.10921370000005,None,,,,,,,,,,,,,,,,,,,,,,,,,,,,,,303.12272699999994,None,303.12272699999994,None,303.12272699999994,None,303.12272699999994,None,303.12272699999994,None,303.12272699999994,None,303.12272699999994,None,k,1,0.3285835000001498,303.12272699999994,None,,,,,,,,,,,,,4,001,2022_Aug_07_1644,Flanker,2021.2.0,240.95688799179072,
neutral left,0,a,neutral.png,neutral.png,neutral.png,left_arrow.png,neutral.png,neutral.png,neutral.png,,,,,,,,,,,,,5,2,32,4,,,,,303.46474249999983,None,,,,,,,,,,,,,,,,,,,,,,,,,,,,,,304.4743727,None,304.4743727,None,304.4743727,None,304.4743727,None,304.4743727,None,304.4743727,None,304.4743727,None,a,1,0.40923039999961475,304.4743727,None,,,,,,,,,,,,,4,001,2022_Aug_07_1644,Flanker,2021.2.0,240.95688799179072,
neutral left,0,a,neutral.png,neutral.png,neutral.png,left_arrow.png,neutral.png,neutral.png,neutral.png,,,,,,,,,,,,,5,3,33,4,,,,,304.89946839999993,None,,,,,,,,,,,,,,,,,,,,,,,,,,,,,,305.91316959999995,None,305.91316959999995,None,305.91316959999995,None,305.91316959999995,None,305.91316959999995,None,305.91316959999995,None,305.91316959999995,None,a,1,0.35435000000006767,305.91316959999995,None,,,,,,,,,,,,,4,001,2022_Aug_07_1644,Flanker,2021.2.0,240.95688799179072,
incongruent-right.jpg,0,k,left_arrow.png,left_arrow.png,left_arrow.png,right_arrow.png,left_arrow.png,left_arrow.png,left_arrow.png,,,,,,,,,,,,,5,4,34,3,,,,,306.28022280000005,None,,,,,,,,,,,,,,,,,,,,,,,,,,,,,,307.2896258999999,None,307.2896258999999,None,307.2896258999999,None,307.2896258999999,None,307.2896258999999,None,307.2896258999999,None,307.2896258999999,None,k,1,0.4342396000001827,307.2896258999999,None,,,,,,,,,,,,,4,001,2022_Aug_07_1644,Flanker,2021.2.0,240.95688799179072,
incongruent-left.jpg,0,a,right_arrow.png,right_arrow.png,right_arrow.png,left_arrow.png,right_arrow.png,right_arrow.png,right_arrow.png,,,,,,,,,,,,,5,5,35,1,,,,,307.7401633999998,None,,,,,,,,,,,,,,,,,,,,,,,,,,,,,,308.7536706000001,None,308.7536706000001,None,308.7536706000001,None,308.7536706000001,None,308.7536706000001,None,308.7536706000001,None,308.7536706000001,None,a,1,0.36240770000040357,308.7536706000001,None,,,,,,,,,,,,,4,001,2022_Aug_07_1644,Flanker,2021.2.0,240.95688799179072,
neutral left,0,a,neutral.png,neutral.png,neutral.png,left_arrow.png,neutral.png,neutral.png,neutral.png,,,,,,,,,,,,,6,0,36,4,,,,,309.12908689999995,None,,,,,,,,,,,,,,,,,,,,,,,,,,,,,,310.1466707999998,None,310.1466707999998,None,310.1466707999998,None,310.1466707999998,None,310.1466707999998,None,310.1466707999998,None,310.1466707999998,None,a,1,0.3695637999999235,310.1466707999998,None,,,,,,,,,,,,,4,001,2022_Aug_07_1644,Flanker,2021.2.0,240.95688799179072,
incongruent-right.jpg,0,k,left_arrow.png,left_arrow.png,left_arrow.png,right_arrow.png,left_arrow.png,left_arrow.png,left_arrow.png,,,,,,,,,,,,,6,1,37,3,,,,,310.5347176,None,,,,,,,,,,,,,,,,,,,,,,,,,,,,,,311.54412809999985,None,311.54412809999985,None,311.54412809999985,None,311.54412809999985,None,311.54412809999985,None,311.54412809999985,None,311.54412809999985,None,k,1,0.49228949999996985,311.54412809999985,None,,,,,,,,,,,,,4,001,2022_Aug_07_1644,Flanker,2021.2.0,240.95688799179072,
congruent-right.jpg,1,k,right_arrow.png,right_arrow.png,right_arrow.png,right_arrow.png,right_arrow.png,right_arrow.png,right_arrow.png,,,,,,,,,,,,,6,2,38,2,,,,,312.0529904,None,,,,,,,,,,,,,,,,,,,,,,,,,,,,,,313.06655509999973,None,313.06655509999973,None,313.06655509999973,None,313.06655509999973,None,313.06655509999973,None,313.06655509999973,None,313.06655509999973,None,k,1,0.38592240000025413,313.06655509999973,None,,,,,,,,,,,,,4,001,2022_Aug_07_1644,Flanker,2021.2.0,240.95688799179072,
neutral left,0,a,neutral.png,neutral.png,neutral.png,left_arrow.png,neutral.png,neutral.png,neutral.png,,,,,,,,,,,,,6,3,39,4,,,,,313.46709770000007,None,,,,,,,,,,,,,,,,,,,,,,,,,,,,,,314.4805692,None,314.4805692,None,314.4805692,None,314.4805692,None,314.4805692,None,314.4805692,None,314.4805692,None,a,1,0.37207679999983156,314.4805692,None,,,,,,,,,,,,,4,001,2022_Aug_07_1644,Flanker,2021.2.0,240.95688799179072,
incongruent-left.jpg,0,a,right_arrow.png,right_arrow.png,right_arrow.png,left_arrow.png,right_arrow.png,right_arrow.png,right_arrow.png,,,,,,,,,,,,,6,4,40,1,,,,,314.8643757,None,,,,,,,,,,,,,,,,,,,,,,,,,,,,,,315.8779577,None,315.8779577,None,315.8779577,None,315.8779577,None,315.8779577,None,315.8779577,None,315.8779577,None,a,1,0.39905739999994694,315.8779577,None,,,,,,,,,,,,,4,001,2022_Aug_07_1644,Flanker,2021.2.0,240.95688799179072,
neutral right,0,k,neutral.png,neutral.png,neutral.png,right_arrow.png,neutral.png,neutral.png,neutral.png,,,,,,,,,,,,,6,5,41,5,,,,,316.29498379999995,None,,,,,,,,,,,,,,,,,,,,,,,,,,,,,,317.30854150000005,None,317.30854150000005,None,317.30854150000005,None,317.30854150000005,None,317.30854150000005,None,317.30854150000005,None,317.30854150000005,None,k,1,0.3764960999997129,317.30854150000005,None,,,,,,,,,,,,,4,001,2022_Aug_07_1644,Flanker,2021.2.0,240.95688799179072,
incongruent-left.jpg,0,a,right_arrow.png,right_arrow.png,right_arrow.png,left_arrow.png,right_arrow.png,right_arrow.png,right_arrow.png,,,,,,,,,,,,,7,0,42,1,,,,,317.7007039,None,,,,,,,,,,,,,,,,,,,,,,,,,,,,,,318.7141965999999,None,318.7141965999999,None,318.7141965999999,None,318.7141965999999,None,318.7141965999999,None,318.7141965999999,None,318.7141965999999,None,a,1,0.3790987000002133,318.7141965999999,None,,,,,,,,,,,,,4,001,2022_Aug_07_1644,Flanker,2021.2.0,240.95688799179072,
congruent-left.jpg,1,a,left_arrow.png,left_arrow.png,left_arrow.png,left_arrow.png,left_arrow.png,left_arrow.png,left_arrow.png,,,,,,,,,,,,,7,1,43,0,,,,,319.1063433999998,None,,,,,,,,,,,,,,,,,,,,,,,,,,,,,,320.11568480000005,None,320.11568480000005,None,320.11568480000005,None,320.11568480000005,None,320.11568480000005,None,320.11568480000005,None,320.11568480000005,None,a,1,0.3937263999996503,320.11568480000005,None,,,,,,,,,,,,,4,001,2022_Aug_07_1644,Flanker,2021.2.0,240.95688799179072,
neutral left,0,a,neutral.png,neutral.png,neutral.png,left_arrow.png,neutral.png,neutral.png,neutral.png,,,,,,,,,,,,,7,2,44,4,,,,,320.52433199999996,None,,,,,,,,,,,,,,,,,,,,,,,,,,,,,,321.5339927,None,321.5339927,None,321.5339927,None,321.5339927,None,321.5339927,None,321.5339927,None,321.5339927,None,a,1,0.41579360000014276,321.5339927,None,,,,,,,,,,,,,4,001,2022_Aug_07_1644,Flanker,2021.2.0,240.95688799179072,
neutral right,0,k,neutral.png,neutral.png,neutral.png,right_arrow.png,neutral.png,neutral.png,neutral.png,,,,,,,,,,,,,7,3,45,5,,,,,321.9676650000001,None,,,,,,,,,,,,,,,,,,,,,,,,,,,,,,322.9812173999999,None,322.9812173999999,None,322.9812173999999,None,322.9812173999999,None,322.9812173999999,None,322.9812173999999,None,322.9812173999999,None,k,1,0.3446216999996068,322.9812173999999,None,,,,,,,,,,,,,4,001,2022_Aug_07_1644,Flanker,2021.2.0,240.95688799179072,
neutral left,0,a,neutral.png,neutral.png,neutral.png,left_arrow.png,neutral.png,neutral.png,neutral.png,,,,,,,,,,,,,7,4,46,4,,,,,323.33994269999994,None,,,,,,,,,,,,,,,,,,,,,,,,,,,,,,324.34928360000004,None,324.34928360000004,None,324.34928360000004,None,324.34928360000004,None,324.34928360000004,None,324.34928360000004,None,324.34928360000004,None,a,1,0.34482509999998,324.34928360000004,None,,,,,,,,,,,,,4,001,2022_Aug_07_1644,Flanker,2021.2.0,240.95688799179072,
congruent-left.jpg,1,a,left_arrow.png,left_arrow.png,left_arrow.png,left_arrow.png,left_arrow.png,left_arrow.png,left_arrow.png,,,,,,,,,,,,,7,5,47,0,,,,,324.708122,None,,,,,,,,,,,,,,,,,,,,,,,,,,,,,,325.71744660000013,None,325.71744660000013,None,325.71744660000013,None,325.71744660000013,None,325.71744660000013,None,325.71744660000013,None,325.71744660000013,None,a,1,0.37670650000018213,325.71744660000013,None,,,,,,,,,,,,,4,001,2022_Aug_07_1644,Flanker,2021.2.0,240.95688799179072,
,,,,,,,,,,,,,,,,,,,,,,,,,,,,,,,,,,,,,,,,,,,,,,,,,,,,,,,,,,,,,,,,,,,,,,,,,,,,,,,,326.1095416999997,None,space,6.937554499999806,326.1095416999997,None,,,,,,,4,001,2022_Aug_07_1644,Flanker,2021.2.0,240.95688799179072,
,,,,,,,,,,,,,,,,,,,,,,,,,,,,,,,,,,,,,,,,,,,,,,,,,,,,,,,,,,,,,,,,,,,,,,,,,,,,,,,,,,,,,,333.05865300000005,None,space,133.03018930000007,333.05865300000005,None,4,001,2022_Aug_07_1644,Flanker,2021.2.0,240.95688799179072,
