images,congruentcy,corrAns,arrow_1,arrow_2,arrow_3,target,arrow_5,arrow_6,arrow_7,practice.thisRepN,practice.thisTrialN,practice.thisN,practice.thisIndex,trials.thisRepN,trials.thisTrialN,trials.thisN,trials.thisIndex,trials_2.thisRepN,trials_2.thisTrialN,trials_2.thisN,trials_2.thisIndex,trials_3.thisRepN,trials_3.thisTrialN,trials_3.thisN,trials_3.thisIndex,instr_text.started,instr_text.stopped,instr_resp.keys,instr_resp.rt,polygon.started,polygon.stopped,arrow1_.started,arrow1_.stopped,arrow2_.started,arrow2_.stopped,arrow3_.started,arrow3_.stopped,target_p.started,target_p.stopped,arrow5_.started,arrow5_.stopped,arrow6_.started,arrow6_.stopped,arrow7_.started,arrow7_.stopped,key_resp_P.keys,key_resp_P.corr,key_resp_P.rt,key_resp_P.started,key_resp_P.stopped,text_2.started,text_2.stopped,text_3.started,text_3.stopped,text_4.started,text_4.stopped,key_resp_2.keys,key_resp_2.rt,key_resp_2.started,key_resp_2.stopped,arrow1.started,arrow1.stopped,arrow2.started,arrow2.stopped,arrow3.started,arrow3.stopped,target_t.started,target_t.stopped,arrow5.started,arrow5.stopped,arrow6.started,arrow6.stopped,arrow7.started,arrow7.stopped,key_resp.keys,key_resp.corr,key_resp.rt,key_resp.started,key_resp.stopped,text_5.started,text_5.stopped,key_resp_3.keys,key_resp_3.rt,key_resp_3.started,key_resp_3.stopped,text_6.started,text_6.stopped,key_resp_4.keys,key_resp_4.rt,key_resp_4.started,key_resp_4.stopped,participant,session,date,expName,psychopyVersion,frameRate,
,,,,,,,,,,,,,,,,,,,,,,,,,,12.39426450000019,None,space,13.717598700000053,,,,,,,,,,,,,,,,,,,,,,,,,,,,,,,,,,,,,,,,,,,,,,,,,,,,,,,,,,,,,,,5,001,2022_Aug_07_1653,Flanker,2021.2.0,239.50202738476438,
neutral right,0,k,neutral.png,neutral.png,neutral.png,right_arrow.png,neutral.png,neutral.png,neutral.png,0,0,0,5,,,,,,,,,,,,,,,,,26.134417400000075,None,27.13964100000021,None,27.13964100000021,None,27.13964100000021,None,27.13964100000021,None,27.13964100000021,None,27.13964100000021,None,27.13964100000021,None,k,1,0.5402439999998023,27.13964100000021,None,27.706893200000195,None,,,,,,,,,,,,,,,,,,,,,,,,,,,,,,,,,,,,,,,,5,001,2022_Aug_07_1653,Flanker,2021.2.0,239.50202738476438,
neutral left,0,a,neutral.png,neutral.png,neutral.png,left_arrow.png,neutral.png,neutral.png,neutral.png,0,1,1,4,,,,,,,,,,,,,,,,,29.204300700000204,None,30.209555100000216,None,30.209555100000216,None,30.209555100000216,None,30.209555100000216,None,30.209555100000216,None,30.209555100000216,None,30.209555100000216,None,a,1,0.4307117000003018,30.209555100000216,None,30.65214700000024,None,,,,,,,,,,,,,,,,,,,,,,,,,,,,,,,,,,,,,,,,5,001,2022_Aug_07_1653,Flanker,2021.2.0,239.50202738476438,
neutral left,0,a,neutral.png,neutral.png,neutral.png,left_arrow.png,neutral.png,neutral.png,neutral.png,0,2,2,4,,,,,,,,,,,,,,,,,32.15326619999996,None,33.16301130000011,None,33.16301130000011,None,33.16301130000011,None,33.16301130000011,None,33.16301130000011,None,33.16301130000011,None,33.16301130000011,None,a,1,0.3976462000000538,33.16301130000011,None,33.571436000000176,None,,,,,,,,,,,,,,,,,,,,,,,,,,,,,,,,,,,,,,,,5,001,2022_Aug_07_1653,Flanker,2021.2.0,239.50202738476438,
neutral left,0,a,neutral.png,neutral.png,neutral.png,left_arrow.png,neutral.png,neutral.png,neutral.png,0,3,3,4,,,,,,,,,,,,,,,,,35.07331890000023,None,36.08263820000002,None,36.08263820000002,None,36.08263820000002,None,36.08263820000002,None,36.08263820000002,None,36.08263820000002,None,36.08263820000002,None,a,1,0.3666815999999926,36.08263820000002,None,36.466241900000114,None,,,,,,,,,,,,,,,,,,,,,,,,,,,,,,,,,,,,,,,,5,001,2022_Aug_07_1653,Flanker,2021.2.0,239.50202738476438,
neutral right,0,k,neutral.png,neutral.png,neutral.png,right_arrow.png,neutral.png,neutral.png,neutral.png,0,4,4,5,,,,,,,,,,,,,,,,,37.97211520000019,None,38.97730360000014,None,38.97730360000014,None,38.97730360000014,None,38.97730360000014,None,38.97730360000014,None,38.97730360000014,None,38.97730360000014,None,k,1,0.41615779999983715,38.97730360000014,None,39.41097380000019,None,,,,,,,,,,,,,,,,,,,,,,,,,,,,,,,,,,,,,,,,5,001,2022_Aug_07_1653,Flanker,2021.2.0,239.50202738476438,
incongruent-right.jpg,0,k,left_arrow.png,left_arrow.png,left_arrow.png,right_arrow.png,left_arrow.png,left_arrow.png,left_arrow.png,0,5,5,3,,,,,,,,,,,,,,,,,40.912784699999975,None,41.921947400000136,None,41.921947400000136,None,41.921947400000136,None,41.921947400000136,None,41.921947400000136,None,41.921947400000136,None,41.921947400000136,None,k,1,1.6960771999997633,41.921947400000136,None,43.63232259999995,None,,,,,,,,,,,,,,,,,,,,,,,,,,,,,,,,,,,,,,,,5,001,2022_Aug_07_1653,Flanker,2021.2.0,239.50202738476438,
congruent-left.jpg,1,a,left_arrow.png,left_arrow.png,left_arrow.png,left_arrow.png,left_arrow.png,left_arrow.png,left_arrow.png,1,0,6,0,,,,,,,,,,,,,,,,,45.138109800000166,None,46.143324699999994,None,46.143324699999994,None,46.143324699999994,None,46.143324699999994,None,46.143324699999994,None,46.143324699999994,None,46.143324699999994,None,a,1,0.5710920999999871,46.143324699999994,None,46.72730559999991,None,,,,,,,,,,,,,,,,,,,,,,,,,,,,,,,,,,,,,,,,5,001,2022_Aug_07_1653,Flanker,2021.2.0,239.50202738476438,
congruent-right.jpg,1,k,right_arrow.png,right_arrow.png,right_arrow.png,right_arrow.png,right_arrow.png,right_arrow.png,right_arrow.png,1,1,7,2,,,,,,,,,,,,,,,,,48.22893490000024,None,49.242462799999885,None,49.242462799999885,None,49.242462799999885,None,49.242462799999885,None,49.242462799999885,None,49.242462799999885,None,49.242462799999885,None,k,1,0.608533499999794,49.242462799999885,None,49.86820880000005,None,,,,,,,,,,,,,,,,,,,,,,,,,,,,,,,,,,,,,,,,5,001,2022_Aug_07_1653,Flanker,2021.2.0,239.50202738476438,
incongruent-right.jpg,0,k,left_arrow.png,left_arrow.png,left_arrow.png,right_arrow.png,left_arrow.png,left_arrow.png,left_arrow.png,1,2,8,3,,,,,,,,,,,,,,,,,51.36971790000007,None,52.37907970000015,None,52.37907970000015,None,52.37907970000015,None,52.37907970000015,None,52.37907970000015,None,52.37907970000015,None,52.37907970000015,None,a,0,1.2322659000001295,52.37907970000015,None,53.62601119999999,None,,,,,,,,,,,,,,,,,,,,,,,,,,,,,,,,,,,,,,,,5,001,2022_Aug_07_1653,Flanker,2021.2.0,239.50202738476438,
congruent-left.jpg,1,a,left_arrow.png,left_arrow.png,left_arrow.png,left_arrow.png,left_arrow.png,left_arrow.png,left_arrow.png,1,3,9,0,,,,,,,,,,,,,,,,,55.123382499999934,None,56.13722409999991,None,56.13722409999991,None,56.13722409999991,None,56.13722409999991,None,56.13722409999991,None,56.13722409999991,None,56.13722409999991,None,a,1,0.9545870000001742,56.13722409999991,None,57.104725000000144,None,,,,,,,,,,,,,,,,,,,,,,,,,,,,,,,,,,,,,,,,5,001,2022_Aug_07_1653,Flanker,2021.2.0,239.50202738476438,
incongruent-left.jpg,0,a,right_arrow.png,right_arrow.png,right_arrow.png,left_arrow.png,right_arrow.png,right_arrow.png,right_arrow.png,1,4,10,1,,,,,,,,,,,,,,,,,58.60623459999988,None,59.615686000000096,None,59.615686000000096,None,59.615686000000096,None,59.615686000000096,None,59.615686000000096,None,59.615686000000096,None,59.615686000000096,None,a,1,0.9090089000001171,59.615686000000096,None,60.54162720000022,None,,,,,,,,,,,,,,,,,,,,,,,,,,,,,,,,,,,,,,,,5,001,2022_Aug_07_1653,Flanker,2021.2.0,239.50202738476438,
neutral right,0,k,neutral.png,neutral.png,neutral.png,right_arrow.png,neutral.png,neutral.png,neutral.png,1,5,11,5,,,,,,,,,,,,,,,,,62.04358020000018,None,63.052937100000236,None,63.052937100000236,None,63.052937100000236,None,63.052937100000236,None,63.052937100000236,None,63.052937100000236,None,63.052937100000236,None,k,1,0.559714299999996,63.052937100000236,None,63.62830310000027,None,,,,,,,,,,,,,,,,,,,,,,,,,,,,,,,,,,,,,,,,5,001,2022_Aug_07_1653,Flanker,2021.2.0,239.50202738476438,
neutral left,0,a,neutral.png,neutral.png,neutral.png,left_arrow.png,neutral.png,neutral.png,neutral.png,2,0,12,4,,,,,,,,,,,,,,,,,65.1339925000002,None,66.13959060000025,None,66.13959060000025,None,66.13959060000025,None,66.13959060000025,None,66.13959060000025,None,66.13959060000025,None,66.13959060000025,None,a,1,0.6815204999998059,66.13959060000025,None,66.84001679999983,None,,,,,,,,,,,,,,,,,,,,,,,,,,,,,,,,,,,,,,,,5,001,2022_Aug_07_1653,Flanker,2021.2.0,239.50202738476438,
incongruent-right.jpg,0,k,left_arrow.png,left_arrow.png,left_arrow.png,right_arrow.png,left_arrow.png,left_arrow.png,left_arrow.png,2,1,13,3,,,,,,,,,,,,,,,,,68.3418673000001,None,69.35512999999992,None,69.35512999999992,None,69.35512999999992,None,69.35512999999992,None,69.35512999999992,None,69.35512999999992,None,69.35512999999992,None,k,1,0.49837699999989127,69.35512999999992,None,69.87236799999982,None,,,,,,,,,,,,,,,,,,,,,,,,,,,,,,,,,,,,,,,,5,001,2022_Aug_07_1653,Flanker,2021.2.0,239.50202738476438,
neutral right,0,k,neutral.png,neutral.png,neutral.png,right_arrow.png,neutral.png,neutral.png,neutral.png,2,2,14,5,,,,,,,,,,,,,,,,,71.37840580000011,None,72.38332910000008,None,72.38332910000008,None,72.38332910000008,None,72.38332910000008,None,72.38332910000008,None,72.38332910000008,None,72.38332910000008,None,k,1,0.46257680000007895,72.38332910000008,None,72.8588466000001,None,,,,,,,,,,,,,,,,,,,,,,,,,,,,,,,,,,,,,,,,5,001,2022_Aug_07_1653,Flanker,2021.2.0,239.50202738476438,
congruent-right.jpg,1,k,right_arrow.png,right_arrow.png,right_arrow.png,right_arrow.png,right_arrow.png,right_arrow.png,right_arrow.png,2,3,15,2,,,,,,,,,,,,,,,,,74.36041920000025,None,75.37399390000019,None,75.37399390000019,None,75.37399390000019,None,75.37399390000019,None,75.37399390000019,None,75.37399390000019,None,75.37399390000019,None,k,1,0.4406119000000217,75.37399390000019,None,75.83283010000014,None,,,,,,,,,,,,,,,,,,,,,,,,,,,,,,,,,,,,,,,,5,001,2022_Aug_07_1653,Flanker,2021.2.0,239.50202738476438,
incongruent-right.jpg,0,k,left_arrow.png,left_arrow.png,left_arrow.png,right_arrow.png,left_arrow.png,left_arrow.png,left_arrow.png,2,4,16,3,,,,,,,,,,,,,,,,,77.3343946,None,78.34382540000024,None,78.34382540000024,None,78.34382540000024,None,78.34382540000024,None,78.34382540000024,None,78.34382540000024,None,78.34382540000024,None,k,1,0.7752332000000024,78.34382540000024,None,79.13632610000013,None,,,,,,,,,,,,,,,,,,,,,,,,,,,,,,,,,,,,,,,,5,001,2022_Aug_07_1653,Flanker,2021.2.0,239.50202738476438,
incongruent-left.jpg,0,a,right_arrow.png,right_arrow.png,right_arrow.png,left_arrow.png,right_arrow.png,right_arrow.png,right_arrow.png,2,5,17,1,,,,,,,,,,,,,,,,,80.64205889999994,None,81.65184940000017,None,81.65184940000017,None,81.65184940000017,None,81.65184940000017,None,81.65184940000017,None,81.65184940000017,None,81.65184940000017,None,a,1,0.5633057000000008,81.65184940000017,None,82.22735860000012,None,,,,,,,,,,,,,,,,,,,,,,,,,,,,,,,,,,,,,,,,5,001,2022_Aug_07_1653,Flanker,2021.2.0,239.50202738476438,
congruent-right.jpg,1,k,right_arrow.png,right_arrow.png,right_arrow.png,right_arrow.png,right_arrow.png,right_arrow.png,right_arrow.png,3,0,18,2,,,,,,,,,,,,,,,,,83.73281940000015,None,84.73810880000019,None,84.73810880000019,None,84.73810880000019,None,84.73810880000019,None,84.73810880000019,None,84.73810880000019,None,84.73810880000019,None,k,1,0.9415423000000374,84.73810880000019,None,85.69332810000014,None,,,,,,,,,,,,,,,,,,,,,,,,,,,,,,,,,,,,,,,,5,001,2022_Aug_07_1653,Flanker,2021.2.0,239.50202738476438,
congruent-left.jpg,1,a,left_arrow.png,left_arrow.png,left_arrow.png,left_arrow.png,left_arrow.png,left_arrow.png,left_arrow.png,3,1,19,0,,,,,,,,,,,,,,,,,87.19517440000027,None,88.204248,None,88.204248,None,88.204248,None,88.204248,None,88.204248,None,88.204248,None,88.204248,None,a,1,0.3477484000000004,88.204248,None,88.57131310000022,None,,,,,,,,,,,,,,,,,,,,,,,,,,,,,,,,,,,,,,,,5,001,2022_Aug_07_1653,Flanker,2021.2.0,239.50202738476438,
incongruent-left.jpg,0,a,right_arrow.png,right_arrow.png,right_arrow.png,left_arrow.png,right_arrow.png,right_arrow.png,right_arrow.png,3,2,20,1,,,,,,,,,,,,,,,,,90.07733150000013,None,91.08663819999992,None,91.08663819999992,None,91.08663819999992,None,91.08663819999992,None,91.08663819999992,None,91.08663819999992,None,91.08663819999992,None,a,1,0.5377874000000702,91.08663819999992,None,91.63708959999985,None,,,,,,,,,,,,,,,,,,,,,,,,,,,,,,,,,,,,,,,,5,001,2022_Aug_07_1653,Flanker,2021.2.0,239.50202738476438,
congruent-right.jpg,1,k,right_arrow.png,right_arrow.png,right_arrow.png,right_arrow.png,right_arrow.png,right_arrow.png,right_arrow.png,3,3,21,2,,,,,,,,,,,,,,,,,93.13894410000012,None,94.15235410000014,None,94.15235410000014,None,94.15235410000014,None,94.15235410000014,None,94.15235410000014,None,94.15235410000014,None,94.15235410000014,None,k,1,0.472464299999956,94.15235410000014,None,94.63608650000015,None,,,,,,,,,,,,,,,,,,,,,,,,,,,,,,,,,,,,,,,,5,001,2022_Aug_07_1653,Flanker,2021.2.0,239.50202738476438,
congruent-left.jpg,1,a,left_arrow.png,left_arrow.png,left_arrow.png,left_arrow.png,left_arrow.png,left_arrow.png,left_arrow.png,3,4,22,0,,,,,,,,,,,,,,,,,96.1376607000002,None,97.14715000000024,None,97.14715000000024,None,97.14715000000024,None,97.14715000000024,None,97.14715000000024,None,97.14715000000024,None,97.14715000000024,None,k,0,0.5584076000000096,97.14715000000024,None,97.72266600000012,None,,,,,,,,,,,,,,,,,,,,,,,,,,,,,,,,,,,,,,,,5,001,2022_Aug_07_1653,Flanker,2021.2.0,239.50202738476438,
incongruent-left.jpg,0,a,right_arrow.png,right_arrow.png,right_arrow.png,left_arrow.png,right_arrow.png,right_arrow.png,right_arrow.png,3,5,23,1,,,,,,,,,,,,,,,,,99.22451890000002,None,100.2379820000001,None,100.2379820000001,None,100.2379820000001,None,100.2379820000001,None,100.2379820000001,None,100.2379820000001,None,100.2379820000001,None,a,1,0.7317183000000114,100.2379820000001,None,100.98881230000006,None,,,,,,,,,,,,,,,,,,,,,,,,,,,,,,,,,,,,,,,,5,001,2022_Aug_07_1653,Flanker,2021.2.0,239.50202738476438,
,,,,,,,,,,,,,,,,,,,,,,,,,,,,,,,,,,,,,,,,,,,,,,,,,,,,,102.50705990000006,None,104.49246410000023,None,space,15.904092899999796,104.49246410000023,None,,,,,,,,,,,,,,,,,,,,,,,,,,,,,,,,5,001,2022_Aug_07_1653,Flanker,2021.2.0,239.50202738476438,
neutral right,0,k,neutral.png,neutral.png,neutral.png,right_arrow.png,neutral.png,neutral.png,neutral.png,,,,,0,0,0,5,,,,,,,,,,,,,120.4178425,None,,,,,,,,,,,,,,,,,,,,,,,,,,,,,,121.41889450000008,None,121.41889450000008,None,121.41889450000008,None,121.41889450000008,None,121.41889450000008,None,121.41889450000008,None,121.41889450000008,None,k,1,2.081764800000201,121.41889450000008,None,,,,,,,,,,,,,5,001,2022_Aug_07_1653,Flanker,2021.2.0,239.50202738476438,
neutral right,0,k,neutral.png,neutral.png,neutral.png,right_arrow.png,neutral.png,neutral.png,neutral.png,,,,,0,1,1,5,,,,,,,,,,,,,123.51281270000027,None,,,,,,,,,,,,,,,,,,,,,,,,,,,,,,124.52628340000001,None,124.52628340000001,None,124.52628340000001,None,124.52628340000001,None,124.52628340000001,None,124.52628340000001,None,124.52628340000001,None,k,1,0.5346027999999023,124.52628340000001,None,,,,,,,,,,,,,5,001,2022_Aug_07_1653,Flanker,2021.2.0,239.50202738476438,
congruent-right.jpg,1,k,right_arrow.png,right_arrow.png,right_arrow.png,right_arrow.png,right_arrow.png,right_arrow.png,right_arrow.png,,,,,0,2,2,2,,,,,,,,,,,,,125.07662459999983,None,,,,,,,,,,,,,,,,,,,,,,,,,,,,,,126.09019739999985,None,126.09019739999985,None,126.09019739999985,None,126.09019739999985,None,126.09019739999985,None,126.09019739999985,None,126.09019739999985,None,k,1,0.3871441000001141,126.09019739999985,None,,,,,,,,,,,,,5,001,2022_Aug_07_1653,Flanker,2021.2.0,239.50202738476438,
neutral right,0,k,neutral.png,neutral.png,neutral.png,right_arrow.png,neutral.png,neutral.png,neutral.png,,,,,0,3,3,5,,,,,,,,,,,,,126.49478959999988,None,,,,,,,,,,,,,,,,,,,,,,,,,,,,,,127.50862890000008,None,127.50862890000008,None,127.50862890000008,None,127.50862890000008,None,127.50862890000008,None,127.50862890000008,None,127.50862890000008,None,k,1,0.4086566999999377,127.50862890000008,None,,,,,,,,,,,,,5,001,2022_Aug_07_1653,Flanker,2021.2.0,239.50202738476438,
incongruent-right.jpg,0,k,left_arrow.png,left_arrow.png,left_arrow.png,right_arrow.png,left_arrow.png,left_arrow.png,left_arrow.png,,,,,0,4,4,3,,,,,,,,,,,,,127.93389220000017,None,,,,,,,,,,,,,,,,,,,,,,,,,,,,,,128.94737290000012,None,128.94737290000012,None,128.94737290000012,None,128.94737290000012,None,128.94737290000012,None,128.94737290000012,None,128.94737290000012,None,k,1,0.546110900000258,128.94737290000012,None,,,,,,,,,,,,,5,001,2022_Aug_07_1653,Flanker,2021.2.0,239.50202738476438,
neutral left,0,a,neutral.png,neutral.png,neutral.png,left_arrow.png,neutral.png,neutral.png,neutral.png,,,,,0,5,5,4,,,,,,,,,,,,,129.50628929999993,None,,,,,,,,,,,,,,,,,,,,,,,,,,,,,,130.51604069999985,None,130.51604069999985,None,130.51604069999985,None,130.51604069999985,None,130.51604069999985,None,130.51604069999985,None,130.51604069999985,None,a,1,0.4256337000001622,130.51604069999985,None,,,,,,,,,,,,,5,001,2022_Aug_07_1653,Flanker,2021.2.0,239.50202738476438,
incongruent-right.jpg,0,k,left_arrow.png,left_arrow.png,left_arrow.png,right_arrow.png,left_arrow.png,left_arrow.png,left_arrow.png,,,,,1,0,6,3,,,,,,,,,,,,,130.95791510000026,None,,,,,,,,,,,,,,,,,,,,,,,,,,,,,,131.97140059999992,None,131.97140059999992,None,131.97140059999992,None,131.97140059999992,None,131.97140059999992,None,131.97140059999992,None,131.97140059999992,None,k,1,0.45049599999993006,131.97140059999992,None,,,,,,,,,,,,,5,001,2022_Aug_07_1653,Flanker,2021.2.0,239.50202738476438,
incongruent-left.jpg,0,a,right_arrow.png,right_arrow.png,right_arrow.png,left_arrow.png,right_arrow.png,right_arrow.png,right_arrow.png,,,,,1,1,7,1,,,,,,,,,,,,,132.43855540000004,None,,,,,,,,,,,,,,,,,,,,,,,,,,,,,,133.45213160000003,None,133.45213160000003,None,133.45213160000003,None,133.45213160000003,None,133.45213160000003,None,133.45213160000003,None,133.45213160000003,None,a,1,0.4742347000001246,133.45213160000003,None,,,,,,,,,,,,,5,001,2022_Aug_07_1653,Flanker,2021.2.0,239.50202738476438,
neutral left,0,a,neutral.png,neutral.png,neutral.png,left_arrow.png,neutral.png,neutral.png,neutral.png,,,,,1,2,8,4,,,,,,,,,,,,,133.9445356000001,None,,,,,,,,,,,,,,,,,,,,,,,,,,,,,,134.95373990000007,None,134.95373990000007,None,134.95373990000007,None,134.95373990000007,None,134.95373990000007,None,134.95373990000007,None,134.95373990000007,None,a,1,0.4285509000001184,134.95373990000007,None,,,,,,,,,,,,,5,001,2022_Aug_07_1653,Flanker,2021.2.0,239.50202738476438,
incongruent-left.jpg,0,a,right_arrow.png,right_arrow.png,right_arrow.png,left_arrow.png,right_arrow.png,right_arrow.png,right_arrow.png,,,,,1,3,9,1,,,,,,,,,,,,,135.39631039999995,None,,,,,,,,,,,,,,,,,,,,,,,,,,,,,,136.40525920000027,None,136.40525920000027,None,136.40525920000027,None,136.40525920000027,None,136.40525920000027,None,136.40525920000027,None,136.40525920000027,None,a,1,0.42520269999977245,136.40525920000027,None,,,,,,,,,,,,,5,001,2022_Aug_07_1653,Flanker,2021.2.0,239.50202738476438,
incongruent-right.jpg,0,k,left_arrow.png,left_arrow.png,left_arrow.png,right_arrow.png,left_arrow.png,left_arrow.png,left_arrow.png,,,,,1,4,10,3,,,,,,,,,,,,,136.84740520000014,None,,,,,,,,,,,,,,,,,,,,,,,,,,,,,,137.8570880000002,None,137.8570880000002,None,137.8570880000002,None,137.8570880000002,None,137.8570880000002,None,137.8570880000002,None,137.8570880000002,None,k,1,0.45356420000007347,137.8570880000002,None,,,,,,,,,,,,,5,001,2022_Aug_07_1653,Flanker,2021.2.0,239.50202738476438,
congruent-right.jpg,1,k,right_arrow.png,right_arrow.png,right_arrow.png,right_arrow.png,right_arrow.png,right_arrow.png,right_arrow.png,,,,,1,5,11,2,,,,,,,,,,,,,138.3240377000002,None,,,,,,,,,,,,,,,,,,,,,,,,,,,,,,139.3336518000001,None,139.3336518000001,None,139.3336518000001,None,139.3336518000001,None,139.3336518000001,None,139.3336518000001,None,139.3336518000001,None,k,1,0.3932198000002245,139.3336518000001,None,,,,,,,,,,,,,5,001,2022_Aug_07_1653,Flanker,2021.2.0,239.50202738476438,
congruent-left.jpg,1,a,left_arrow.png,left_arrow.png,left_arrow.png,left_arrow.png,left_arrow.png,left_arrow.png,left_arrow.png,,,,,2,0,12,0,,,,,,,,,,,,,139.74220259999993,None,,,,,,,,,,,,,,,,,,,,,,,,,,,,,,140.75594950000004,None,140.75594950000004,None,140.75594950000004,None,140.75594950000004,None,140.75594950000004,None,140.75594950000004,None,140.75594950000004,None,a,1,0.5073958000002676,140.75594950000004,None,,,,,,,,,,,,,5,001,2022_Aug_07_1653,Flanker,2021.2.0,239.50202738476438,
incongruent-left.jpg,0,a,right_arrow.png,right_arrow.png,right_arrow.png,left_arrow.png,right_arrow.png,right_arrow.png,right_arrow.png,,,,,2,1,13,1,,,,,,,,,,,,,141.28133949999983,None,,,,,,,,,,,,,,,,,,,,,,,,,,,,,,142.29485479999994,None,142.29485479999994,None,142.29485479999994,None,142.29485479999994,None,142.29485479999994,None,142.29485479999994,None,142.29485479999994,None,a,1,0.9926070999999865,142.29485479999994,None,,,,,,,,,,,,,5,001,2022_Aug_07_1653,Flanker,2021.2.0,239.50202738476438,
congruent-left.jpg,1,a,left_arrow.png,left_arrow.png,left_arrow.png,left_arrow.png,left_arrow.png,left_arrow.png,left_arrow.png,,,,,2,2,14,0,,,,,,,,,,,,,143.30421830000023,None,,,,,,,,,,,,,,,,,,,,,,,,,,,,,,144.31816819999995,None,144.31816819999995,None,144.31816819999995,None,144.31816819999995,None,144.31816819999995,None,144.31816819999995,None,144.31816819999995,None,a,1,0.8653935000002093,144.31816819999995,None,,,,,,,,,,,,,5,001,2022_Aug_07_1653,Flanker,2021.2.0,239.50202738476438,
incongruent-left.jpg,0,a,right_arrow.png,right_arrow.png,right_arrow.png,left_arrow.png,right_arrow.png,right_arrow.png,right_arrow.png,,,,,2,3,15,1,,,,,,,,,,,,,145.20237889999999,None,,,,,,,,,,,,,,,,,,,,,,,,,,,,,,146.2159415000001,None,146.2159415000001,None,146.2159415000001,None,146.2159415000001,None,146.2159415000001,None,146.2159415000001,None,146.2159415000001,None,a,1,0.4638358000001972,146.2159415000001,None,,,,,,,,,,,,,5,001,2022_Aug_07_1653,Flanker,2021.2.0,239.50202738476438,
congruent-left.jpg,1,a,left_arrow.png,left_arrow.png,left_arrow.png,left_arrow.png,left_arrow.png,left_arrow.png,left_arrow.png,,,,,2,4,16,0,,,,,,,,,,,,,146.69156920000023,None,,,,,,,,,,,,,,,,,,,,,,,,,,,,,,147.7048076000001,None,147.7048076000001,None,147.7048076000001,None,147.7048076000001,None,147.7048076000001,None,147.7048076000001,None,147.7048076000001,None,a,1,0.3914273000000321,147.7048076000001,None,,,,,,,,,,,,,5,001,2022_Aug_07_1653,Flanker,2021.2.0,239.50202738476438,
neutral left,0,a,neutral.png,neutral.png,neutral.png,left_arrow.png,neutral.png,neutral.png,neutral.png,,,,,2,5,17,4,,,,,,,,,,,,,148.11350159999984,None,,,,,,,,,,,,,,,,,,,,,,,,,,,,,,149.12706630000002,None,149.12706630000002,None,149.12706630000002,None,149.12706630000002,None,149.12706630000002,None,149.12706630000002,None,149.12706630000002,None,a,1,0.47309060000043246,149.12706630000002,None,,,,,,,,,,,,,5,001,2022_Aug_07_1653,Flanker,2021.2.0,239.50202738476438,
incongruent-right.jpg,0,k,left_arrow.png,left_arrow.png,left_arrow.png,right_arrow.png,left_arrow.png,left_arrow.png,left_arrow.png,,,,,3,0,18,3,,,,,,,,,,,,,149.61924399999998,None,,,,,,,,,,,,,,,,,,,,,,,,,,,,,,150.6328109000001,None,150.6328109000001,None,150.6328109000001,None,150.6328109000001,None,150.6328109000001,None,150.6328109000001,None,150.6328109000001,None,k,1,0.4395655000002989,150.6328109000001,None,,,,,,,,,,,,,5,001,2022_Aug_07_1653,Flanker,2021.2.0,239.50202738476438,
neutral left,0,a,neutral.png,neutral.png,neutral.png,left_arrow.png,neutral.png,neutral.png,neutral.png,,,,,3,1,19,4,,,,,,,,,,,,,151.08788189999996,None,,,,,,,,,,,,,,,,,,,,,,,,,,,,,,152.1010639000001,None,152.1010639000001,None,152.1010639000001,None,152.1010639000001,None,152.1010639000001,None,152.1010639000001,None,152.1010639000001,None,a,1,0.37146759999995993,152.1010639000001,None,,,,,,,,,,,,,5,001,2022_Aug_07_1653,Flanker,2021.2.0,239.50202738476438,
congruent-right.jpg,1,k,right_arrow.png,right_arrow.png,right_arrow.png,right_arrow.png,right_arrow.png,right_arrow.png,right_arrow.png,,,,,3,2,20,2,,,,,,,,,,,,,152.4848105000001,None,,,,,,,,,,,,,,,,,,,,,,,,,,,,,,153.49445890000015,None,153.49445890000015,None,153.49445890000015,None,153.49445890000015,None,153.49445890000015,None,153.49445890000015,None,153.49445890000015,None,k,1,0.37827999999990425,153.49445890000015,None,,,,,,,,,,,,,5,001,2022_Aug_07_1653,Flanker,2021.2.0,239.50202738476438,
neutral left,0,a,neutral.png,neutral.png,neutral.png,left_arrow.png,neutral.png,neutral.png,neutral.png,,,,,3,3,21,4,,,,,,,,,,,,,153.8862653000001,None,,,,,,,,,,,,,,,,,,,,,,,,,,,,,,154.89984830000003,None,154.89984830000003,None,154.89984830000003,None,154.89984830000003,None,154.89984830000003,None,154.89984830000003,None,154.89984830000003,None,a,1,0.34105049999971015,154.89984830000003,None,,,,,,,,,,,,,5,001,2022_Aug_07_1653,Flanker,2021.2.0,239.50202738476438,
neutral left,0,a,neutral.png,neutral.png,neutral.png,left_arrow.png,neutral.png,neutral.png,neutral.png,,,,,3,4,22,4,,,,,,,,,,,,,155.25863200000003,None,,,,,,,,,,,,,,,,,,,,,,,,,,,,,,156.26377039999988,None,156.26377039999988,None,156.26377039999988,None,156.26377039999988,None,156.26377039999988,None,156.26377039999988,None,156.26377039999988,None,a,1,0.3533588000000236,156.26377039999988,None,,,,,,,,,,,,,5,001,2022_Aug_07_1653,Flanker,2021.2.0,239.50202738476438,
neutral left,0,a,neutral.png,neutral.png,neutral.png,left_arrow.png,neutral.png,neutral.png,neutral.png,,,,,3,5,23,4,,,,,,,,,,,,,156.63099590000002,None,,,,,,,,,,,,,,,,,,,,,,,,,,,,,,157.6445721,None,157.6445721,None,157.6445721,None,157.6445721,None,157.6445721,None,157.6445721,None,157.6445721,None,a,1,0.364719199999854,157.6445721,None,,,,,,,,,,,,,5,001,2022_Aug_07_1653,Flanker,2021.2.0,239.50202738476438,
congruent-left.jpg,1,a,left_arrow.png,left_arrow.png,left_arrow.png,left_arrow.png,left_arrow.png,left_arrow.png,left_arrow.png,,,,,4,0,24,0,,,,,,,,,,,,,158.02816800000028,None,,,,,,,,,,,,,,,,,,,,,,,,,,,,,,159.03776460000017,None,159.03776460000017,None,159.03776460000017,None,159.03776460000017,None,159.03776460000017,None,159.03776460000017,None,159.03776460000017,None,a,1,0.4037577999997666,159.03776460000017,None,,,,,,,,,,,,,5,001,2022_Aug_07_1653,Flanker,2021.2.0,239.50202738476438,
incongruent-left.jpg,0,a,right_arrow.png,right_arrow.png,right_arrow.png,left_arrow.png,right_arrow.png,right_arrow.png,right_arrow.png,,,,,4,1,25,1,,,,,,,,,,,,,159.4549323000001,None,,,,,,,,,,,,,,,,,,,,,,,,,,,,,,160.46841050000012,None,160.46841050000012,None,160.46841050000012,None,160.46841050000012,None,160.46841050000012,None,160.46841050000012,None,160.46841050000012,None,a,1,0.4692952999998852,160.46841050000012,None,,,,,,,,,,,,,5,001,2022_Aug_07_1653,Flanker,2021.2.0,239.50202738476438,
incongruent-right.jpg,0,k,left_arrow.png,left_arrow.png,left_arrow.png,right_arrow.png,left_arrow.png,left_arrow.png,left_arrow.png,,,,,4,2,26,3,,,,,,,,,,,,,160.9525051999999,None,,,,,,,,,,,,,,,,,,,,,,,,,,,,,,161.961632,None,161.961632,None,161.961632,None,161.961632,None,161.961632,None,161.961632,None,161.961632,None,k,1,0.48822999999993044,161.961632,None,,,,,,,,,,,,,5,001,2022_Aug_07_1653,Flanker,2021.2.0,239.50202738476438,
incongruent-right.jpg,0,k,left_arrow.png,left_arrow.png,left_arrow.png,right_arrow.png,left_arrow.png,left_arrow.png,left_arrow.png,,,,,4,3,27,3,,,,,,,,,,,,,162.4620264,None,,,,,,,,,,,,,,,,,,,,,,,,,,,,,,163.47977570000012,None,163.47977570000012,None,163.47977570000012,None,163.47977570000012,None,163.47977570000012,None,163.47977570000012,None,163.47977570000012,None,k,1,0.49031690000038,163.47977570000012,None,,,,,,,,,,,,,5,001,2022_Aug_07_1653,Flanker,2021.2.0,239.50202738476438,
neutral right,0,k,neutral.png,neutral.png,neutral.png,right_arrow.png,neutral.png,neutral.png,neutral.png,,,,,4,4,28,5,,,,,,,,,,,,,163.98871700000018,None,,,,,,,,,,,,,,,,,,,,,,,,,,,,,,165.0022512999999,None,165.0022512999999,None,165.0022512999999,None,165.0022512999999,None,165.0022512999999,None,165.0022512999999,None,165.0022512999999,None,k,1,0.376049200000125,165.0022512999999,None,,,,,,,,,,,,,5,001,2022_Aug_07_1653,Flanker,2021.2.0,239.50202738476438,
congruent-right.jpg,1,k,right_arrow.png,right_arrow.png,right_arrow.png,right_arrow.png,right_arrow.png,right_arrow.png,right_arrow.png,,,,,4,5,29,2,,,,,,,,,,,,,165.39439410000023,None,,,,,,,,,,,,,,,,,,,,,,,,,,,,,,166.40368279999984,None,166.40368279999984,None,166.40368279999984,None,166.40368279999984,None,166.40368279999984,None,166.40368279999984,None,166.40368279999984,None,k,1,0.39109370000005583,166.40368279999984,None,,,,,,,,,,,,,5,001,2022_Aug_07_1653,Flanker,2021.2.0,239.50202738476438,
congruent-right.jpg,1,k,right_arrow.png,right_arrow.png,right_arrow.png,right_arrow.png,right_arrow.png,right_arrow.png,right_arrow.png,,,,,5,0,30,2,,,,,,,,,,,,,166.81252140000015,None,,,,,,,,,,,,,,,,,,,,,,,,,,,,,,167.82186030000003,None,167.82186030000003,None,167.82186030000003,None,167.82186030000003,None,167.82186030000003,None,167.82186030000003,None,167.82186030000003,None,k,1,0.3967708999998649,167.82186030000003,None,,,,,,,,,,,,,5,001,2022_Aug_07_1653,Flanker,2021.2.0,239.50202738476438,
congruent-right.jpg,1,k,right_arrow.png,right_arrow.png,right_arrow.png,right_arrow.png,right_arrow.png,right_arrow.png,right_arrow.png,,,,,5,1,31,2,,,,,,,,,,,,,168.23068539999986,None,,,,,,,,,,,,,,,,,,,,,,,,,,,,,,169.24439870000015,None,169.24439870000015,None,169.24439870000015,None,169.24439870000015,None,169.24439870000015,None,169.24439870000015,None,169.24439870000015,None,k,1,0.3904293000000507,169.24439870000015,None,,,,,,,,,,,,,5,001,2022_Aug_07_1653,Flanker,2021.2.0,239.50202738476438,
incongruent-right.jpg,0,k,left_arrow.png,left_arrow.png,left_arrow.png,right_arrow.png,left_arrow.png,left_arrow.png,left_arrow.png,,,,,5,2,32,3,,,,,,,,,,,,,169.65293800000018,None,,,,,,,,,,,,,,,,,,,,,,,,,,,,,,170.67090099999996,None,170.67090099999996,None,170.67090099999996,None,170.67090099999996,None,170.67090099999996,None,170.67090099999996,None,170.67090099999996,None,k,1,0.49214389999997366,170.67090099999996,None,,,,,,,,,,,,,5,001,2022_Aug_07_1653,Flanker,2021.2.0,239.50202738476438,
congruent-left.jpg,1,a,left_arrow.png,left_arrow.png,left_arrow.png,left_arrow.png,left_arrow.png,left_arrow.png,left_arrow.png,,,,,5,3,33,0,,,,,,,,,,,,,171.17982070000016,None,,,,,,,,,,,,,,,,,,,,,,,,,,,,,,172.19350740000027,None,172.19350740000027,None,172.19350740000027,None,172.19350740000027,None,172.19350740000027,None,172.19350740000027,None,172.19350740000027,None,a,1,0.3617558000000827,172.19350740000027,None,,,,,,,,,,,,,5,001,2022_Aug_07_1653,Flanker,2021.2.0,239.50202738476438,
neutral left,0,a,neutral.png,neutral.png,neutral.png,left_arrow.png,neutral.png,neutral.png,neutral.png,,,,,5,4,34,4,,,,,,,,,,,,,172.56856430000016,None,,,,,,,,,,,,,,,,,,,,,,,,,,,,,,173.5822604,None,173.5822604,None,173.5822604,None,173.5822604,None,173.5822604,None,173.5822604,None,173.5822604,None,a,1,0.381168400000206,173.5822604,None,,,,,,,,,,,,,5,001,2022_Aug_07_1653,Flanker,2021.2.0,239.50202738476438,
neutral right,0,k,neutral.png,neutral.png,neutral.png,right_arrow.png,neutral.png,neutral.png,neutral.png,,,,,5,5,35,5,,,,,,,,,,,,,173.98262160000013,None,,,,,,,,,,,,,,,,,,,,,,,,,,,,,,174.99209329999985,None,174.99209329999985,None,174.99209329999985,None,174.99209329999985,None,174.99209329999985,None,174.99209329999985,None,174.99209329999985,None,k,1,0.40354329999991023,174.99209329999985,None,,,,,,,,,,,,,5,001,2022_Aug_07_1653,Flanker,2021.2.0,239.50202738476438,
neutral right,0,k,neutral.png,neutral.png,neutral.png,right_arrow.png,neutral.png,neutral.png,neutral.png,,,,,6,0,36,5,,,,,,,,,,,,,175.4090787,None,,,,,,,,,,,,,,,,,,,,,,,,,,,,,,176.42291449999993,None,176.42291449999993,None,176.42291449999993,None,176.42291449999993,None,176.42291449999993,None,176.42291449999993,None,176.42291449999993,None,k,1,0.48491779999994833,176.42291449999993,None,,,,,,,,,,,,,5,001,2022_Aug_07_1653,Flanker,2021.2.0,239.50202738476438,
incongruent-left.jpg,0,a,right_arrow.png,right_arrow.png,right_arrow.png,left_arrow.png,right_arrow.png,right_arrow.png,right_arrow.png,,,,,6,1,37,1,,,,,,,,,,,,,176.92341780000015,None,,,,,,,,,,,,,,,,,,,,,,,,,,,,,,177.93255869999984,None,177.93255869999984,None,177.93255869999984,None,177.93255869999984,None,177.93255869999984,None,177.93255869999984,None,177.93255869999984,None,a,1,0.415441600000122,177.93255869999984,None,,,,,,,,,,,,,5,001,2022_Aug_07_1653,Flanker,2021.2.0,239.50202738476438,
congruent-right.jpg,1,k,right_arrow.png,right_arrow.png,right_arrow.png,right_arrow.png,right_arrow.png,right_arrow.png,right_arrow.png,,,,,6,2,38,2,,,,,,,,,,,,,178.36637070000006,None,,,,,,,,,,,,,,,,,,,,,,,,,,,,,,179.3801222000002,None,179.3801222000002,None,179.3801222000002,None,179.3801222000002,None,179.3801222000002,None,179.3801222000002,None,179.3801222000002,None,k,1,0.4403231000001142,179.3801222000002,None,,,,,,,,,,,,,5,001,2022_Aug_07_1653,Flanker,2021.2.0,239.50202738476438,
neutral right,0,k,neutral.png,neutral.png,neutral.png,right_arrow.png,neutral.png,neutral.png,neutral.png,,,,,6,3,39,5,,,,,,,,,,,,,179.8388890000001,None,,,,,,,,,,,,,,,,,,,,,,,,,,,,,,180.85232140000016,None,180.85232140000016,None,180.85232140000016,None,180.85232140000016,None,180.85232140000016,None,180.85232140000016,None,180.85232140000016,None,k,1,0.3360956999999871,180.85232140000016,None,,,,,,,,,,,,,5,001,2022_Aug_07_1653,Flanker,2021.2.0,239.50202738476438,
congruent-left.jpg,1,a,left_arrow.png,left_arrow.png,left_arrow.png,left_arrow.png,left_arrow.png,left_arrow.png,left_arrow.png,,,,,6,4,40,0,,,,,,,,,,,,,181.20305989999997,None,,,,,,,,,,,,,,,,,,,,,,,,,,,,,,182.2165447000002,None,182.2165447000002,None,182.2165447000002,None,182.2165447000002,None,182.2165447000002,None,182.2165447000002,None,182.2165447000002,None,a,1,0.4200611999999637,182.2165447000002,None,,,,,,,,,,,,,5,001,2022_Aug_07_1653,Flanker,2021.2.0,239.50202738476438,
incongruent-left.jpg,0,a,right_arrow.png,right_arrow.png,right_arrow.png,left_arrow.png,right_arrow.png,right_arrow.png,right_arrow.png,,,,,6,5,41,1,,,,,,,,,,,,,182.65006059999996,None,,,,,,,,,,,,,,,,,,,,,,,,,,,,,,183.66363420000016,None,183.66363420000016,None,183.66363420000016,None,183.66363420000016,None,183.66363420000016,None,183.66363420000016,None,183.66363420000016,None,a,1,0.4451697999998032,183.66363420000016,None,,,,,,,,,,,,,5,001,2022_Aug_07_1653,Flanker,2021.2.0,239.50202738476438,
congruent-right.jpg,1,k,right_arrow.png,right_arrow.png,right_arrow.png,right_arrow.png,right_arrow.png,right_arrow.png,right_arrow.png,,,,,7,0,42,2,,,,,,,,,,,,,184.12246779999987,None,,,,,,,,,,,,,,,,,,,,,,,,,,,,,,185.13621039999998,None,185.13621039999998,None,185.13621039999998,None,185.13621039999998,None,185.13621039999998,None,185.13621039999998,None,185.13621039999998,None,k,1,0.38876940000000104,185.13621039999998,None,,,,,,,,,,,,,5,001,2022_Aug_07_1653,Flanker,2021.2.0,239.50202738476438,
congruent-left.jpg,1,a,left_arrow.png,left_arrow.png,left_arrow.png,left_arrow.png,left_arrow.png,left_arrow.png,left_arrow.png,,,,,7,1,43,0,,,,,,,,,,,,,185.53652280000006,None,,,,,,,,,,,,,,,,,,,,,,,,,,,,,,186.5460960999999,None,186.5460960999999,None,186.5460960999999,None,186.5460960999999,None,186.5460960999999,None,186.5460960999999,None,186.5460960999999,None,a,1,0.427147899999909,186.5460960999999,None,,,,,,,,,,,,,5,001,2022_Aug_07_1653,Flanker,2021.2.0,239.50202738476438,
neutral right,0,k,neutral.png,neutral.png,neutral.png,right_arrow.png,neutral.png,neutral.png,neutral.png,,,,,7,2,44,5,,,,,,,,,,,,,186.9882120000002,None,,,,,,,,,,,,,,,,,,,,,,,,,,,,,,187.99736729999995,None,187.99736729999995,None,187.99736729999995,None,187.99736729999995,None,187.99736729999995,None,187.99736729999995,None,187.99736729999995,None,k,1,0.7681824999999662,187.99736729999995,None,,,,,,,,,,,,,5,001,2022_Aug_07_1653,Flanker,2021.2.0,239.50202738476438,
congruent-left.jpg,1,a,left_arrow.png,left_arrow.png,left_arrow.png,left_arrow.png,left_arrow.png,left_arrow.png,left_arrow.png,,,,,7,3,45,0,,,,,,,,,,,,,188.78180299999985,None,,,,,,,,,,,,,,,,,,,,,,,,,,,,,,189.79520360000015,None,189.79520360000015,None,189.79520360000015,None,189.79520360000015,None,189.79520360000015,None,189.79520360000015,None,189.79520360000015,None,a,1,0.5544060000001991,189.79520360000015,None,,,,,,,,,,,,,5,001,2022_Aug_07_1653,Flanker,2021.2.0,239.50202738476438,
incongruent-left.jpg,0,a,right_arrow.png,right_arrow.png,right_arrow.png,left_arrow.png,right_arrow.png,right_arrow.png,right_arrow.png,,,,,7,4,46,1,,,,,,,,,,,,,190.36237819999997,None,,,,,,,,,,,,,,,,,,,,,,,,,,,,,,191.37205870000025,None,191.37205870000025,None,191.37205870000025,None,191.37205870000025,None,191.37205870000025,None,191.37205870000025,None,191.37205870000025,None,a,1,0.44176889999971536,191.37205870000025,None,,,,,,,,,,,,,5,001,2022_Aug_07_1653,Flanker,2021.2.0,239.50202738476438,
incongruent-right.jpg,0,k,left_arrow.png,left_arrow.png,left_arrow.png,right_arrow.png,left_arrow.png,left_arrow.png,left_arrow.png,,,,,7,5,47,3,,,,,,,,,,,,,191.83057850000023,None,,,,,,,,,,,,,,,,,,,,,,,,,,,,,,192.83997550000004,None,192.83997550000004,None,192.83997550000004,None,192.83997550000004,None,192.83997550000004,None,192.83997550000004,None,192.83997550000004,None,k,1,0.4380068999998912,192.83997550000004,None,,,,,,,,,,,,,5,001,2022_Aug_07_1653,Flanker,2021.2.0,239.50202738476438,
,,,,,,,,,,,,,,,,,,,,,,,,,,,,,,,,,,,,,,,,,,,,,,,,,,,,,,,,,,,,,,,,,,,,,,,,,,,,,,,,193.3029901,None,space,7.056258000000071,193.3029901,None,,,,,,,5,001,2022_Aug_07_1653,Flanker,2021.2.0,239.50202738476438,
neutral left,0,a,neutral.png,neutral.png,neutral.png,left_arrow.png,neutral.png,neutral.png,neutral.png,,,,,,,,,0,0,0,4,,,,,,,,,200.38578150000012,None,,,,,,,,,,,,,,,,,,,,,,,,,,,,,,201.39072570000008,None,201.39072570000008,None,201.39072570000008,None,201.39072570000008,None,201.39072570000008,None,201.39072570000008,None,201.39072570000008,None,a,1,0.4086725000001934,201.39072570000008,None,,,,,,,,,,,,,5,001,2022_Aug_07_1653,Flanker,2021.2.0,239.50202738476438,
congruent-left.jpg,1,a,left_arrow.png,left_arrow.png,left_arrow.png,left_arrow.png,left_arrow.png,left_arrow.png,left_arrow.png,,,,,,,,,0,1,1,0,,,,,,,,,201.81615169999986,None,,,,,,,,,,,,,,,,,,,,,,,,,,,,,,202.82981169999994,None,202.82981169999994,None,202.82981169999994,None,202.82981169999994,None,202.82981169999994,None,202.82981169999994,None,202.82981169999994,None,a,1,0.39349650000031033,202.82981169999994,None,,,,,,,,,,,,,5,001,2022_Aug_07_1653,Flanker,2021.2.0,239.50202738476438,
incongruent-left.jpg,0,a,right_arrow.png,right_arrow.png,right_arrow.png,left_arrow.png,right_arrow.png,right_arrow.png,right_arrow.png,,,,,,,,,0,2,2,1,,,,,,,,,203.23857499999986,None,,,,,,,,,,,,,,,,,,,,,,,,,,,,,,204.24828620000017,None,204.24828620000017,None,204.24828620000017,None,204.24828620000017,None,204.24828620000017,None,204.24828620000017,None,204.24828620000017,None,a,1,0.4154927999998108,204.24828620000017,None,,,,,,,,,,,,,5,001,2022_Aug_07_1653,Flanker,2021.2.0,239.50202738476438,
incongruent-left.jpg,0,a,right_arrow.png,right_arrow.png,right_arrow.png,left_arrow.png,right_arrow.png,right_arrow.png,right_arrow.png,,,,,,,,,0,3,3,1,,,,,,,,,204.68198889999985,None,,,,,,,,,,,,,,,,,,,,,,,,,,,,,,205.6952580000002,None,205.6952580000002,None,205.6952580000002,None,205.6952580000002,None,205.6952580000002,None,205.6952580000002,None,205.6952580000002,None,a,1,0.4246428999999807,205.6952580000002,None,,,,,,,,,,,,,5,001,2022_Aug_07_1653,Flanker,2021.2.0,239.50202738476438,
neutral right,0,k,neutral.png,neutral.png,neutral.png,right_arrow.png,neutral.png,neutral.png,neutral.png,,,,,,,,,0,4,4,5,,,,,,,,,206.13742730000013,None,,,,,,,,,,,,,,,,,,,,,,,,,,,,,,207.15114700000004,None,207.15114700000004,None,207.15114700000004,None,207.15114700000004,None,207.15114700000004,None,207.15114700000004,None,207.15114700000004,None,k,1,0.408796700000039,207.15114700000004,None,,,,,,,,,,,,,5,001,2022_Aug_07_1653,Flanker,2021.2.0,239.50202738476438,
congruent-left.jpg,1,a,left_arrow.png,left_arrow.png,left_arrow.png,left_arrow.png,left_arrow.png,left_arrow.png,left_arrow.png,,,,,,,,,0,5,5,0,,,,,,,,,207.57640390000006,None,,,,,,,,,,,,,,,,,,,,,,,,,,,,,,208.59003519999987,None,208.59003519999987,None,208.59003519999987,None,208.59003519999987,None,208.59003519999987,None,208.59003519999987,None,208.59003519999987,None,a,1,0.3460672999999588,208.59003519999987,None,,,,,,,,,,,,,5,001,2022_Aug_07_1653,Flanker,2021.2.0,239.50202738476438,
incongruent-left.jpg,0,a,right_arrow.png,right_arrow.png,right_arrow.png,left_arrow.png,right_arrow.png,right_arrow.png,right_arrow.png,,,,,,,,,1,0,6,1,,,,,,,,,208.9489263999999,None,,,,,,,,,,,,,,,,,,,,,,,,,,,,,,209.96228770000016,None,209.96228770000016,None,209.96228770000016,None,209.96228770000016,None,209.96228770000016,None,209.96228770000016,None,209.96228770000016,None,a,1,0.4299768999999287,209.96228770000016,None,,,,,,,,,,,,,5,001,2022_Aug_07_1653,Flanker,2021.2.0,239.50202738476438,
congruent-right.jpg,1,k,right_arrow.png,right_arrow.png,right_arrow.png,right_arrow.png,right_arrow.png,right_arrow.png,right_arrow.png,,,,,,,,,1,1,7,2,,,,,,,,,210.4045114999999,None,,,,,,,,,,,,,,,,,,,,,,,,,,,,,,211.41394889999992,None,211.41394889999992,None,211.41394889999992,None,211.41394889999992,None,211.41394889999992,None,211.41394889999992,None,211.41394889999992,None,k,1,0.43456620000006296,211.41394889999992,None,,,,,,,,,,,,,5,001,2022_Aug_07_1653,Flanker,2021.2.0,239.50202738476438,
congruent-left.jpg,1,a,left_arrow.png,left_arrow.png,left_arrow.png,left_arrow.png,left_arrow.png,left_arrow.png,left_arrow.png,,,,,,,,,1,2,8,0,,,,,,,,,211.86432550000018,None,,,,,,,,,,,,,,,,,,,,,,,,,,,,,,212.87379199999987,None,212.87379199999987,None,212.87379199999987,None,212.87379199999987,None,212.87379199999987,None,212.87379199999987,None,212.87379199999987,None,a,1,0.4548638999999639,212.87379199999987,None,,,,,,,,,,,,,5,001,2022_Aug_07_1653,Flanker,2021.2.0,239.50202738476438,
congruent-right.jpg,1,k,right_arrow.png,right_arrow.png,right_arrow.png,right_arrow.png,right_arrow.png,right_arrow.png,right_arrow.png,,,,,,,,,1,3,9,2,,,,,,,,,213.34094229999982,None,,,,,,,,,,,,,,,,,,,,,,,,,,,,,,214.35883460000014,None,214.35883460000014,None,214.35883460000014,None,214.35883460000014,None,214.35883460000014,None,214.35883460000014,None,214.35883460000014,None,k,1,0.3784462000003259,214.35883460000014,None,,,,,,,,,,,,,5,001,2022_Aug_07_1653,Flanker,2021.2.0,239.50202738476438,
neutral right,0,k,neutral.png,neutral.png,neutral.png,right_arrow.png,neutral.png,neutral.png,neutral.png,,,,,,,,,1,4,10,5,,,,,,,,,214.75083369999993,None,,,,,,,,,,,,,,,,,,,,,,,,,,,,,,215.76426840000022,None,215.76426840000022,None,215.76426840000022,None,215.76426840000022,None,215.76426840000022,None,215.76426840000022,None,215.76426840000022,None,k,1,0.37277739999990445,215.76426840000022,None,,,,,,,,,,,,,5,001,2022_Aug_07_1653,Flanker,2021.2.0,239.50202738476438,
congruent-right.jpg,1,k,right_arrow.png,right_arrow.png,right_arrow.png,right_arrow.png,right_arrow.png,right_arrow.png,right_arrow.png,,,,,,,,,1,5,11,2,,,,,,,,,216.15635550000025,None,,,,,,,,,,,,,,,,,,,,,,,,,,,,,,217.16991719999987,None,217.16991719999987,None,217.16991719999987,None,217.16991719999987,None,217.16991719999987,None,217.16991719999987,None,217.16991719999987,None,k,1,0.37567669999998543,217.16991719999987,None,,,,,,,,,,,,,5,001,2022_Aug_07_1653,Flanker,2021.2.0,239.50202738476438,
neutral left,0,a,neutral.png,neutral.png,neutral.png,left_arrow.png,neutral.png,neutral.png,neutral.png,,,,,,,,,2,0,12,4,,,,,,,,,217.56228950000013,None,,,,,,,,,,,,,,,,,,,,,,,,,,,,,,218.57174840000016,None,218.57174840000016,None,218.57174840000016,None,218.57174840000016,None,218.57174840000016,None,218.57174840000016,None,218.57174840000016,None,a,1,0.3896608999998534,218.57174840000016,None,,,,,,,,,,,,,5,001,2022_Aug_07_1653,Flanker,2021.2.0,239.50202738476438,
neutral left,0,a,neutral.png,neutral.png,neutral.png,left_arrow.png,neutral.png,neutral.png,neutral.png,,,,,,,,,2,1,13,4,,,,,,,,,218.98021789999984,None,,,,,,,,,,,,,,,,,,,,,,,,,,,,,,219.99390799999992,None,219.99390799999992,None,219.99390799999992,None,219.99390799999992,None,219.99390799999992,None,219.99390799999992,None,219.99390799999992,None,a,1,0.35969840000007025,219.99390799999992,None,,,,,,,,,,,,,5,001,2022_Aug_07_1653,Flanker,2021.2.0,239.50202738476438,
neutral left,0,a,neutral.png,neutral.png,neutral.png,left_arrow.png,neutral.png,neutral.png,neutral.png,,,,,,,,,2,2,14,4,,,,,,,,,220.36912370000027,None,,,,,,,,,,,,,,,,,,,,,,,,,,,,,,221.37866470000017,None,221.37866470000017,None,221.37866470000017,None,221.37866470000017,None,221.37866470000017,None,221.37866470000017,None,221.37866470000017,None,a,1,0.35944549999976516,221.37866470000017,None,,,,,,,,,,,,,5,001,2022_Aug_07_1653,Flanker,2021.2.0,239.50202738476438,
incongruent-right.jpg,0,k,left_arrow.png,left_arrow.png,left_arrow.png,right_arrow.png,left_arrow.png,left_arrow.png,left_arrow.png,,,,,,,,,2,3,15,3,,,,,,,,,221.75422059999983,None,,,,,,,,,,,,,,,,,,,,,,,,,,,,,,222.76339830000006,None,222.76339830000006,None,222.76339830000006,None,222.76339830000006,None,222.76339830000006,None,222.76339830000006,None,222.76339830000006,None,k,1,0.4789353999999548,222.76339830000006,None,,,,,,,,,,,,,5,001,2022_Aug_07_1653,Flanker,2021.2.0,239.50202738476438,
congruent-right.jpg,1,k,right_arrow.png,right_arrow.png,right_arrow.png,right_arrow.png,right_arrow.png,right_arrow.png,right_arrow.png,,,,,,,,,2,4,16,2,,,,,,,,,223.25572280000006,None,,,,,,,,,,,,,,,,,,,,,,,,,,,,,,224.26507990000027,None,224.26507990000027,None,224.26507990000027,None,224.26507990000027,None,224.26507990000027,None,224.26507990000027,None,224.26507990000027,None,k,1,0.36913559999993595,224.26507990000027,None,,,,,,,,,,,,,5,001,2022_Aug_07_1653,Flanker,2021.2.0,239.50202738476438,
neutral right,0,k,neutral.png,neutral.png,neutral.png,right_arrow.png,neutral.png,neutral.png,neutral.png,,,,,,,,,2,5,17,5,,,,,,,,,224.64868430000024,None,,,,,,,,,,,,,,,,,,,,,,,,,,,,,,225.66239020000012,None,225.66239020000012,None,225.66239020000012,None,225.66239020000012,None,225.66239020000012,None,225.66239020000012,None,225.66239020000012,None,k,1,0.37198480000006384,225.66239020000012,None,,,,,,,,,,,,,5,001,2022_Aug_07_1653,Flanker,2021.2.0,239.50202738476438,
congruent-right.jpg,1,k,right_arrow.png,right_arrow.png,right_arrow.png,right_arrow.png,right_arrow.png,right_arrow.png,right_arrow.png,,,,,,,,,3,0,18,2,,,,,,,,,226.04614020000008,None,,,,,,,,,,,,,,,,,,,,,,,,,,,,,,227.05955930000027,None,227.05955930000027,None,227.05955930000027,None,227.05955930000027,None,227.05955930000027,None,227.05955930000027,None,227.05955930000027,None,k,1,0.3270199000003231,227.05955930000027,None,,,,,,,,,,,,,5,001,2022_Aug_07_1653,Flanker,2021.2.0,239.50202738476438,
neutral left,0,a,neutral.png,neutral.png,neutral.png,left_arrow.png,neutral.png,neutral.png,neutral.png,,,,,,,,,3,1,19,4,,,,,,,,,227.40166649999992,None,,,,,,,,,,,,,,,,,,,,,,,,,,,,,,228.41531590000022,None,228.41531590000022,None,228.41531590000022,None,228.41531590000022,None,228.41531590000022,None,228.41531590000022,None,228.41531590000022,None,a,1,0.3794839000001957,228.41531590000022,None,,,,,,,,,,,,,5,001,2022_Aug_07_1653,Flanker,2021.2.0,239.50202738476438,
congruent-left.jpg,1,a,left_arrow.png,left_arrow.png,left_arrow.png,left_arrow.png,left_arrow.png,left_arrow.png,left_arrow.png,,,,,,,,,3,2,20,0,,,,,,,,,228.80758460000015,None,,,,,,,,,,,,,,,,,,,,,,,,,,,,,,229.82081440000002,None,229.82081440000002,None,229.82081440000002,None,229.82081440000002,None,229.82081440000002,None,229.82081440000002,None,229.82081440000002,None,a,1,0.42210660000000644,229.82081440000002,None,,,,,,,,,,,,,5,001,2022_Aug_07_1653,Flanker,2021.2.0,239.50202738476438,
congruent-left.jpg,1,a,left_arrow.png,left_arrow.png,left_arrow.png,left_arrow.png,left_arrow.png,left_arrow.png,left_arrow.png,,,,,,,,,3,3,21,0,,,,,,,,,230.25488870000027,None,,,,,,,,,,,,,,,,,,,,,,,,,,,,,,231.2641395999999,None,231.2641395999999,None,231.2641395999999,None,231.2641395999999,None,231.2641395999999,None,231.2641395999999,None,231.2641395999999,None,a,1,0.33898580000004586,231.2641395999999,None,,,,,,,,,,,,,5,001,2022_Aug_07_1653,Flanker,2021.2.0,239.50202738476438,
neutral left,0,a,neutral.png,neutral.png,neutral.png,left_arrow.png,neutral.png,neutral.png,neutral.png,,,,,,,,,3,4,22,4,,,,,,,,,231.61437810000007,None,,,,,,,,,,,,,,,,,,,,,,,,,,,,,,232.62376410000024,None,232.62376410000024,None,232.62376410000024,None,232.62376410000024,None,232.62376410000024,None,232.62376410000024,None,232.62376410000024,None,a,1,0.36351890000014464,232.62376410000024,None,,,,,,,,,,,,,5,001,2022_Aug_07_1653,Flanker,2021.2.0,239.50202738476438,
neutral left,0,a,neutral.png,neutral.png,neutral.png,left_arrow.png,neutral.png,neutral.png,neutral.png,,,,,,,,,3,5,23,4,,,,,,,,,232.99919480000017,None,,,,,,,,,,,,,,,,,,,,,,,,,,,,,,234.00874599999997,None,234.00874599999997,None,234.00874599999997,None,234.00874599999997,None,234.00874599999997,None,234.00874599999997,None,234.00874599999997,None,a,1,0.3707441999999901,234.00874599999997,None,,,,,,,,,,,,,5,001,2022_Aug_07_1653,Flanker,2021.2.0,239.50202738476438,
congruent-right.jpg,1,k,right_arrow.png,right_arrow.png,right_arrow.png,right_arrow.png,right_arrow.png,right_arrow.png,right_arrow.png,,,,,,,,,4,0,24,2,,,,,,,,,234.39240150000023,None,,,,,,,,,,,,,,,,,,,,,,,,,,,,,,235.40171920000012,None,235.40171920000012,None,235.40171920000012,None,235.40171920000012,None,235.40171920000012,None,235.40171920000012,None,235.40171920000012,None,k,1,0.33796480000000884,235.40171920000012,None,,,,,,,,,,,,,5,001,2022_Aug_07_1653,Flanker,2021.2.0,239.50202738476438,
incongruent-right.jpg,0,k,left_arrow.png,left_arrow.png,left_arrow.png,right_arrow.png,left_arrow.png,left_arrow.png,left_arrow.png,,,,,,,,,4,1,25,3,,,,,,,,,235.7523973000002,None,,,,,,,,,,,,,,,,,,,,,,,,,,,,,,236.7700052,None,236.7700052,None,236.7700052,None,236.7700052,None,236.7700052,None,236.7700052,None,236.7700052,None,k,1,0.45786409999982425,236.7700052,None,,,,,,,,,,,,,5,001,2022_Aug_07_1653,Flanker,2021.2.0,239.50202738476438,
congruent-left.jpg,1,a,left_arrow.png,left_arrow.png,left_arrow.png,left_arrow.png,left_arrow.png,left_arrow.png,left_arrow.png,,,,,,,,,4,2,26,0,,,,,,,,,237.24533079999992,None,,,,,,,,,,,,,,,,,,,,,,,,,,,,,,238.25499880000007,None,238.25499880000007,None,238.25499880000007,None,238.25499880000007,None,238.25499880000007,None,238.25499880000007,None,238.25499880000007,None,a,1,0.3412392999998701,238.25499880000007,None,,,,,,,,,,,,,5,001,2022_Aug_07_1653,Flanker,2021.2.0,239.50202738476438,
incongruent-right.jpg,0,k,left_arrow.png,left_arrow.png,left_arrow.png,right_arrow.png,left_arrow.png,left_arrow.png,left_arrow.png,,,,,,,,,4,3,27,3,,,,,,,,,238.61362710000003,None,,,,,,,,,,,,,,,,,,,,,,,,,,,,,,239.62302799999998,None,239.62302799999998,None,239.62302799999998,None,239.62302799999998,None,239.62302799999998,None,239.62302799999998,None,239.62302799999998,None,k,1,0.3414642999996431,239.62302799999998,None,,,,,,,,,,,,,5,001,2022_Aug_07_1653,Flanker,2021.2.0,239.50202738476438,
incongruent-left.jpg,0,a,right_arrow.png,right_arrow.png,right_arrow.png,left_arrow.png,right_arrow.png,right_arrow.png,right_arrow.png,,,,,,,,,4,4,28,1,,,,,,,,,239.98156130000007,None,,,,,,,,,,,,,,,,,,,,,,,,,,,,,,240.9952846000001,None,240.9952846000001,None,240.9952846000001,None,240.9952846000001,None,240.9952846000001,None,240.9952846000001,None,240.9952846000001,None,a,1,0.5851870999999846,240.9952846000001,None,,,,,,,,,,,,,5,001,2022_Aug_07_1653,Flanker,2021.2.0,239.50202738476438,
incongruent-right.jpg,0,k,left_arrow.png,left_arrow.png,left_arrow.png,right_arrow.png,left_arrow.png,left_arrow.png,left_arrow.png,,,,,,,,,4,5,29,3,,,,,,,,,241.59577900000022,None,,,,,,,,,,,,,,,,,,,,,,,,,,,,,,242.60935299999983,None,242.60935299999983,None,242.60935299999983,None,242.60935299999983,None,242.60935299999983,None,242.60935299999983,None,242.60935299999983,None,k,1,0.43531590000020515,242.60935299999983,None,,,,,,,,,,,,,5,001,2022_Aug_07_1653,Flanker,2021.2.0,239.50202738476438,
incongruent-left.jpg,0,a,right_arrow.png,right_arrow.png,right_arrow.png,left_arrow.png,right_arrow.png,right_arrow.png,right_arrow.png,,,,,,,,,5,0,30,1,,,,,,,,,243.0598187999999,None,,,,,,,,,,,,,,,,,,,,,,,,,,,,,,244.07353439999997,None,244.07353439999997,None,244.07353439999997,None,244.07353439999997,None,244.07353439999997,None,244.07353439999997,None,244.07353439999997,None,a,1,0.6033484999998109,244.07353439999997,None,,,,,,,,,,,,,5,001,2022_Aug_07_1653,Flanker,2021.2.0,239.50202738476438,
congruent-left.jpg,1,a,left_arrow.png,left_arrow.png,left_arrow.png,left_arrow.png,left_arrow.png,left_arrow.png,left_arrow.png,,,,,,,,,5,1,31,0,,,,,,,,,244.69072630000028,None,,,,,,,,,,,,,,,,,,,,,,,,,,,,,,245.70013569999992,None,245.70013569999992,None,245.70013569999992,None,245.70013569999992,None,245.70013569999992,None,245.70013569999992,None,245.70013569999992,None,a,1,0.40920020000021395,245.70013569999992,None,,,,,,,,,,,,,5,001,2022_Aug_07_1653,Flanker,2021.2.0,239.50202738476438,
congruent-right.jpg,1,k,right_arrow.png,right_arrow.png,right_arrow.png,right_arrow.png,right_arrow.png,right_arrow.png,right_arrow.png,,,,,,,,,5,2,32,2,,,,,,,,,246.12593670000024,None,,,,,,,,,,,,,,,,,,,,,,,,,,,,,,247.14337879999994,None,247.14337879999994,None,247.14337879999994,None,247.14337879999994,None,247.14337879999994,None,247.14337879999994,None,247.14337879999994,None,k,1,0.3818714000003638,247.14337879999994,None,,,,,,,,,,,,,5,001,2022_Aug_07_1653,Flanker,2021.2.0,239.50202738476438,
incongruent-left.jpg,0,a,right_arrow.png,right_arrow.png,right_arrow.png,left_arrow.png,right_arrow.png,right_arrow.png,right_arrow.png,,,,,,,,,5,3,33,1,,,,,,,,,247.5440696999999,None,,,,,,,,,,,,,,,,,,,,,,,,,,,,,,248.55744670000013,None,248.55744670000013,None,248.55744670000013,None,248.55744670000013,None,248.55744670000013,None,248.55744670000013,None,248.55744670000013,None,a,1,0.4242909999998119,248.55744670000013,None,,,,,,,,,,,,,5,001,2022_Aug_07_1653,Flanker,2021.2.0,239.50202738476438,
incongruent-left.jpg,0,a,right_arrow.png,right_arrow.png,right_arrow.png,left_arrow.png,right_arrow.png,right_arrow.png,right_arrow.png,,,,,,,,,5,4,34,1,,,,,,,,,248.99944499999992,None,,,,,,,,,,,,,,,,,,,,,,,,,,,,,,250.00889289999986,None,250.00889289999986,None,250.00889289999986,None,250.00889289999986,None,250.00889289999986,None,250.00889289999986,None,250.00889289999986,None,a,1,0.39671329999964655,250.00889289999986,None,,,,,,,,,,,,,5,001,2022_Aug_07_1653,Flanker,2021.2.0,239.50202738476438,
neutral left,0,a,neutral.png,neutral.png,neutral.png,left_arrow.png,neutral.png,neutral.png,neutral.png,,,,,,,,,5,5,35,4,,,,,,,,,250.41787410000006,None,,,,,,,,,,,,,,,,,,,,,,,,,,,,,,251.42700839999998,None,251.42700839999998,None,251.42700839999998,None,251.42700839999998,None,251.42700839999998,None,251.42700839999998,None,251.42700839999998,None,a,1,0.39482790000010937,251.42700839999998,None,,,,,,,,,,,,,5,001,2022_Aug_07_1653,Flanker,2021.2.0,239.50202738476438,
congruent-right.jpg,1,k,right_arrow.png,right_arrow.png,right_arrow.png,right_arrow.png,right_arrow.png,right_arrow.png,right_arrow.png,,,,,,,,,6,0,36,2,,,,,,,,,251.8357802999999,None,,,,,,,,,,,,,,,,,,,,,,,,,,,,,,252.8453217000001,None,252.8453217000001,None,252.8453217000001,None,252.8453217000001,None,252.8453217000001,None,252.8453217000001,None,252.8453217000001,None,k,1,0.3847455000000082,252.8453217000001,None,,,,,,,,,,,,,5,001,2022_Aug_07_1653,Flanker,2021.2.0,239.50202738476438,
neutral right,0,k,neutral.png,neutral.png,neutral.png,right_arrow.png,neutral.png,neutral.png,neutral.png,,,,,,,,,6,1,37,5,,,,,,,,,253.24568379999982,None,,,,,,,,,,,,,,,,,,,,,,,,,,,,,,254.2593164,None,254.2593164,None,254.2593164,None,254.2593164,None,254.2593164,None,254.2593164,None,254.2593164,None,k,1,0.3792586999998093,254.2593164,None,,,,,,,,,,,,,5,001,2022_Aug_07_1653,Flanker,2021.2.0,239.50202738476438,
neutral right,0,k,neutral.png,neutral.png,neutral.png,right_arrow.png,neutral.png,neutral.png,neutral.png,,,,,,,,,6,2,38,5,,,,,,,,,254.65152799999987,None,,,,,,,,,,,,,,,,,,,,,,,,,,,,,,255.65654350000023,None,255.65654350000023,None,255.65654350000023,None,255.65654350000023,None,255.65654350000023,None,255.65654350000023,None,255.65654350000023,None,k,1,0.3500659999999698,255.65654350000023,None,,,,,,,,,,,,,5,001,2022_Aug_07_1653,Flanker,2021.2.0,239.50202738476438,
incongruent-left.jpg,0,a,right_arrow.png,right_arrow.png,right_arrow.png,left_arrow.png,right_arrow.png,right_arrow.png,right_arrow.png,,,,,,,,,6,3,39,1,,,,,,,,,256.0236960000002,None,,,,,,,,,,,,,,,,,,,,,,,,,,,,,,257.03741649999984,None,257.03741649999984,None,257.03741649999984,None,257.03741649999984,None,257.03741649999984,None,257.03741649999984,None,257.03741649999984,None,a,1,0.4573950999997578,257.03741649999984,None,,,,,,,,,,,,,5,001,2022_Aug_07_1653,Flanker,2021.2.0,239.50202738476438,
neutral right,0,k,neutral.png,neutral.png,neutral.png,right_arrow.png,neutral.png,neutral.png,neutral.png,,,,,,,,,6,4,40,5,,,,,,,,,257.5127124999999,None,,,,,,,,,,,,,,,,,,,,,,,,,,,,,,258.5265211000001,None,258.5265211000001,None,258.5265211000001,None,258.5265211000001,None,258.5265211000001,None,258.5265211000001,None,258.5265211000001,None,k,1,0.43240270000023884,258.5265211000001,None,,,,,,,,,,,,,5,001,2022_Aug_07_1653,Flanker,2021.2.0,239.50202738476438,
incongruent-right.jpg,0,k,left_arrow.png,left_arrow.png,left_arrow.png,right_arrow.png,left_arrow.png,left_arrow.png,left_arrow.png,,,,,,,,,6,5,41,3,,,,,,,,,258.97675119999985,None,,,,,,,,,,,,,,,,,,,,,,,,,,,,,,259.98614750000024,None,259.98614750000024,None,259.98614750000024,None,259.98614750000024,None,259.98614750000024,None,259.98614750000024,None,259.98614750000024,None,a,0,0.3808030999998664,259.98614750000024,None,,,,,,,,,,,,,5,001,2022_Aug_07_1653,Flanker,2021.2.0,239.50202738476438,
neutral right,0,k,neutral.png,neutral.png,neutral.png,right_arrow.png,neutral.png,neutral.png,neutral.png,,,,,,,,,7,0,42,5,,,,,,,,,260.37815790000013,None,,,,,,,,,,,,,,,,,,,,,,,,,,,,,,261.3877155,None,261.3877155,None,261.3877155,None,261.3877155,None,261.3877155,None,261.3877155,None,261.3877155,None,k,1,0.4434539999997469,261.3877155,None,,,,,,,,,,,,,5,001,2022_Aug_07_1653,Flanker,2021.2.0,239.50202738476438,
incongruent-right.jpg,0,k,left_arrow.png,left_arrow.png,left_arrow.png,right_arrow.png,left_arrow.png,left_arrow.png,left_arrow.png,,,,,,,,,7,1,43,3,,,,,,,,,261.8463821999999,None,,,,,,,,,,,,,,,,,,,,,,,,,,,,,,262.85577820000026,None,262.85577820000026,None,262.85577820000026,None,262.85577820000026,None,262.85577820000026,None,262.85577820000026,None,262.85577820000026,None,k,1,0.4475721000003432,262.85577820000026,None,,,,,,,,,,,,,5,001,2022_Aug_07_1653,Flanker,2021.2.0,239.50202738476438,
neutral right,0,k,neutral.png,neutral.png,neutral.png,right_arrow.png,neutral.png,neutral.png,neutral.png,,,,,,,,,7,2,44,5,,,,,,,,,263.31467079999993,None,,,,,,,,,,,,,,,,,,,,,,,,,,,,,,264.3241533999999,None,264.3241533999999,None,264.3241533999999,None,264.3241533999999,None,264.3241533999999,None,264.3241533999999,None,264.3241533999999,None,k,1,0.3793817000000672,264.3241533999999,None,,,,,,,,,,,,,5,001,2022_Aug_07_1653,Flanker,2021.2.0,239.50202738476438,
incongruent-right.jpg,0,k,left_arrow.png,left_arrow.png,left_arrow.png,right_arrow.png,left_arrow.png,left_arrow.png,left_arrow.png,,,,,,,,,7,3,45,3,,,,,,,,,264.7161664999999,None,,,,,,,,,,,,,,,,,,,,,,,,,,,,,,265.7296701999999,None,265.7296701999999,None,265.7296701999999,None,265.7296701999999,None,265.7296701999999,None,265.7296701999999,None,265.7296701999999,None,k,1,0.4780617000001257,265.7296701999999,None,,,,,,,,,,,,,5,001,2022_Aug_07_1653,Flanker,2021.2.0,239.50202738476438,
congruent-left.jpg,1,a,left_arrow.png,left_arrow.png,left_arrow.png,left_arrow.png,left_arrow.png,left_arrow.png,left_arrow.png,,,,,,,,,7,4,46,0,,,,,,,,,266.22183989999985,None,,,,,,,,,,,,,,,,,,,,,,,,,,,,,,267.23571360000005,None,267.23571360000005,None,267.23571360000005,None,267.23571360000005,None,267.23571360000005,None,267.23571360000005,None,267.23571360000005,None,a,1,0.396201299999575,267.23571360000005,None,,,,,,,,,,,,,5,001,2022_Aug_07_1653,Flanker,2021.2.0,239.50202738476438,
incongruent-right.jpg,0,k,left_arrow.png,left_arrow.png,left_arrow.png,right_arrow.png,left_arrow.png,left_arrow.png,left_arrow.png,,,,,,,,,7,5,47,3,,,,,,,,,267.6443306000001,None,,,,,,,,,,,,,,,,,,,,,,,,,,,,,,268.65376000000015,None,268.65376000000015,None,268.65376000000015,None,268.65376000000015,None,268.65376000000015,None,268.65376000000015,None,268.65376000000015,None,k,1,0.37837779999972554,268.65376000000015,None,,,,,,,,,,,,,5,001,2022_Aug_07_1653,Flanker,2021.2.0,239.50202738476438,
,,,,,,,,,,,,,,,,,,,,,,,,,,,,,,,,,,,,,,,,,,,,,,,,,,,,,,,,,,,,,,,,,,,,,,,,,,,,,,,,269.0583351,None,space,6.0387839999998505,269.0583351,None,,,,,,,5,001,2022_Aug_07_1653,Flanker,2021.2.0,239.50202738476438,
congruent-right.jpg,1,k,right_arrow.png,right_arrow.png,right_arrow.png,right_arrow.png,right_arrow.png,right_arrow.png,right_arrow.png,,,,,,,,,,,,,0,0,0,2,,,,,275.12294090000023,None,,,,,,,,,,,,,,,,,,,,,,,,,,,,,,276.1325651000002,None,276.1325651000002,None,276.1325651000002,None,276.1325651000002,None,276.1325651000002,None,276.1325651000002,None,276.1325651000002,None,k,1,0.37256710000019666,276.1325651000002,None,,,,,,,,,,,,,5,001,2022_Aug_07_1653,Flanker,2021.2.0,239.50202738476438,
congruent-left.jpg,1,a,left_arrow.png,left_arrow.png,left_arrow.png,left_arrow.png,left_arrow.png,left_arrow.png,left_arrow.png,,,,,,,,,,,,,0,1,1,0,,,,,276.5161214,None,,,,,,,,,,,,,,,,,,,,,,,,,,,,,,277.52981769999997,None,277.52981769999997,None,277.52981769999997,None,277.52981769999997,None,277.52981769999997,None,277.52981769999997,None,277.52981769999997,None,a,1,0.35949369999980263,277.52981769999997,None,,,,,,,,,,,,,5,001,2022_Aug_07_1653,Flanker,2021.2.0,239.50202738476438,
congruent-left.jpg,1,a,left_arrow.png,left_arrow.png,left_arrow.png,left_arrow.png,left_arrow.png,left_arrow.png,left_arrow.png,,,,,,,,,,,,,0,2,2,0,,,,,277.9050999000001,None,,,,,,,,,,,,,,,,,,,,,,,,,,,,,,278.91456930000004,None,278.91456930000004,None,278.91456930000004,None,278.91456930000004,None,278.91456930000004,None,278.91456930000004,None,278.91456930000004,None,a,1,0.35898190000034447,278.91456930000004,None,,,,,,,,,,,,,5,001,2022_Aug_07_1653,Flanker,2021.2.0,239.50202738476438,
incongruent-left.jpg,0,a,right_arrow.png,right_arrow.png,right_arrow.png,left_arrow.png,right_arrow.png,right_arrow.png,right_arrow.png,,,,,,,,,,,,,0,3,3,1,,,,,279.28993560000026,None,,,,,,,,,,,,,,,,,,,,,,,,,,,,,,280.30771170000025,None,280.30771170000025,None,280.30771170000025,None,280.30771170000025,None,280.30771170000025,None,280.30771170000025,None,280.30771170000025,None,a,1,0.3741207999996732,280.30771170000025,None,,,,,,,,,,,,,5,001,2022_Aug_07_1653,Flanker,2021.2.0,239.50202738476438,
congruent-left.jpg,1,a,left_arrow.png,left_arrow.png,left_arrow.png,left_arrow.png,left_arrow.png,left_arrow.png,left_arrow.png,,,,,,,,,,,,,0,4,4,0,,,,,280.69983030000003,None,,,,,,,,,,,,,,,,,,,,,,,,,,,,,,281.71322659999987,None,281.71322659999987,None,281.71322659999987,None,281.71322659999987,None,281.71322659999987,None,281.71322659999987,None,281.71322659999987,None,a,1,0.3366519999999582,281.71322659999987,None,,,,,,,,,,,,,5,001,2022_Aug_07_1653,Flanker,2021.2.0,239.50202738476438,
neutral left,0,a,neutral.png,neutral.png,neutral.png,left_arrow.png,neutral.png,neutral.png,neutral.png,,,,,,,,,,,,,0,5,5,4,,,,,282.06360810000024,None,,,,,,,,,,,,,,,,,,,,,,,,,,,,,,283.0773766000002,None,283.0773766000002,None,283.0773766000002,None,283.0773766000002,None,283.0773766000002,None,283.0773766000002,None,283.0773766000002,None,a,1,0.3886464000001979,283.0773766000002,None,,,,,,,,,,,,,5,001,2022_Aug_07_1653,Flanker,2021.2.0,239.50202738476438,
neutral left,0,a,neutral.png,neutral.png,neutral.png,left_arrow.png,neutral.png,neutral.png,neutral.png,,,,,,,,,,,,,1,0,6,4,,,,,283.47761219999984,None,,,,,,,,,,,,,,,,,,,,,,,,,,,,,,284.49123999999983,None,284.49123999999983,None,284.49123999999983,None,284.49123999999983,None,284.49123999999983,None,284.49123999999983,None,284.49123999999983,None,a,1,0.3430097000000387,284.49123999999983,None,,,,,,,,,,,,,5,001,2022_Aug_07_1653,Flanker,2021.2.0,239.50202738476438,
congruent-right.jpg,1,k,right_arrow.png,right_arrow.png,right_arrow.png,right_arrow.png,right_arrow.png,right_arrow.png,right_arrow.png,,,,,,,,,,,,,1,1,7,2,,,,,284.84988520000024,None,,,,,,,,,,,,,,,,,,,,,,,,,,,,,,285.86345029999984,None,285.86345029999984,None,285.86345029999984,None,285.86345029999984,None,285.86345029999984,None,285.86345029999984,None,285.86345029999984,None,k,1,0.36301989999992657,285.86345029999984,None,,,,,,,,,,,,,5,001,2022_Aug_07_1653,Flanker,2021.2.0,239.50202738476438,
congruent-right.jpg,1,k,right_arrow.png,right_arrow.png,right_arrow.png,right_arrow.png,right_arrow.png,right_arrow.png,right_arrow.png,,,,,,,,,,,,,1,2,8,2,,,,,286.23886390000007,None,,,,,,,,,,,,,,,,,,,,,,,,,,,,,,287.24840240000003,None,287.24840240000003,None,287.24840240000003,None,287.24840240000003,None,287.24840240000003,None,287.24840240000003,None,287.24840240000003,None,k,1,0.3542429999997694,287.24840240000003,None,,,,,,,,,,,,,5,001,2022_Aug_07_1653,Flanker,2021.2.0,239.50202738476438,
incongruent-right.jpg,0,k,left_arrow.png,left_arrow.png,left_arrow.png,right_arrow.png,left_arrow.png,left_arrow.png,left_arrow.png,,,,,,,,,,,,,1,3,9,3,,,,,287.61532160000024,None,,,,,,,,,,,,,,,,,,,,,,,,,,,,,,288.6249278999999,None,288.6249278999999,None,288.6249278999999,None,288.6249278999999,None,288.6249278999999,None,288.6249278999999,None,288.6249278999999,None,k,1,0.6099134999999478,288.6249278999999,None,,,,,,,,,,,,,5,001,2022_Aug_07_1653,Flanker,2021.2.0,239.50202738476438,
congruent-left.jpg,1,a,left_arrow.png,left_arrow.png,left_arrow.png,left_arrow.png,left_arrow.png,left_arrow.png,left_arrow.png,,,,,,,,,,,,,1,4,10,0,,,,,289.25038300000006,None,,,,,,,,,,,,,,,,,,,,,,,,,,,,,,290.2641001000002,None,290.2641001000002,None,290.2641001000002,None,290.2641001000002,None,290.2641001000002,None,290.2641001000002,None,290.2641001000002,None,a,1,0.5629076000000168,290.2641001000002,None,,,,,,,,,,,,,5,001,2022_Aug_07_1653,Flanker,2021.2.0,239.50202738476438,
neutral left,0,a,neutral.png,neutral.png,neutral.png,left_arrow.png,neutral.png,neutral.png,neutral.png,,,,,,,,,,,,,1,5,11,4,,,,,290.8395561000002,None,,,,,,,,,,,,,,,,,,,,,,,,,,,,,,291.84909949999974,None,291.84909949999974,None,291.84909949999974,None,291.84909949999974,None,291.84909949999974,None,291.84909949999974,None,291.84909949999974,None,a,1,0.4101110999999946,291.84909949999974,None,,,,,,,,,,,,,5,001,2022_Aug_07_1653,Flanker,2021.2.0,239.50202738476438,
neutral left,0,a,neutral.png,neutral.png,neutral.png,left_arrow.png,neutral.png,neutral.png,neutral.png,,,,,,,,,,,,,2,0,12,4,,,,,292.2743948000002,None,,,,,,,,,,,,,,,,,,,,,,,,,,,,,,293.28798919999963,None,293.28798919999963,None,293.28798919999963,None,293.28798919999963,None,293.28798919999963,None,293.28798919999963,None,293.28798919999963,None,a,1,0.38749770000049466,293.28798919999963,None,,,,,,,,,,,,,5,001,2022_Aug_07_1653,Flanker,2021.2.0,239.50202738476438,
neutral right,0,k,neutral.png,neutral.png,neutral.png,right_arrow.png,neutral.png,neutral.png,neutral.png,,,,,,,,,,,,,2,1,13,5,,,,,293.68848000000025,None,,,,,,,,,,,,,,,,,,,,,,,,,,,,,,294.7019779999996,None,294.7019779999996,None,294.7019779999996,None,294.7019779999996,None,294.7019779999996,None,294.7019779999996,None,294.7019779999996,None,k,1,0.3496322999999393,294.7019779999996,None,,,,,,,,,,,,,5,001,2022_Aug_07_1653,Flanker,2021.2.0,239.50202738476438,
incongruent-left.jpg,0,a,right_arrow.png,right_arrow.png,right_arrow.png,left_arrow.png,right_arrow.png,right_arrow.png,right_arrow.png,,,,,,,,,,,,,2,2,14,1,,,,,295.06512619999967,None,,,,,,,,,,,,,,,,,,,,,,,,,,,,,,296.0784389000005,None,296.0784389000005,None,296.0784389000005,None,296.0784389000005,None,296.0784389000005,None,296.0784389000005,None,296.0784389000005,None,a,1,0.33345420000023296,296.0784389000005,None,,,,,,,,,,,,,5,001,2022_Aug_07_1653,Flanker,2021.2.0,239.50202738476438,
incongruent-right.jpg,0,k,left_arrow.png,left_arrow.png,left_arrow.png,right_arrow.png,left_arrow.png,left_arrow.png,left_arrow.png,,,,,,,,,,,,,2,3,15,3,,,,,296.4287968000003,None,,,,,,,,,,,,,,,,,,,,,,,,,,,,,,297.4383621000002,None,297.4383621000002,None,297.4383621000002,None,297.4383621000002,None,297.4383621000002,None,297.4383621000002,None,297.4383621000002,None,k,1,0.5016519999999218,297.4383621000002,None,,,,,,,,,,,,,5,001,2022_Aug_07_1653,Flanker,2021.2.0,239.50202738476438,
incongruent-left.jpg,0,a,right_arrow.png,right_arrow.png,right_arrow.png,left_arrow.png,right_arrow.png,right_arrow.png,right_arrow.png,,,,,,,,,,,,,2,4,16,1,,,,,297.9554184000003,None,,,,,,,,,,,,,,,,,,,,,,,,,,,,,,298.9733245000002,None,298.9733245000002,None,298.9733245000002,None,298.9733245000002,None,298.9733245000002,None,298.9733245000002,None,298.9733245000002,None,a,1,0.3988357999996879,298.9733245000002,None,,,,,,,,,,,,,5,001,2022_Aug_07_1653,Flanker,2021.2.0,239.50202738476438,
congruent-right.jpg,1,k,right_arrow.png,right_arrow.png,right_arrow.png,right_arrow.png,right_arrow.png,right_arrow.png,right_arrow.png,,,,,,,,,,,,,2,5,17,2,,,,,299.39053399999966,None,,,,,,,,,,,,,,,,,,,,,,,,,,,,,,300.3999365000004,None,300.3999365000004,None,300.3999365000004,None,300.3999365000004,None,300.3999365000004,None,300.3999365000004,None,300.3999365000004,None,k,1,0.36440440000023955,300.3999365000004,None,,,,,,,,,,,,,5,001,2022_Aug_07_1653,Flanker,2021.2.0,239.50202738476438,
incongruent-left.jpg,0,a,right_arrow.png,right_arrow.png,right_arrow.png,left_arrow.png,right_arrow.png,right_arrow.png,right_arrow.png,,,,,,,,,,,,,3,0,18,1,,,,,300.78369820000034,None,,,,,,,,,,,,,,,,,,,,,,,,,,,,,,301.8013861000004,None,301.8013861000004,None,301.8013861000004,None,301.8013861000004,None,301.8013861000004,None,301.8013861000004,None,301.8013861000004,None,k,0,0.403143600000476,301.8013861000004,None,,,,,,,,,,,,,5,001,2022_Aug_07_1653,Flanker,2021.2.0,239.50202738476438,
incongruent-right.jpg,0,k,left_arrow.png,left_arrow.png,left_arrow.png,right_arrow.png,left_arrow.png,left_arrow.png,left_arrow.png,,,,,,,,,,,,,3,1,19,3,,,,,302.2186029999998,None,,,,,,,,,,,,,,,,,,,,,,,,,,,,,,303.2320931999998,None,303.2320931999998,None,303.2320931999998,None,303.2320931999998,None,303.2320931999998,None,303.2320931999998,None,303.2320931999998,None,k,1,0.48494140000002517,303.2320931999998,None,,,,,,,,,,,,,5,001,2022_Aug_07_1653,Flanker,2021.2.0,239.50202738476438,
congruent-right.jpg,1,k,right_arrow.png,right_arrow.png,right_arrow.png,right_arrow.png,right_arrow.png,right_arrow.png,right_arrow.png,,,,,,,,,,,,,3,2,20,2,,,,,303.73262209999984,None,,,,,,,,,,,,,,,,,,,,,,,,,,,,,,304.7420882000001,None,304.7420882000001,None,304.7420882000001,None,304.7420882000001,None,304.7420882000001,None,304.7420882000001,None,304.7420882000001,None,k,1,0.3911696999994092,304.7420882000001,None,,,,,,,,,,,,,5,001,2022_Aug_07_1653,Flanker,2021.2.0,239.50202738476438,
incongruent-left.jpg,0,a,right_arrow.png,right_arrow.png,right_arrow.png,left_arrow.png,right_arrow.png,right_arrow.png,right_arrow.png,,,,,,,,,,,,,3,3,21,1,,,,,305.1508909999998,None,,,,,,,,,,,,,,,,,,,,,,,,,,,,,,306.15581410000004,None,306.15581410000004,None,306.15581410000004,None,306.15581410000004,None,306.15581410000004,None,306.15581410000004,None,306.15581410000004,None,a,1,0.44950909999988653,306.15581410000004,None,,,,,,,,,,,,,5,001,2022_Aug_07_1653,Flanker,2021.2.0,239.50202738476438,
neutral right,0,k,neutral.png,neutral.png,neutral.png,right_arrow.png,neutral.png,neutral.png,neutral.png,,,,,,,,,,,,,3,4,22,5,,,,,306.6230650000002,None,,,,,,,,,,,,,,,,,,,,,,,,,,,,,,307.6367341,None,307.6367341,None,307.6367341,None,307.6367341,None,307.6367341,None,307.6367341,None,307.6367341,None,k,1,0.5606787999995504,307.6367341,None,,,,,,,,,,,,,5,001,2022_Aug_07_1653,Flanker,2021.2.0,239.50202738476438,
incongruent-left.jpg,0,a,right_arrow.png,right_arrow.png,right_arrow.png,left_arrow.png,right_arrow.png,right_arrow.png,right_arrow.png,,,,,,,,,,,,,3,5,23,1,,,,,308.2121079000003,None,,,,,,,,,,,,,,,,,,,,,,,,,,,,,,309.2218054,None,309.2218054,None,309.2218054,None,309.2218054,None,309.2218054,None,309.2218054,None,309.2218054,None,a,1,0.319755499999701,309.2218054,None,,,,,,,,,,,,,5,001,2022_Aug_07_1653,Flanker,2021.2.0,239.50202738476438,
incongruent-right.jpg,0,k,left_arrow.png,left_arrow.png,left_arrow.png,right_arrow.png,left_arrow.png,left_arrow.png,left_arrow.png,,,,,,,,,,,,,4,0,24,3,,,,,309.5552795999997,None,,,,,,,,,,,,,,,,,,,,,,,,,,,,,,310.56883590000007,None,310.56883590000007,None,310.56883590000007,None,310.56883590000007,None,310.56883590000007,None,310.56883590000007,None,310.56883590000007,None,k,1,0.5648958000001585,310.56883590000007,None,,,,,,,,,,,,,5,001,2022_Aug_07_1653,Flanker,2021.2.0,239.50202738476438,
incongruent-right.jpg,0,k,left_arrow.png,left_arrow.png,left_arrow.png,right_arrow.png,left_arrow.png,left_arrow.png,left_arrow.png,,,,,,,,,,,,,4,1,25,3,,,,,311.1530128999998,None,,,,,,,,,,,,,,,,,,,,,,,,,,,,,,312.1664341999999,None,312.1664341999999,None,312.1664341999999,None,312.1664341999999,None,312.1664341999999,None,312.1664341999999,None,312.1664341999999,None,k,1,0.5675546000002214,312.1664341999999,None,,,,,,,,,,,,,5,001,2022_Aug_07_1653,Flanker,2021.2.0,239.50202738476438,
congruent-left.jpg,1,a,left_arrow.png,left_arrow.png,left_arrow.png,left_arrow.png,left_arrow.png,left_arrow.png,left_arrow.png,,,,,,,,,,,,,4,2,26,0,,,,,312.750305,None,,,,,,,,,,,,,,,,,,,,,,,,,,,,,,313.75965250000036,None,313.75965250000036,None,313.75965250000036,None,313.75965250000036,None,313.75965250000036,None,313.75965250000036,None,313.75965250000036,None,a,1,0.5345283999995445,313.75965250000036,None,,,,,,,,,,,,,5,001,2022_Aug_07_1653,Flanker,2021.2.0,239.50202738476438,
incongruent-left.jpg,0,a,right_arrow.png,right_arrow.png,right_arrow.png,left_arrow.png,right_arrow.png,right_arrow.png,right_arrow.png,,,,,,,,,,,,,4,3,27,1,,,,,314.3102279999998,None,,,,,,,,,,,,,,,,,,,,,,,,,,,,,,315.32377640000004,None,315.32377640000004,None,315.32377640000004,None,315.32377640000004,None,315.32377640000004,None,315.32377640000004,None,315.32377640000004,None,a,1,0.47498429999996006,315.32377640000004,None,,,,,,,,,,,,,5,001,2022_Aug_07_1653,Flanker,2021.2.0,239.50202738476438,
neutral left,0,a,neutral.png,neutral.png,neutral.png,left_arrow.png,neutral.png,neutral.png,neutral.png,,,,,,,,,,,,,4,4,28,4,,,,,315.81625289999965,None,,,,,,,,,,,,,,,,,,,,,,,,,,,,,,316.82536779999964,None,316.82536779999964,None,316.82536779999964,None,316.82536779999964,None,316.82536779999964,None,316.82536779999964,None,316.82536779999964,None,a,1,0.5493777000001501,316.82536779999964,None,,,,,,,,,,,,,5,001,2022_Aug_07_1653,Flanker,2021.2.0,239.50202738476438,
congruent-left.jpg,1,a,left_arrow.png,left_arrow.png,left_arrow.png,left_arrow.png,left_arrow.png,left_arrow.png,left_arrow.png,,,,,,,,,,,,,4,5,29,0,,,,,317.3926647000003,None,,,,,,,,,,,,,,,,,,,,,,,,,,,,,,318.40623860000005,None,318.40623860000005,None,318.40623860000005,None,318.40623860000005,None,318.40623860000005,None,318.40623860000005,None,318.40623860000005,None,a,1,0.4086811999995916,318.40623860000005,None,,,,,,,,,,,,,5,001,2022_Aug_07_1653,Flanker,2021.2.0,239.50202738476438,
congruent-left.jpg,1,a,left_arrow.png,left_arrow.png,left_arrow.png,left_arrow.png,left_arrow.png,left_arrow.png,left_arrow.png,,,,,,,,,,,,,5,0,30,0,,,,,318.83194870000034,None,,,,,,,,,,,,,,,,,,,,,,,,,,,,,,319.84988209999983,None,319.84988209999983,None,319.84988209999983,None,319.84988209999983,None,319.84988209999983,None,319.84988209999983,None,319.84988209999983,None,a,1,0.3170918999994683,319.84988209999983,None,,,,,,,,,,,,,5,001,2022_Aug_07_1653,Flanker,2021.2.0,239.50202738476438,
incongruent-left.jpg,0,a,right_arrow.png,right_arrow.png,right_arrow.png,left_arrow.png,right_arrow.png,right_arrow.png,right_arrow.png,,,,,,,,,,,,,5,1,31,1,,,,,320.1831715000003,None,,,,,,,,,,,,,,,,,,,,,,,,,,,,,,321.19665060000034,None,321.19665060000034,None,321.19665060000034,None,321.19665060000034,None,321.19665060000034,None,321.19665060000034,None,321.19665060000034,None,a,1,0.45872440000039205,321.19665060000034,None,,,,,,,,,,,,,5,001,2022_Aug_07_1653,Flanker,2021.2.0,239.50202738476438,
neutral right,0,k,neutral.png,neutral.png,neutral.png,right_arrow.png,neutral.png,neutral.png,neutral.png,,,,,,,,,,,,,5,2,32,5,,,,,321.6721640999999,None,,,,,,,,,,,,,,,,,,,,,,,,,,,,,,322.6815706000002,None,322.6815706000002,None,322.6815706000002,None,322.6815706000002,None,322.6815706000002,None,322.6815706000002,None,322.6815706000002,None,k,1,0.4057677999999214,322.6815706000002,None,,,,,,,,,,,,,5,001,2022_Aug_07_1653,Flanker,2021.2.0,239.50202738476438,
neutral right,0,k,neutral.png,neutral.png,neutral.png,right_arrow.png,neutral.png,neutral.png,neutral.png,,,,,,,,,,,,,5,3,33,5,,,,,323.09871150000026,None,,,,,,,,,,,,,,,,,,,,,,,,,,,,,,324.10813350000035,None,324.10813350000035,None,324.10813350000035,None,324.10813350000035,None,324.10813350000035,None,324.10813350000035,None,324.10813350000035,None,k,1,0.3633669999999256,324.10813350000035,None,,,,,,,,,,,,,5,001,2022_Aug_07_1653,Flanker,2021.2.0,239.50202738476438,
neutral right,0,k,neutral.png,neutral.png,neutral.png,right_arrow.png,neutral.png,neutral.png,neutral.png,,,,,,,,,,,,,5,4,34,5,,,,,324.4834956999998,None,,,,,,,,,,,,,,,,,,,,,,,,,,,,,,325.4928931999998,None,325.4928931999998,None,325.4928931999998,None,325.4928931999998,None,325.4928931999998,None,325.4928931999998,None,325.4928931999998,None,k,1,0.3788393000004362,325.4928931999998,None,,,,,,,,,,,,,5,001,2022_Aug_07_1653,Flanker,2021.2.0,239.50202738476438,
congruent-right.jpg,1,k,right_arrow.png,right_arrow.png,right_arrow.png,right_arrow.png,right_arrow.png,right_arrow.png,right_arrow.png,,,,,,,,,,,,,5,5,35,2,,,,,325.88497419999976,None,,,,,,,,,,,,,,,,,,,,,,,,,,,,,,326.8985528999997,None,326.8985528999997,None,326.8985528999997,None,326.8985528999997,None,326.8985528999997,None,326.8985528999997,None,326.8985528999997,None,k,1,0.357671499999924,326.8985528999997,None,,,,,,,,,,,,,5,001,2022_Aug_07_1653,Flanker,2021.2.0,239.50202738476438,
neutral left,0,a,neutral.png,neutral.png,neutral.png,left_arrow.png,neutral.png,neutral.png,neutral.png,,,,,,,,,,,,,6,0,36,4,,,,,327.27410439999994,None,,,,,,,,,,,,,,,,,,,,,,,,,,,,,,328.2876634999998,None,328.2876634999998,None,328.2876634999998,None,328.2876634999998,None,328.2876634999998,None,328.2876634999998,None,328.2876634999998,None,a,1,0.3604320000004009,328.2876634999998,None,,,,,,,,,,,,,5,001,2022_Aug_07_1653,Flanker,2021.2.0,239.50202738476438,
neutral left,0,a,neutral.png,neutral.png,neutral.png,left_arrow.png,neutral.png,neutral.png,neutral.png,,,,,,,,,,,,,6,1,37,4,,,,,328.6629211000004,None,,,,,,,,,,,,,,,,,,,,,,,,,,,,,,329.6766464999996,None,329.6766464999996,None,329.6766464999996,None,329.6766464999996,None,329.6766464999996,None,329.6766464999996,None,329.6766464999996,None,a,1,0.34761040000012144,329.6766464999996,None,,,,,,,,,,,,,5,001,2022_Aug_07_1653,Flanker,2021.2.0,239.50202738476438,
congruent-right.jpg,1,k,right_arrow.png,right_arrow.png,right_arrow.png,right_arrow.png,right_arrow.png,right_arrow.png,right_arrow.png,,,,,,,,,,,,,6,2,38,2,,,,,330.04354060000014,None,,,,,,,,,,,,,,,,,,,,,,,,,,,,,,331.0571199000001,None,331.0571199000001,None,331.0571199000001,None,331.0571199000001,None,331.0571199000001,None,331.0571199000001,None,331.0571199000001,None,k,1,0.39151440000023285,331.0571199000001,None,,,,,,,,,,,,,5,001,2022_Aug_07_1653,Flanker,2021.2.0,239.50202738476438,
incongruent-right.jpg,0,k,left_arrow.png,left_arrow.png,left_arrow.png,right_arrow.png,left_arrow.png,left_arrow.png,left_arrow.png,,,,,,,,,,,,,6,3,39,3,,,,,331.46603879999975,None,,,,,,,,,,,,,,,,,,,,,,,,,,,,,,332.47527560000026,None,332.47527560000026,None,332.47527560000026,None,332.47527560000026,None,332.47527560000026,None,332.47527560000026,None,332.47527560000026,None,k,1,0.4453948999998829,332.47527560000026,None,,,,,,,,,,,,,5,001,2022_Aug_07_1653,Flanker,2021.2.0,239.50202738476438,
incongruent-right.jpg,0,k,left_arrow.png,left_arrow.png,left_arrow.png,right_arrow.png,left_arrow.png,left_arrow.png,left_arrow.png,,,,,,,,,,,,,6,4,40,3,,,,,332.9343292999997,None,,,,,,,,,,,,,,,,,,,,,,,,,,,,,,333.94369099999994,None,333.94369099999994,None,333.94369099999994,None,333.94369099999994,None,333.94369099999994,None,333.94369099999994,None,333.94369099999994,None,k,1,0.417181900000287,333.94369099999994,None,,,,,,,,,,,,,5,001,2022_Aug_07_1653,Flanker,2021.2.0,239.50202738476438,
congruent-right.jpg,1,k,right_arrow.png,right_arrow.png,right_arrow.png,right_arrow.png,right_arrow.png,right_arrow.png,right_arrow.png,,,,,,,,,,,,,6,5,41,2,,,,,334.37730930000043,None,,,,,,,,,,,,,,,,,,,,,,,,,,,,,,335.3869531000005,None,335.3869531000005,None,335.3869531000005,None,335.3869531000005,None,335.3869531000005,None,335.3869531000005,None,335.3869531000005,None,k,1,0.38210499999968306,335.3869531000005,None,,,,,,,,,,,,,5,001,2022_Aug_07_1653,Flanker,2021.2.0,239.50202738476438,
incongruent-right.jpg,0,k,left_arrow.png,left_arrow.png,left_arrow.png,right_arrow.png,left_arrow.png,left_arrow.png,left_arrow.png,,,,,,,,,,,,,7,0,42,3,,,,,335.7829472999997,None,,,,,,,,,,,,,,,,,,,,,,,,,,,,,,336.79671869999993,None,336.79671869999993,None,336.79671869999993,None,336.79671869999993,None,336.79671869999993,None,336.79671869999993,None,336.79671869999993,None,k,1,0.4925409999996191,336.79671869999993,None,,,,,,,,,,,,,5,001,2022_Aug_07_1653,Flanker,2021.2.0,239.50202738476438,
neutral right,0,k,neutral.png,neutral.png,neutral.png,right_arrow.png,neutral.png,neutral.png,neutral.png,,,,,,,,,,,,,7,1,43,5,,,,,337.3056572999999,None,,,,,,,,,,,,,,,,,,,,,,,,,,,,,,338.3148022999999,None,338.3148022999999,None,338.3148022999999,None,338.3148022999999,None,338.3148022999999,None,338.3148022999999,None,338.3148022999999,None,k,1,0.3909500999998272,338.3148022999999,None,,,,,,,,,,,,,5,001,2022_Aug_07_1653,Flanker,2021.2.0,239.50202738476438,
neutral right,0,k,neutral.png,neutral.png,neutral.png,right_arrow.png,neutral.png,neutral.png,neutral.png,,,,,,,,,,,,,7,2,44,5,,,,,338.72358159999976,None,,,,,,,,,,,,,,,,,,,,,,,,,,,,,,339.7372959999998,None,339.7372959999998,None,339.7372959999998,None,339.7372959999998,None,339.7372959999998,None,339.7372959999998,None,339.7372959999998,None,k,1,0.3763377000004766,339.7372959999998,None,,,,,,,,,,,,,5,001,2022_Aug_07_1653,Flanker,2021.2.0,239.50202738476438,
neutral right,0,k,neutral.png,neutral.png,neutral.png,right_arrow.png,neutral.png,neutral.png,neutral.png,,,,,,,,,,,,,7,3,45,5,,,,,340.12929940000004,None,,,,,,,,,,,,,,,,,,,,,,,,,,,,,,341.13817100000006,None,341.13817100000006,None,341.13817100000006,None,341.13817100000006,None,341.13817100000006,None,341.13817100000006,None,341.13817100000006,None,k,1,0.37565970000014204,341.13817100000006,None,,,,,,,,,,,,,5,001,2022_Aug_07_1653,Flanker,2021.2.0,239.50202738476438,
congruent-left.jpg,1,a,left_arrow.png,left_arrow.png,left_arrow.png,left_arrow.png,left_arrow.png,left_arrow.png,left_arrow.png,,,,,,,,,,,,,7,4,46,0,,,,,341.5307069000005,None,,,,,,,,,,,,,,,,,,,,,,,,,,,,,,342.5445053999997,None,342.5445053999997,None,342.5445053999997,None,342.5445053999997,None,342.5445053999997,None,342.5445053999997,None,342.5445053999997,None,a,1,0.36949810000078287,342.5445053999997,None,,,,,,,,,,,,,5,001,2022_Aug_07_1653,Flanker,2021.2.0,239.50202738476438,
neutral left,0,a,neutral.png,neutral.png,neutral.png,left_arrow.png,neutral.png,neutral.png,neutral.png,,,,,,,,,,,,,7,5,47,4,,,,,342.92808560000003,None,,,,,,,,,,,,,,,,,,,,,,,,,,,,,,343.94159360000003,None,343.94159360000003,None,343.94159360000003,None,343.94159360000003,None,343.94159360000003,None,343.94159360000003,None,343.94159360000003,None,a,1,0.3327310000004218,343.94159360000003,None,,,,,,,,,,,,,5,001,2022_Aug_07_1653,Flanker,2021.2.0,239.50202738476438,
,,,,,,,,,,,,,,,,,,,,,,,,,,,,,,,,,,,,,,,,,,,,,,,,,,,,,,,,,,,,,,,,,,,,,,,,,,,,,,,,344.3003726000002,None,space,6.254989699999896,344.3003726000002,None,,,,,,,5,001,2022_Aug_07_1653,Flanker,2021.2.0,239.50202738476438,
,,,,,,,,,,,,,,,,,,,,,,,,,,,,,,,,,,,,,,,,,,,,,,,,,,,,,,,,,,,,,,,,,,,,,,,,,,,,,,,,,,,,,,350.5737954000001,None,space,9.958554100000583,350.5737954000001,None,5,001,2022_Aug_07_1653,Flanker,2021.2.0,239.50202738476438,
