images,congruentcy,corrAns,arrow_1,arrow_2,arrow_3,target,arrow_5,arrow_6,arrow_7,practice.thisRepN,practice.thisTrialN,practice.thisN,practice.thisIndex,trials.thisRepN,trials.thisTrialN,trials.thisN,trials.thisIndex,trials_2.thisRepN,trials_2.thisTrialN,trials_2.thisN,trials_2.thisIndex,trials_3.thisRepN,trials_3.thisTrialN,trials_3.thisN,trials_3.thisIndex,instr_text.started,instr_text.stopped,instr_resp.keys,instr_resp.rt,polygon.started,polygon.stopped,arrow1_.started,arrow1_.stopped,arrow2_.started,arrow2_.stopped,arrow3_.started,arrow3_.stopped,target_p.started,target_p.stopped,arrow5_.started,arrow5_.stopped,arrow6_.started,arrow6_.stopped,arrow7_.started,arrow7_.stopped,key_resp_P.keys,key_resp_P.corr,key_resp_P.rt,key_resp_P.started,key_resp_P.stopped,text_2.started,text_2.stopped,text_3.started,text_3.stopped,text_4.started,text_4.stopped,key_resp_2.keys,key_resp_2.rt,key_resp_2.started,key_resp_2.stopped,arrow1.started,arrow1.stopped,arrow2.started,arrow2.stopped,arrow3.started,arrow3.stopped,target_t.started,target_t.stopped,arrow5.started,arrow5.stopped,arrow6.started,arrow6.stopped,arrow7.started,arrow7.stopped,key_resp.keys,key_resp.corr,key_resp.rt,key_resp.started,key_resp.stopped,text_5.started,text_5.stopped,key_resp_3.keys,key_resp_3.rt,key_resp_3.started,key_resp_3.stopped,text_6.started,text_6.stopped,key_resp_4.keys,key_resp_4.rt,key_resp_4.started,key_resp_4.stopped,participant,session,date,expName,psychopyVersion,frameRate,
,,,,,,,,,,,,,,,,,,,,,,,,,,9.20358800003305,None,space,13.647523999912664,,,,,,,,,,,,,,,,,,,,,,,,,,,,,,,,,,,,,,,,,,,,,,,,,,,,,,,,,,,,,,,6,001,2022_Sep_23_1137,Flanker,2021.2.0,239.71330316211936,
neutral right,0,k,neutral.png,neutral.png,neutral.png,right_arrow.png,neutral.png,neutral.png,neutral.png,0,0,0,5,,,,,,,,,,,,,,,,,22.885275800013915,None,23.91929200012237,None,23.91929200012237,None,23.91929200012237,None,23.91929200012237,None,23.91929200012237,None,23.91929200012237,None,23.91929200012237,None,k,1,0.6277137999422848,23.91929200012237,None,24.574134499998763,None,,,,,,,,,,,,,,,,,,,,,,,,,,,,,,,,,,,,,,,,6,001,2022_Sep_23_1137,Flanker,2021.2.0,239.71330316211936,
neutral left,0,a,neutral.png,neutral.png,neutral.png,left_arrow.png,neutral.png,neutral.png,neutral.png,0,1,1,4,,,,,,,,,,,,,,,,,26.071637800196186,None,27.07662510010414,None,27.07662510010414,None,27.07662510010414,None,27.07662510010414,None,27.07662510010414,None,27.07662510010414,None,27.07662510010414,None,a,1,1.3511713000480086,27.07662510010414,None,28.4448005000595,None,,,,,,,,,,,,,,,,,,,,,,,,,,,,,,,,,,,,,,,,6,001,2022_Sep_23_1137,Flanker,2021.2.0,239.71330316211936,
congruent-left.jpg,1,a,left_arrow.png,left_arrow.png,left_arrow.png,left_arrow.png,left_arrow.png,left_arrow.png,left_arrow.png,0,2,2,0,,,,,,,,,,,,,,,,,29.946500800084323,None,30.9559239000082,None,30.9559239000082,None,30.9559239000082,None,30.9559239000082,None,30.9559239000082,None,30.9559239000082,None,30.9559239000082,None,a,1,1.2480905998963863,30.9559239000082,None,32.21530030015856,None,,,,,,,,,,,,,,,,,,,,,,,,,,,,,,,,,,,,,,,,6,001,2022_Sep_23_1137,Flanker,2021.2.0,239.71330316211936,
neutral left,0,a,neutral.png,neutral.png,neutral.png,left_arrow.png,neutral.png,neutral.png,neutral.png,0,3,3,4,,,,,,,,,,,,,,,,,33.72107180021703,None,34.730459599988535,None,34.730459599988535,None,34.730459599988535,None,34.730459599988535,None,34.730459599988535,None,34.730459599988535,None,34.730459599988535,None,a,1,0.6662753000855446,34.730459599988535,None,35.41452890005894,None,,,,,,,,,,,,,,,,,,,,,,,,,,,,,,,,,,,,,,,,6,001,2022_Sep_23_1137,Flanker,2021.2.0,239.71330316211936,
neutral left,0,a,neutral.png,neutral.png,neutral.png,left_arrow.png,neutral.png,neutral.png,neutral.png,0,4,4,4,,,,,,,,,,,,,,,,,36.91611960018054,None,37.925724800210446,None,37.925724800210446,None,37.925724800210446,None,37.925724800210446,None,37.925724800210446,None,37.925724800210446,None,37.925724800210446,None,a,1,1.5112785999663174,37.925724800210446,None,39.45212520007044,None,,,,,,,,,,,,,,,,,,,,,,,,,,,,,,,,,,,,,,,,6,001,2022_Sep_23_1137,Flanker,2021.2.0,239.71330316211936,
congruent-right.jpg,1,k,right_arrow.png,right_arrow.png,right_arrow.png,right_arrow.png,right_arrow.png,right_arrow.png,right_arrow.png,0,5,5,2,,,,,,,,,,,,,,,,,40.95398290012963,None,41.96311290003359,None,41.96311290003359,None,41.96311290003359,None,41.96311290003359,None,41.96311290003359,None,41.96311290003359,None,41.96311290003359,None,k,1,0.834339699940756,41.96311290003359,None,42.81404720013961,None,,,,,,,,,,,,,,,,,,,,,,,,,,,,,,,,,,,,,,,,6,001,2022_Sep_23_1137,Flanker,2021.2.0,239.71330316211936,
congruent-right.jpg,1,k,right_arrow.png,right_arrow.png,right_arrow.png,right_arrow.png,right_arrow.png,right_arrow.png,right_arrow.png,1,0,6,2,,,,,,,,,,,,,,,,,44.32004490005784,None,45.329177300212905,None,45.329177300212905,None,45.329177300212905,None,45.329177300212905,None,45.329177300212905,None,45.329177300212905,None,45.329177300212905,None,k,1,0.6527052999008447,45.329177300212905,None,45.99654359999113,None,,,,,,,,,,,,,,,,,,,,,,,,,,,,,,,,,,,,,,,,6,001,2022_Sep_23_1137,Flanker,2021.2.0,239.71330316211936,
neutral right,0,k,neutral.png,neutral.png,neutral.png,right_arrow.png,neutral.png,neutral.png,neutral.png,1,1,7,5,,,,,,,,,,,,,,,,,47.498429500032216,None,48.51198000018485,None,48.51198000018485,None,48.51198000018485,None,48.51198000018485,None,48.51198000018485,None,48.51198000018485,None,48.51198000018485,None,k,1,1.0703357001766562,48.51198000018485,None,49.596194999990985,None,,,,,,,,,,,,,,,,,,,,,,,,,,,,,,,,,,,,,,,,6,001,2022_Sep_23_1137,Flanker,2021.2.0,239.71330316211936,
incongruent-right.jpg,0,k,left_arrow.png,left_arrow.png,left_arrow.png,right_arrow.png,left_arrow.png,left_arrow.png,left_arrow.png,1,2,8,3,,,,,,,,,,,,,,,,,51.10226400010288,None,52.107651700032875,None,52.107651700032875,None,52.107651700032875,None,52.107651700032875,None,52.107651700032875,None,52.107651700032875,None,52.107651700032875,None,k,1,2.515320200007409,52.107651700032875,None,54.63486970006488,None,,,,,,,,,,,,,,,,,,,,,,,,,,,,,,,,,,,,,,,,6,001,2022_Sep_23_1137,Flanker,2021.2.0,239.71330316211936,
incongruent-right.jpg,0,k,left_arrow.png,left_arrow.png,left_arrow.png,right_arrow.png,left_arrow.png,left_arrow.png,left_arrow.png,1,3,9,3,,,,,,,,,,,,,,,,,56.136451800120994,None,57.14583649998531,None,57.14583649998531,None,57.14583649998531,None,57.14583649998531,None,57.14583649998531,None,57.14583649998531,None,57.14583649998531,None,k,1,0.9976131999865174,57.14583649998531,None,58.15524280001409,None,,,,,,,,,,,,,,,,,,,,,,,,,,,,,,,,,,,,,,,,6,001,2022_Sep_23_1137,Flanker,2021.2.0,239.71330316211936,
incongruent-left.jpg,0,a,right_arrow.png,right_arrow.png,right_arrow.png,left_arrow.png,right_arrow.png,right_arrow.png,right_arrow.png,1,4,10,1,,,,,,,,,,,,,,,,,59.65684840013273,None,60.666241800179705,None,60.666241800179705,None,60.666241800179705,None,60.666241800179705,None,60.666241800179705,None,60.666241800179705,None,60.666241800179705,None,a,1,0.8378094001673162,60.666241800179705,None,61.51735860016197,None,,,,,,,,,,,,,,,,,,,,,,,,,,,,,,,,,,,,,,,,6,001,2022_Sep_23_1137,Flanker,2021.2.0,239.71330316211936,
congruent-left.jpg,1,a,left_arrow.png,left_arrow.png,left_arrow.png,left_arrow.png,left_arrow.png,left_arrow.png,left_arrow.png,1,5,11,0,,,,,,,,,,,,,,,,,63.02289350004867,None,64.02838690020144,None,64.02838690020144,None,64.02838690020144,None,64.02838690020144,None,64.02838690020144,None,64.02838690020144,None,64.02838690020144,None,a,1,0.9242366999387741,64.02838690020144,None,64.97078580013476,None,,,,,,,,,,,,,,,,,,,,,,,,,,,,,,,,,,,,,,,,6,001,2022_Sep_23_1137,Flanker,2021.2.0,239.71330316211936,
incongruent-left.jpg,0,a,right_arrow.png,right_arrow.png,right_arrow.png,left_arrow.png,right_arrow.png,right_arrow.png,right_arrow.png,2,0,12,1,,,,,,,,,,,,,,,,,66.47680120007135,None,67.4817914001178,None,67.4817914001178,None,67.4817914001178,None,67.4817914001178,None,67.4817914001178,None,67.4817914001178,None,67.4817914001178,None,a,1,0.991337499814108,67.4817914001178,None,68.49125710013323,None,,,,,,,,,,,,,,,,,,,,,,,,,,,,,,,,,,,,,,,,6,001,2022_Sep_23_1137,Flanker,2021.2.0,239.71330316211936,
neutral right,0,k,neutral.png,neutral.png,neutral.png,right_arrow.png,neutral.png,neutral.png,neutral.png,2,1,13,5,,,,,,,,,,,,,,,,,69.997168000089,None,71.00635110004805,None,71.00635110004805,None,71.00635110004805,None,71.00635110004805,None,71.00635110004805,None,71.00635110004805,None,71.00635110004805,None,k,1,0.7869654998648912,71.00635110004805,None,71.80728030018508,None,,,,,,,,,,,,,,,,,,,,,,,,,,,,,,,,,,,,,,,,6,001,2022_Sep_23_1137,Flanker,2021.2.0,239.71330316211936,
congruent-right.jpg,1,k,right_arrow.png,right_arrow.png,right_arrow.png,right_arrow.png,right_arrow.png,right_arrow.png,right_arrow.png,2,2,14,2,,,,,,,,,,,,,,,,,73.3132576001808,None,74.31846620002761,None,74.31846620002761,None,74.31846620002761,None,74.31846620002761,None,74.31846620002761,None,74.31846620002761,None,74.31846620002761,None,k,1,0.7712690001353621,74.31846620002761,None,75.10242980020121,None,,,,,,,,,,,,,,,,,,,,,,,,,,,,,,,,,,,,,,,,6,001,2022_Sep_23_1137,Flanker,2021.2.0,239.71330316211936,
incongruent-right.jpg,0,k,left_arrow.png,left_arrow.png,left_arrow.png,right_arrow.png,left_arrow.png,left_arrow.png,left_arrow.png,2,3,15,3,,,,,,,,,,,,,,,,,76.60812510014512,None,77.61777350003831,None,77.61777350003831,None,77.61777350003831,None,77.61777350003831,None,77.61777350003831,None,77.61777350003831,None,77.61777350003831,None,k,1,0.7604237000923604,77.61777350003831,None,78.3933256000746,None,,,,,,,,,,,,,,,,,,,,,,,,,,,,,,,,,,,,,,,,6,001,2022_Sep_23_1137,Flanker,2021.2.0,239.71330316211936,
incongruent-left.jpg,0,a,right_arrow.png,right_arrow.png,right_arrow.png,left_arrow.png,right_arrow.png,right_arrow.png,right_arrow.png,2,4,16,1,,,,,,,,,,,,,,,,,79.89908680017106,None,80.9043229999952,None,80.9043229999952,None,80.9043229999952,None,80.9043229999952,None,80.9043229999952,None,80.9043229999952,None,80.9043229999952,None,a,1,0.6505726999603212,80.9043229999952,None,81.56765940017067,None,,,,,,,,,,,,,,,,,,,,,,,,,,,,,,,,,,,,,,,,6,001,2022_Sep_23_1137,Flanker,2021.2.0,239.71330316211936,
neutral right,0,k,neutral.png,neutral.png,neutral.png,right_arrow.png,neutral.png,neutral.png,neutral.png,2,5,17,5,,,,,,,,,,,,,,,,,83.07355050020851,None,84.08685120008886,None,84.08685120008886,None,84.08685120008886,None,84.08685120008886,None,84.08685120008886,None,84.08685120008886,None,84.08685120008886,None,k,1,0.644237200031057,84.08685120008886,None,84.74589630006813,None,,,,,,,,,,,,,,,,,,,,,,,,,,,,,,,,,,,,,,,,6,001,2022_Sep_23_1137,Flanker,2021.2.0,239.71330316211936,
congruent-left.jpg,1,a,left_arrow.png,left_arrow.png,left_arrow.png,left_arrow.png,left_arrow.png,left_arrow.png,left_arrow.png,3,0,18,0,,,,,,,,,,,,,,,,,86.24748400016688,None,87.26108100009151,None,87.26108100009151,None,87.26108100009151,None,87.26108100009151,None,87.26108100009151,None,87.26108100009151,None,87.26108100009151,None,a,1,1.0864434998948127,87.26108100009151,None,88.36229850002564,None,,,,,,,,,,,,,,,,,,,,,,,,,,,,,,,,,,,,,,,,6,001,2022_Sep_23_1137,Flanker,2021.2.0,239.71330316211936,
congruent-right.jpg,1,k,right_arrow.png,right_arrow.png,right_arrow.png,right_arrow.png,right_arrow.png,right_arrow.png,right_arrow.png,3,1,19,2,,,,,,,,,,,,,,,,,89.86405950016342,None,90.87320280005224,None,90.87320280005224,None,90.87320280005224,None,90.87320280005224,None,90.87320280005224,None,90.87320280005224,None,90.87320280005224,None,k,1,0.6507339000236243,90.87320280005224,None,91.54057439998724,None,,,,,,,,,,,,,,,,,,,,,,,,,,,,,,,,,,,,,,,,6,001,2022_Sep_23_1137,Flanker,2021.2.0,239.71330316211936,
incongruent-left.jpg,0,a,right_arrow.png,right_arrow.png,right_arrow.png,left_arrow.png,right_arrow.png,right_arrow.png,right_arrow.png,3,2,20,1,,,,,,,,,,,,,,,,,93.04684990015812,None,94.05185360019095,None,94.05185360019095,None,94.05185360019095,None,94.05185360019095,None,94.05185360019095,None,94.05185360019095,None,94.05185360019095,None,a,1,0.6725125000812113,94.05185360019095,None,94.74395929998718,None,,,,,,,,,,,,,,,,,,,,,,,,,,,,,,,,,,,,,,,,6,001,2022_Sep_23_1137,Flanker,2021.2.0,239.71330316211936,
incongruent-right.jpg,0,k,left_arrow.png,left_arrow.png,left_arrow.png,right_arrow.png,left_arrow.png,left_arrow.png,left_arrow.png,3,3,21,3,,,,,,,,,,,,,,,,,96.2458612001501,None,97.2549435000401,None,97.2549435000401,None,97.2549435000401,None,97.2549435000401,None,97.2549435000401,None,97.2549435000401,None,97.2549435000401,None,k,1,0.7818419001996517,97.2549435000401,None,98.0474536002148,None,,,,,,,,,,,,,,,,,,,,,,,,,,,,,,,,,,,,,,,,6,001,2022_Sep_23_1137,Flanker,2021.2.0,239.71330316211936,
congruent-left.jpg,1,a,left_arrow.png,left_arrow.png,left_arrow.png,left_arrow.png,left_arrow.png,left_arrow.png,left_arrow.png,3,4,22,0,,,,,,,,,,,,,,,,,99.55321570020169,None,100.56294680014253,None,100.56294680014253,None,100.56294680014253,None,100.56294680014253,None,100.56294680014253,None,100.56294680014253,None,100.56294680014253,None,a,1,0.5542741999961436,100.56294680014253,None,101.1298853000626,None,,,,,,,,,,,,,,,,,,,,,,,,,,,,,,,,,,,,,,,,6,001,2022_Sep_23_1137,Flanker,2021.2.0,239.71330316211936,
neutral left,0,a,neutral.png,neutral.png,neutral.png,left_arrow.png,neutral.png,neutral.png,neutral.png,3,5,23,4,,,,,,,,,,,,,,,,,102.63594400021248,None,103.64504390000366,None,103.64504390000366,None,103.64504390000366,None,103.64504390000366,None,103.64504390000366,None,103.64504390000366,None,103.64504390000366,None,a,1,0.6088368999771774,103.64504390000366,None,104.270912400214,None,,,,,,,,,,,,,,,,,,,,,,,,,,,,,,,,,,,,,,,,6,001,2022_Sep_23_1137,Flanker,2021.2.0,239.71330316211936,
,,,,,,,,,,,,,,,,,,,,,,,,,,,,,,,,,,,,,,,,,,,,,,,,,,,,,105.79316030000336,None,107.77859650016762,None,space,1.2836567999329418,107.77859650016762,None,,,,,,,,,,,,,,,,,,,,,,,,,,,,,,,,6,001,2022_Sep_23_1137,Flanker,2021.2.0,239.71330316211936,
incongruent-right.jpg,0,k,left_arrow.png,left_arrow.png,left_arrow.png,right_arrow.png,left_arrow.png,left_arrow.png,left_arrow.png,,,,,0,0,0,3,,,,,,,,,,,,,109.08859900012612,None,,,,,,,,,,,,,,,,,,,,,,,,,,,,,,110.09387390012853,None,110.09387390012853,None,110.09387390012853,None,110.09387390012853,None,110.09387390012853,None,110.09387390012853,None,110.09387390012853,None,k,1,1.2168473999481648,110.09387390012853,None,,,,,,,,,,,,,6,001,2022_Sep_23_1137,Flanker,2021.2.0,239.71330316211936,
congruent-right.jpg,1,k,right_arrow.png,right_arrow.png,right_arrow.png,right_arrow.png,right_arrow.png,right_arrow.png,right_arrow.png,,,,,0,1,1,2,,,,,,,,,,,,,111.32846560003236,None,,,,,,,,,,,,,,,,,,,,,,,,,,,,,,112.34608410019428,None,112.34608410019428,None,112.34608410019428,None,112.34608410019428,None,112.34608410019428,None,112.34608410019428,None,112.34608410019428,None,k,1,0.756749700056389,112.34608410019428,None,,,,,,,,,,,,,6,001,2022_Sep_23_1137,Flanker,2021.2.0,239.71330316211936,
congruent-right.jpg,1,k,right_arrow.png,right_arrow.png,right_arrow.png,right_arrow.png,right_arrow.png,right_arrow.png,right_arrow.png,,,,,0,2,2,2,,,,,,,,,,,,,113.12204420007765,None,,,,,,,,,,,,,,,,,,,,,,,,,,,,,,114.13131910003722,None,114.13131910003722,None,114.13131910003722,None,114.13131910003722,None,114.13131910003722,None,114.13131910003722,None,114.13131910003722,None,k,1,0.4759986000135541,114.13131910003722,None,,,,,,,,,,,,,6,001,2022_Sep_23_1137,Flanker,2021.2.0,239.71330316211936,
neutral left,0,a,neutral.png,neutral.png,neutral.png,left_arrow.png,neutral.png,neutral.png,neutral.png,,,,,0,3,3,4,,,,,,,,,,,,,114.62369810021482,None,,,,,,,,,,,,,,,,,,,,,,,,,,,,,,115.64134770003147,None,115.64134770003147,None,115.64134770003147,None,115.64134770003147,None,115.64134770003147,None,115.64134770003147,None,115.64134770003147,None,a,1,0.4778960000257939,115.64134770003147,None,,,,,,,,,,,,,6,001,2022_Sep_23_1137,Flanker,2021.2.0,239.71330316211936,
incongruent-right.jpg,0,k,left_arrow.png,left_arrow.png,left_arrow.png,right_arrow.png,left_arrow.png,left_arrow.png,left_arrow.png,,,,,0,4,4,3,,,,,,,,,,,,,116.13325230008923,None,,,,,,,,,,,,,,,,,,,,,,,,,,,,,,117.14268040005118,None,117.14268040005118,None,117.14268040005118,None,117.14268040005118,None,117.14268040005118,None,117.14268040005118,None,117.14268040005118,None,k,1,0.5451324998866767,117.14268040005118,None,,,,,,,,,,,,,6,001,2022_Sep_23_1137,Flanker,2021.2.0,239.71330316211936,
neutral left,0,a,neutral.png,neutral.png,neutral.png,left_arrow.png,neutral.png,neutral.png,neutral.png,,,,,0,5,5,4,,,,,,,,,,,,,117.70159070007503,None,,,,,,,,,,,,,,,,,,,,,,,,,,,,,,118.71128530008718,None,118.71128530008718,None,118.71128530008718,None,118.71128530008718,None,118.71128530008718,None,118.71128530008718,None,118.71128530008718,None,a,1,0.5443719001486897,118.71128530008718,None,,,,,,,,,,,,,6,001,2022_Sep_23_1137,Flanker,2021.2.0,239.71330316211936,
congruent-left.jpg,1,a,left_arrow.png,left_arrow.png,left_arrow.png,left_arrow.png,left_arrow.png,left_arrow.png,left_arrow.png,,,,,1,0,6,0,,,,,,,,,,,,,119.27015720005147,None,,,,,,,,,,,,,,,,,,,,,,,,,,,,,,120.28349310019985,None,120.28349310019985,None,120.28349310019985,None,120.28349310019985,None,120.28349310019985,None,120.28349310019985,None,120.28349310019985,None,a,1,0.7006132998503745,120.28349310019985,None,,,,,,,,,,,,,6,001,2022_Sep_23_1137,Flanker,2021.2.0,239.71330316211936,
incongruent-right.jpg,0,k,left_arrow.png,left_arrow.png,left_arrow.png,right_arrow.png,left_arrow.png,left_arrow.png,left_arrow.png,,,,,1,1,7,3,,,,,,,,,,,,,121.0009171999991,None,,,,,,,,,,,,,,,,,,,,,,,,,,,,,,122.0144954000134,None,122.0144954000134,None,122.0144954000134,None,122.0144954000134,None,122.0144954000134,None,122.0144954000134,None,122.0144954000134,None,k,1,0.5295856997836381,122.0144954000134,None,,,,,,,,,,,,,6,001,2022_Sep_23_1137,Flanker,2021.2.0,239.71330316211936,
neutral right,0,k,neutral.png,neutral.png,neutral.png,right_arrow.png,neutral.png,neutral.png,neutral.png,,,,,1,2,8,5,,,,,,,,,,,,,122.55672910017893,None,,,,,,,,,,,,,,,,,,,,,,,,,,,,,,123.56615260010585,None,123.56615260010585,None,123.56615260010585,None,123.56615260010585,None,123.56615260010585,None,123.56615260010585,None,123.56615260010585,None,k,1,0.6181262999307364,123.56615260010585,None,,,,,,,,,,,,,6,001,2022_Sep_23_1137,Flanker,2021.2.0,239.71330316211936,
congruent-left.jpg,1,a,left_arrow.png,left_arrow.png,left_arrow.png,left_arrow.png,left_arrow.png,left_arrow.png,left_arrow.png,,,,,1,3,9,0,,,,,,,,,,,,,124.20046640001237,None,,,,,,,,,,,,,,,,,,,,,,,,,,,,,,125.20952989999205,None,125.20952989999205,None,125.20952989999205,None,125.20952989999205,None,125.20952989999205,None,125.20952989999205,None,125.20952989999205,None,a,1,0.5509783998131752,125.20952989999205,None,,,,,,,,,,,,,6,001,2022_Sep_23_1137,Flanker,2021.2.0,239.71330316211936,
neutral right,0,k,neutral.png,neutral.png,neutral.png,right_arrow.png,neutral.png,neutral.png,neutral.png,,,,,1,4,10,5,,,,,,,,,,,,,125.77681539999321,None,,,,,,,,,,,,,,,,,,,,,,,,,,,,,,126.7903673001565,None,126.7903673001565,None,126.7903673001565,None,126.7903673001565,None,126.7903673001565,None,126.7903673001565,None,126.7903673001565,None,a,0,0.6983893001452088,126.7903673001565,None,,,,,,,,,,,,,6,001,2022_Sep_23_1137,Flanker,2021.2.0,239.71330316211936,
congruent-right.jpg,1,k,right_arrow.png,right_arrow.png,right_arrow.png,right_arrow.png,right_arrow.png,right_arrow.png,right_arrow.png,,,,,1,5,11,2,,,,,,,,,,,,,127.50805800012313,None,,,,,,,,,,,,,,,,,,,,,,,,,,,,,,128.5177233000286,None,128.5177233000286,None,128.5177233000286,None,128.5177233000286,None,128.5177233000286,None,128.5177233000286,None,128.5177233000286,None,k,1,0.6915244001429528,128.5177233000286,None,,,,,,,,,,,,,6,001,2022_Sep_23_1137,Flanker,2021.2.0,239.71330316211936,
congruent-right.jpg,1,k,right_arrow.png,right_arrow.png,right_arrow.png,right_arrow.png,right_arrow.png,right_arrow.png,right_arrow.png,,,,,2,0,12,2,,,,,,,,,,,,,129.22630540002137,None,,,,,,,,,,,,,,,,,,,,,,,,,,,,,,130.23585540009663,None,130.23585540009663,None,130.23585540009663,None,130.23585540009663,None,130.23585540009663,None,130.23585540009663,None,130.23585540009663,None,k,1,0.4775024999398738,130.23585540009663,None,,,,,,,,,,,,,6,001,2022_Sep_23_1137,Flanker,2021.2.0,239.71330316211936,
neutral left,0,a,neutral.png,neutral.png,neutral.png,left_arrow.png,neutral.png,neutral.png,neutral.png,,,,,2,1,13,4,,,,,,,,,,,,,130.72789300000295,None,,,,,,,,,,,,,,,,,,,,,,,,,,,,,,131.7457388001494,None,131.7457388001494,None,131.7457388001494,None,131.7457388001494,None,131.7457388001494,None,131.7457388001494,None,131.7457388001494,None,a,1,0.4636174999177456,131.7457388001494,None,,,,,,,,,,,,,6,001,2022_Sep_23_1137,Flanker,2021.2.0,239.71330316211936,
neutral left,0,a,neutral.png,neutral.png,neutral.png,left_arrow.png,neutral.png,neutral.png,neutral.png,,,,,2,2,14,4,,,,,,,,,,,,,132.2211575000547,None,,,,,,,,,,,,,,,,,,,,,,,,,,,,,,133.23485820018686,None,133.23485820018686,None,133.23485820018686,None,133.23485820018686,None,133.23485820018686,None,133.23485820018686,None,133.23485820018686,None,a,1,0.5427526000421494,133.23485820018686,None,,,,,,,,,,,,,6,001,2022_Sep_23_1137,Flanker,2021.2.0,239.71330316211936,
congruent-right.jpg,1,k,right_arrow.png,right_arrow.png,right_arrow.png,right_arrow.png,right_arrow.png,right_arrow.png,right_arrow.png,,,,,2,3,15,2,,,,,,,,,,,,,133.79365480015986,None,,,,,,,,,,,,,,,,,,,,,,,,,,,,,,134.80304610007443,None,134.80304610007443,None,134.80304610007443,None,134.80304610007443,None,134.80304610007443,None,134.80304610007443,None,134.80304610007443,None,k,1,0.5427773999981582,134.80304610007443,None,,,,,,,,,,,,,6,001,2022_Sep_23_1137,Flanker,2021.2.0,239.71330316211936,
incongruent-left.jpg,0,a,right_arrow.png,right_arrow.png,right_arrow.png,left_arrow.png,right_arrow.png,right_arrow.png,right_arrow.png,,,,,2,4,16,1,,,,,,,,,,,,,135.36197750014253,None,,,,,,,,,,,,,,,,,,,,,,,,,,,,,,136.37555170012638,None,136.37555170012638,None,136.37555170012638,None,136.37555170012638,None,136.37555170012638,None,136.37555170012638,None,136.37555170012638,None,a,1,0.5864665999542922,136.37555170012638,None,,,,,,,,,,,,,6,001,2022_Sep_23_1137,Flanker,2021.2.0,239.71330316211936,
congruent-left.jpg,1,a,left_arrow.png,left_arrow.png,left_arrow.png,left_arrow.png,left_arrow.png,left_arrow.png,left_arrow.png,,,,,2,5,17,0,,,,,,,,,,,,,136.97653340012766,None,,,,,,,,,,,,,,,,,,,,,,,,,,,,,,137.98590120021254,None,137.98590120021254,None,137.98590120021254,None,137.98590120021254,None,137.98590120021254,None,137.98590120021254,None,137.98590120021254,None,a,1,0.47230780008248985,137.98590120021254,None,,,,,,,,,,,,,6,001,2022_Sep_23_1137,Flanker,2021.2.0,239.71330316211936,
neutral left,0,a,neutral.png,neutral.png,neutral.png,left_arrow.png,neutral.png,neutral.png,neutral.png,,,,,3,0,18,4,,,,,,,,,,,,,138.47784669999965,None,,,,,,,,,,,,,,,,,,,,,,,,,,,,,,139.49141530017368,None,139.49141530017368,None,139.49141530017368,None,139.49141530017368,None,139.49141530017368,None,139.49141530017368,None,139.49141530017368,None,a,1,0.41528120008297265,139.49141530017368,None,,,,,,,,,,,,,6,001,2022_Sep_23_1137,Flanker,2021.2.0,239.71330316211936,
incongruent-right.jpg,0,k,left_arrow.png,left_arrow.png,left_arrow.png,right_arrow.png,left_arrow.png,left_arrow.png,left_arrow.png,,,,,3,1,19,3,,,,,,,,,,,,,139.92514130007476,None,,,,,,,,,,,,,,,,,,,,,,,,,,,,,,140.93870350020006,None,140.93870350020006,None,140.93870350020006,None,140.93870350020006,None,140.93870350020006,None,140.93870350020006,None,140.93870350020006,None,k,1,0.4718822999857366,140.93870350020006,None,,,,,,,,,,,,,6,001,2022_Sep_23_1137,Flanker,2021.2.0,239.71330316211936,
congruent-right.jpg,1,k,right_arrow.png,right_arrow.png,right_arrow.png,right_arrow.png,right_arrow.png,right_arrow.png,right_arrow.png,,,,,3,2,20,2,,,,,,,,,,,,,141.42256060009822,None,,,,,,,,,,,,,,,,,,,,,,,,,,,,,,142.4320052000694,None,142.4320052000694,None,142.4320052000694,None,142.4320052000694,None,142.4320052000694,None,142.4320052000694,None,142.4320052000694,None,k,1,0.514819499803707,142.4320052000694,None,,,,,,,,,,,,,6,001,2022_Sep_23_1137,Flanker,2021.2.0,239.71330316211936,
incongruent-left.jpg,0,a,right_arrow.png,right_arrow.png,right_arrow.png,left_arrow.png,right_arrow.png,right_arrow.png,right_arrow.png,,,,,3,3,21,1,,,,,,,,,,,,,142.95755640021525,None,,,,,,,,,,,,,,,,,,,,,,,,,,,,,,143.9669338001404,None,143.9669338001404,None,143.9669338001404,None,143.9669338001404,None,143.9669338001404,None,143.9669338001404,None,143.9669338001404,None,a,1,0.40417409990914166,143.9669338001404,None,,,,,,,,,,,,,6,001,2022_Sep_23_1137,Flanker,2021.2.0,239.71330316211936,
incongruent-right.jpg,0,k,left_arrow.png,left_arrow.png,left_arrow.png,right_arrow.png,left_arrow.png,left_arrow.png,left_arrow.png,,,,,3,4,22,3,,,,,,,,,,,,,144.38402480003424,None,,,,,,,,,,,,,,,,,,,,,,,,,,,,,,145.3935754999984,None,145.3935754999984,None,145.3935754999984,None,145.3935754999984,None,145.3935754999984,None,145.3935754999984,None,145.3935754999984,None,k,1,0.4659084000159055,145.3935754999984,None,,,,,,,,,,,,,6,001,2022_Sep_23_1137,Flanker,2021.2.0,239.71330316211936,
congruent-right.jpg,1,k,right_arrow.png,right_arrow.png,right_arrow.png,right_arrow.png,right_arrow.png,right_arrow.png,right_arrow.png,,,,,3,5,23,2,,,,,,,,,,,,,145.87726330012083,None,,,,,,,,,,,,,,,,,,,,,,,,,,,,,,146.88677820004523,None,146.88677820004523,None,146.88677820004523,None,146.88677820004523,None,146.88677820004523,None,146.88677820004523,None,146.88677820004523,None,k,1,0.40458750003017485,146.88677820004523,None,,,,,,,,,,,,,6,001,2022_Sep_23_1137,Flanker,2021.2.0,239.71330316211936,
incongruent-left.jpg,0,a,right_arrow.png,right_arrow.png,right_arrow.png,left_arrow.png,right_arrow.png,right_arrow.png,right_arrow.png,,,,,4,0,24,1,,,,,,,,,,,,,147.30415450013243,None,,,,,,,,,,,,,,,,,,,,,,,,,,,,,,148.31749510020018,None,148.31749510020018,None,148.31749510020018,None,148.31749510020018,None,148.31749510020018,None,148.31749510020018,None,148.31749510020018,None,a,1,0.40608139988034964,148.31749510020018,None,,,,,,,,,,,,,6,001,2022_Sep_23_1137,Flanker,2021.2.0,239.71330316211936,
neutral left,0,a,neutral.png,neutral.png,neutral.png,left_arrow.png,neutral.png,neutral.png,neutral.png,,,,,4,1,25,4,,,,,,,,,,,,,148.74295160011388,None,,,,,,,,,,,,,,,,,,,,,,,,,,,,,,149.7525037000887,None,149.7525037000887,None,149.7525037000887,None,149.7525037000887,None,149.7525037000887,None,149.7525037000887,None,149.7525037000887,None,a,1,0.4832884999923408,149.7525037000887,None,,,,,,,,,,,,,6,001,2022_Sep_23_1137,Flanker,2021.2.0,239.71330316211936,
neutral right,0,k,neutral.png,neutral.png,neutral.png,right_arrow.png,neutral.png,neutral.png,neutral.png,,,,,4,2,26,5,,,,,,,,,,,,,150.25272220000625,None,,,,,,,,,,,,,,,,,,,,,,,,,,,,,,151.26232830015942,None,151.26232830015942,None,151.26232830015942,None,151.26232830015942,None,151.26232830015942,None,151.26232830015942,None,151.26232830015942,None,k,1,0.397657300112769,151.26232830015942,None,,,,,,,,,,,,,6,001,2022_Sep_23_1137,Flanker,2021.2.0,239.71330316211936,
incongruent-right.jpg,0,k,left_arrow.png,left_arrow.png,left_arrow.png,right_arrow.png,left_arrow.png,left_arrow.png,left_arrow.png,,,,,4,3,27,3,,,,,,,,,,,,,151.6708947001025,None,,,,,,,,,,,,,,,,,,,,,,,,,,,,,,152.68043740000576,None,152.68043740000576,None,152.68043740000576,None,152.68043740000576,None,152.68043740000576,None,152.68043740000576,None,152.68043740000576,None,k,1,0.38771769986487925,152.68043740000576,None,,,,,,,,,,,,,6,001,2022_Sep_23_1137,Flanker,2021.2.0,239.71330316211936,
congruent-left.jpg,1,a,left_arrow.png,left_arrow.png,left_arrow.png,left_arrow.png,left_arrow.png,left_arrow.png,left_arrow.png,,,,,4,4,28,0,,,,,,,,,,,,,153.0807225999888,None,,,,,,,,,,,,,,,,,,,,,,,,,,,,,,154.0946067001205,None,154.0946067001205,None,154.0946067001205,None,154.0946067001205,None,154.0946067001205,None,154.0946067001205,None,154.0946067001205,None,a,1,0.3897456999402493,154.0946067001205,None,,,,,,,,,,,,,6,001,2022_Sep_23_1137,Flanker,2021.2.0,239.71330316211936,
congruent-left.jpg,1,a,left_arrow.png,left_arrow.png,left_arrow.png,left_arrow.png,left_arrow.png,left_arrow.png,left_arrow.png,,,,,4,5,29,0,,,,,,,,,,,,,154.50332110002637,None,,,,,,,,,,,,,,,,,,,,,,,,,,,,,,155.51261390000582,None,155.51261390000582,None,155.51261390000582,None,155.51261390000582,None,155.51261390000582,None,155.51261390000582,None,155.51261390000582,None,a,1,0.44430279987864196,155.51261390000582,None,,,,,,,,,,,,,6,001,2022_Sep_23_1137,Flanker,2021.2.0,239.71330316211936,
incongruent-left.jpg,0,a,right_arrow.png,right_arrow.png,right_arrow.png,left_arrow.png,right_arrow.png,right_arrow.png,right_arrow.png,,,,,5,0,30,1,,,,,,,,,,,,,155.97128690010868,None,,,,,,,,,,,,,,,,,,,,,,,,,,,,,,156.98510400019586,None,156.98510400019586,None,156.98510400019586,None,156.98510400019586,None,156.98510400019586,None,156.98510400019586,None,156.98510400019586,None,a,1,0.48364550014957786,156.98510400019586,None,,,,,,,,,,,,,6,001,2022_Sep_23_1137,Flanker,2021.2.0,239.71330316211936,
congruent-left.jpg,1,a,left_arrow.png,left_arrow.png,left_arrow.png,left_arrow.png,left_arrow.png,left_arrow.png,left_arrow.png,,,,,5,1,31,0,,,,,,,,,,,,,157.4856883001048,None,,,,,,,,,,,,,,,,,,,,,,,,,,,,,,158.49908530013636,None,158.49908530013636,None,158.49908530013636,None,158.49908530013636,None,158.49908530013636,None,158.49908530013636,None,158.49908530013636,None,a,1,0.4018332997802645,158.49908530013636,None,,,,,,,,,,,,,6,001,2022_Sep_23_1137,Flanker,2021.2.0,239.71330316211936,
incongruent-left.jpg,0,a,right_arrow.png,right_arrow.png,right_arrow.png,left_arrow.png,right_arrow.png,right_arrow.png,right_arrow.png,,,,,5,2,32,1,,,,,,,,,,,,,158.91606810013764,None,,,,,,,,,,,,,,,,,,,,,,,,,,,,,,159.92523300019093,None,159.92523300019093,None,159.92523300019093,None,159.92523300019093,None,159.92523300019093,None,159.92523300019093,None,159.92523300019093,None,a,1,0.38387719984166324,159.92523300019093,None,,,,,,,,,,,,,6,001,2022_Sep_23_1137,Flanker,2021.2.0,239.71330316211936,
neutral right,0,k,neutral.png,neutral.png,neutral.png,right_arrow.png,neutral.png,neutral.png,neutral.png,,,,,5,3,33,5,,,,,,,,,,,,,160.3258966000285,None,,,,,,,,,,,,,,,,,,,,,,,,,,,,,,161.3394696000032,None,161.3394696000032,None,161.3394696000032,None,161.3394696000032,None,161.3394696000032,None,161.3394696000032,None,161.3394696000032,None,k,1,0.41791040007956326,161.3394696000032,None,,,,,,,,,,,,,6,001,2022_Sep_23_1137,Flanker,2021.2.0,239.71330316211936,
neutral right,0,k,neutral.png,neutral.png,neutral.png,right_arrow.png,neutral.png,neutral.png,neutral.png,,,,,5,4,34,5,,,,,,,,,,,,,161.77326200017706,None,,,,,,,,,,,,,,,,,,,,,,,,,,,,,,162.78701460012235,None,162.78701460012235,None,162.78701460012235,None,162.78701460012235,None,162.78701460012235,None,162.78701460012235,None,162.78701460012235,None,k,1,0.3304999000392854,162.78701460012235,None,,,,,,,,,,,,,6,001,2022_Sep_23_1137,Flanker,2021.2.0,239.71330316211936,
congruent-left.jpg,1,a,left_arrow.png,left_arrow.png,left_arrow.png,left_arrow.png,left_arrow.png,left_arrow.png,left_arrow.png,,,,,5,5,35,0,,,,,,,,,,,,,163.12885360000655,None,,,,,,,,,,,,,,,,,,,,,,,,,,,,,,164.14268100005575,None,164.14268100005575,None,164.14268100005575,None,164.14268100005575,None,164.14268100005575,None,164.14268100005575,None,164.14268100005575,None,a,1,0.5832483998965472,164.14268100005575,None,,,,,,,,,,,,,6,001,2022_Sep_23_1137,Flanker,2021.2.0,239.71330316211936,
incongruent-right.jpg,0,k,left_arrow.png,left_arrow.png,left_arrow.png,right_arrow.png,left_arrow.png,left_arrow.png,left_arrow.png,,,,,6,0,36,3,,,,,,,,,,,,,164.74334929999895,None,,,,,,,,,,,,,,,,,,,,,,,,,,,,,,165.7569713999983,None,165.7569713999983,None,165.7569713999983,None,165.7569713999983,None,165.7569713999983,None,165.7569713999983,None,165.7569713999983,None,k,1,0.4410808999091387,165.7569713999983,None,,,,,,,,,,,,,6,001,2022_Sep_23_1137,Flanker,2021.2.0,239.71330316211936,
incongruent-left.jpg,0,a,right_arrow.png,right_arrow.png,right_arrow.png,left_arrow.png,right_arrow.png,right_arrow.png,right_arrow.png,,,,,6,1,37,1,,,,,,,,,,,,,166.2156144999899,None,,,,,,,,,,,,,,,,,,,,,,,,,,,,,,167.22485150001012,None,167.22485150001012,None,167.22485150001012,None,167.22485150001012,None,167.22485150001012,None,167.22485150001012,None,167.22485150001012,None,a,1,0.4212521999143064,167.22485150001012,None,,,,,,,,,,,,,6,001,2022_Sep_23_1137,Flanker,2021.2.0,239.71330316211936,
congruent-right.jpg,1,k,right_arrow.png,right_arrow.png,right_arrow.png,right_arrow.png,right_arrow.png,right_arrow.png,right_arrow.png,,,,,6,2,38,2,,,,,,,,,,,,,167.65872930013575,None,,,,,,,,,,,,,,,,,,,,,,,,,,,,,,168.67237630020827,None,168.67237630020827,None,168.67237630020827,None,168.67237630020827,None,168.67237630020827,None,168.67237630020827,None,168.67237630020827,None,k,1,0.4779594000428915,168.67237630020827,None,,,,,,,,,,,,,6,001,2022_Sep_23_1137,Flanker,2021.2.0,239.71330316211936,
congruent-left.jpg,1,a,left_arrow.png,left_arrow.png,left_arrow.png,left_arrow.png,left_arrow.png,left_arrow.png,left_arrow.png,,,,,6,3,39,0,,,,,,,,,,,,,169.16440830007195,None,,,,,,,,,,,,,,,,,,,,,,,,,,,,,,170.17413440020755,None,170.17413440020755,None,170.17413440020755,None,170.17413440020755,None,170.17413440020755,None,170.17413440020755,None,170.17413440020755,None,a,1,0.33640110003761947,170.17413440020755,None,,,,,,,,,,,,,6,001,2022_Sep_23_1137,Flanker,2021.2.0,239.71330316211936,
incongruent-left.jpg,0,a,right_arrow.png,right_arrow.png,right_arrow.png,left_arrow.png,right_arrow.png,right_arrow.png,right_arrow.png,,,,,6,4,40,1,,,,,,,,,,,,,170.52418250008486,None,,,,,,,,,,,,,,,,,,,,,,,,,,,,,,171.53787000011653,None,171.53787000011653,None,171.53787000011653,None,171.53787000011653,None,171.53787000011653,None,171.53787000011653,None,171.53787000011653,None,a,1,0.39679090003483,171.53787000011653,None,,,,,,,,,,,,,6,001,2022_Sep_23_1137,Flanker,2021.2.0,239.71330316211936,
neutral left,0,a,neutral.png,neutral.png,neutral.png,left_arrow.png,neutral.png,neutral.png,neutral.png,,,,,6,5,41,4,,,,,,,,,,,,,171.9467464000918,None,,,,,,,,,,,,,,,,,,,,,,,,,,,,,,172.96020600013435,None,172.96020600013435,None,172.96020600013435,None,172.96020600013435,None,172.96020600013435,None,172.96020600013435,None,172.96020600013435,None,a,1,0.45469900011084974,172.96020600013435,None,,,,,,,,,,,,,6,001,2022_Sep_23_1137,Flanker,2021.2.0,239.71330316211936,
neutral right,0,k,neutral.png,neutral.png,neutral.png,right_arrow.png,neutral.png,neutral.png,neutral.png,,,,,7,0,42,5,,,,,,,,,,,,,173.42722980002873,None,,,,,,,,,,,,,,,,,,,,,,,,,,,,,,174.44101490010507,None,174.44101490010507,None,174.44101490010507,None,174.44101490010507,None,174.44101490010507,None,174.44101490010507,None,174.44101490010507,None,k,1,0.3740455999504775,174.44101490010507,None,,,,,,,,,,,,,6,001,2022_Sep_23_1137,Flanker,2021.2.0,239.71330316211936,
neutral left,0,a,neutral.png,neutral.png,neutral.png,left_arrow.png,neutral.png,neutral.png,neutral.png,,,,,7,1,43,4,,,,,,,,,,,,,174.83290929999202,None,,,,,,,,,,,,,,,,,,,,,,,,,,,,,,175.8423082001973,None,175.8423082001973,None,175.8423082001973,None,175.8423082001973,None,175.8423082001973,None,175.8423082001973,None,175.8423082001973,None,a,1,0.48495359998196363,175.8423082001973,None,,,,,,,,,,,,,6,001,2022_Sep_23_1137,Flanker,2021.2.0,239.71330316211936,
neutral right,0,k,neutral.png,neutral.png,neutral.png,right_arrow.png,neutral.png,neutral.png,neutral.png,,,,,7,2,44,5,,,,,,,,,,,,,176.34284290019423,None,,,,,,,,,,,,,,,,,,,,,,,,,,,,,,177.35243270010687,None,177.35243270010687,None,177.35243270010687,None,177.35243270010687,None,177.35243270010687,None,177.35243270010687,None,177.35243270010687,None,k,1,0.39119730005040765,177.35243270010687,None,,,,,,,,,,,,,6,001,2022_Sep_23_1137,Flanker,2021.2.0,239.71330316211936,
incongruent-right.jpg,0,k,left_arrow.png,left_arrow.png,left_arrow.png,right_arrow.png,left_arrow.png,left_arrow.png,left_arrow.png,,,,,7,3,45,3,,,,,,,,,,,,,177.76099650003016,None,,,,,,,,,,,,,,,,,,,,,,,,,,,,,,178.77458430011757,None,178.77458430011757,None,178.77458430011757,None,178.77458430011757,None,178.77458430011757,None,178.77458430011757,None,178.77458430011757,None,k,1,0.4170821998268366,178.77458430011757,None,,,,,,,,,,,,,6,001,2022_Sep_23_1137,Flanker,2021.2.0,239.71330316211936,
neutral right,0,k,neutral.png,neutral.png,neutral.png,right_arrow.png,neutral.png,neutral.png,neutral.png,,,,,7,4,46,5,,,,,,,,,,,,,179.20839200005867,None,,,,,,,,,,,,,,,,,,,,,,,,,,,,,,180.2179400001187,None,180.2179400001187,None,180.2179400001187,None,180.2179400001187,None,180.2179400001187,None,180.2179400001187,None,180.2179400001187,None,k,1,0.35001109982840717,180.2179400001187,None,,,,,,,,,,,,,6,001,2022_Sep_23_1137,Flanker,2021.2.0,239.71330316211936,
incongruent-left.jpg,0,a,right_arrow.png,right_arrow.png,right_arrow.png,left_arrow.png,right_arrow.png,right_arrow.png,right_arrow.png,,,,,7,5,47,1,,,,,,,,,,,,,180.58483430021442,None,,,,,,,,,,,,,,,,,,,,,,,,,,,,,,181.5985499001108,None,181.5985499001108,None,181.5985499001108,None,181.5985499001108,None,181.5985499001108,None,181.5985499001108,None,181.5985499001108,None,a,1,0.44966090004891157,181.5985499001108,None,,,,,,,,,,,,,6,001,2022_Sep_23_1137,Flanker,2021.2.0,239.71330316211936,
,,,,,,,,,,,,,,,,,,,,,,,,,,,,,,,,,,,,,,,,,,,,,,,,,,,,,,,,,,,,,,,,,,,,,,,,,,,,,,,,182.07804090017453,None,space,3.914523100014776,182.07804090017453,None,,,,,,,6,001,2022_Sep_23_1137,Flanker,2021.2.0,239.71330316211936,
neutral right,0,k,neutral.png,neutral.png,neutral.png,right_arrow.png,neutral.png,neutral.png,neutral.png,,,,,,,,,0,0,0,5,,,,,,,,,186.0158989999909,None,,,,,,,,,,,,,,,,,,,,,,,,,,,,,,187.0211235000752,None,187.0211235000752,None,187.0211235000752,None,187.0211235000752,None,187.0211235000752,None,187.0211235000752,None,187.0211235000752,None,k,1,0.49163229996338487,187.0211235000752,None,,,,,,,,,,,,,6,001,2022_Sep_23_1137,Flanker,2021.2.0,239.71330316211936,
congruent-right.jpg,1,k,right_arrow.png,right_arrow.png,right_arrow.png,right_arrow.png,right_arrow.png,right_arrow.png,right_arrow.png,,,,,,,,,0,1,1,2,,,,,,,,,187.52975039999,None,,,,,,,,,,,,,,,,,,,,,,,,,,,,,,188.54784970008768,None,188.54784970008768,None,188.54784970008768,None,188.54784970008768,None,188.54784970008768,None,188.54784970008768,None,188.54784970008768,None,k,1,0.4130796999670565,188.54784970008768,None,,,,,,,,,,,,,6,001,2022_Sep_23_1137,Flanker,2021.2.0,239.71330316211936,
incongruent-left.jpg,0,a,right_arrow.png,right_arrow.png,right_arrow.png,left_arrow.png,right_arrow.png,right_arrow.png,right_arrow.png,,,,,,,,,0,2,2,1,,,,,,,,,188.9728783001192,None,,,,,,,,,,,,,,,,,,,,,,,,,,,,,,189.98659870005213,None,189.98659870005213,None,189.98659870005213,None,189.98659870005213,None,189.98659870005213,None,189.98659870005213,None,189.98659870005213,None,a,1,0.43054339988157153,189.98659870005213,None,,,,,,,,,,,,,6,001,2022_Sep_23_1137,Flanker,2021.2.0,239.71330316211936,
incongruent-left.jpg,0,a,right_arrow.png,right_arrow.png,right_arrow.png,left_arrow.png,right_arrow.png,right_arrow.png,right_arrow.png,,,,,,,,,0,3,3,1,,,,,,,,,190.42859880020842,None,,,,,,,,,,,,,,,,,,,,,,,,,,,,,,191.4421688001603,None,191.4421688001603,None,191.4421688001603,None,191.4421688001603,None,191.4421688001603,None,191.4421688001603,None,191.4421688001603,None,a,1,0.4073165999725461,191.4421688001603,None,,,,,,,,,,,,,6,001,2022_Sep_23_1137,Flanker,2021.2.0,239.71330316211936,
congruent-right.jpg,1,k,right_arrow.png,right_arrow.png,right_arrow.png,right_arrow.png,right_arrow.png,right_arrow.png,right_arrow.png,,,,,,,,,0,4,4,2,,,,,,,,,191.86766940006055,None,,,,,,,,,,,,,,,,,,,,,,,,,,,,,,192.88132650009356,None,192.88132650009356,None,192.88132650009356,None,192.88132650009356,None,192.88132650009356,None,192.88132650009356,None,192.88132650009356,None,k,1,0.3921955998521298,192.88132650009356,None,,,,,,,,,,,,,6,001,2022_Sep_23_1137,Flanker,2021.2.0,239.71330316211936,
incongruent-left.jpg,0,a,right_arrow.png,right_arrow.png,right_arrow.png,left_arrow.png,right_arrow.png,right_arrow.png,right_arrow.png,,,,,,,,,0,5,5,1,,,,,,,,,193.28999070008285,None,,,,,,,,,,,,,,,,,,,,,,,,,,,,,,194.30411250004545,None,194.30411250004545,None,194.30411250004545,None,194.30411250004545,None,194.30411250004545,None,194.30411250004545,None,194.30411250004545,None,a,1,0.44162840000353754,194.30411250004545,None,,,,,,,,,,,,,6,001,2022_Sep_23_1137,Flanker,2021.2.0,239.71330316211936,
incongruent-right.jpg,0,k,left_arrow.png,left_arrow.png,left_arrow.png,right_arrow.png,left_arrow.png,left_arrow.png,left_arrow.png,,,,,,,,,1,0,6,3,,,,,,,,,194.76233520009555,None,,,,,,,,,,,,,,,,,,,,,,,,,,,,,,195.77175370021723,None,195.77175370021723,None,195.77175370021723,None,195.77175370021723,None,195.77175370021723,None,195.77175370021723,None,195.77175370021723,None,k,1,0.43013709993101656,195.77175370021723,None,,,,,,,,,,,,,6,001,2022_Sep_23_1137,Flanker,2021.2.0,239.71330316211936,
neutral right,0,k,neutral.png,neutral.png,neutral.png,right_arrow.png,neutral.png,neutral.png,neutral.png,,,,,,,,,1,1,7,5,,,,,,,,,196.21386310015805,None,,,,,,,,,,,,,,,,,,,,,,,,,,,,,,197.22743279999122,None,197.22743279999122,None,197.22743279999122,None,197.22743279999122,None,197.22743279999122,None,197.22743279999122,None,197.22743279999122,None,k,1,0.43068260001018643,197.22743279999122,None,,,,,,,,,,,,,6,001,2022_Sep_23_1137,Flanker,2021.2.0,239.71330316211936,
congruent-right.jpg,1,k,right_arrow.png,right_arrow.png,right_arrow.png,right_arrow.png,right_arrow.png,right_arrow.png,right_arrow.png,,,,,,,,,1,2,8,2,,,,,,,,,197.66979910014197,None,,,,,,,,,,,,,,,,,,,,,,,,,,,,,,198.68314460013062,None,198.68314460013062,None,198.68314460013062,None,198.68314460013062,None,198.68314460013062,None,198.68314460013062,None,198.68314460013062,None,k,1,0.42317380011081696,198.68314460013062,None,,,,,,,,,,,,,6,001,2022_Sep_23_1137,Flanker,2021.2.0,239.71330316211936,
incongruent-right.jpg,0,k,left_arrow.png,left_arrow.png,left_arrow.png,right_arrow.png,left_arrow.png,left_arrow.png,left_arrow.png,,,,,,,,,1,3,9,3,,,,,,,,,199.12528590019792,None,,,,,,,,,,,,,,,,,,,,,,,,,,,,,,200.13483190000989,None,200.13483190000989,None,200.13483190000989,None,200.13483190000989,None,200.13483190000989,None,200.13483190000989,None,200.13483190000989,None,k,1,0.39568520011380315,200.13483190000989,None,,,,,,,,,,,,,6,001,2022_Sep_23_1137,Flanker,2021.2.0,239.71330316211936,
congruent-right.jpg,1,k,right_arrow.png,right_arrow.png,right_arrow.png,right_arrow.png,right_arrow.png,right_arrow.png,right_arrow.png,,,,,,,,,1,4,10,2,,,,,,,,,200.54351800004952,None,,,,,,,,,,,,,,,,,,,,,,,,,,,,,,201.5613267000299,None,201.5613267000299,None,201.5613267000299,None,201.5613267000299,None,201.5613267000299,None,201.5613267000299,None,201.5613267000299,None,k,1,0.39337829989381135,201.5613267000299,None,,,,,,,,,,,,,6,001,2022_Sep_23_1137,Flanker,2021.2.0,239.71330316211936,
congruent-left.jpg,1,a,left_arrow.png,left_arrow.png,left_arrow.png,left_arrow.png,left_arrow.png,left_arrow.png,left_arrow.png,,,,,,,,,1,5,11,0,,,,,,,,,201.97017310000956,None,,,,,,,,,,,,,,,,,,,,,,,,,,,,,,202.9752205000259,None,202.9752205000259,None,202.9752205000259,None,202.9752205000259,None,202.9752205000259,None,202.9752205000259,None,202.9752205000259,None,a,1,0.4516640999354422,202.9752205000259,None,,,,,,,,,,,,,6,001,2022_Sep_23_1137,Flanker,2021.2.0,239.71330316211936,
neutral left,0,a,neutral.png,neutral.png,neutral.png,left_arrow.png,neutral.png,neutral.png,neutral.png,,,,,,,,,2,0,12,4,,,,,,,,,203.44235150003806,None,,,,,,,,,,,,,,,,,,,,,,,,,,,,,,204.45177150005475,None,204.45177150005475,None,204.45177150005475,None,204.45177150005475,None,204.45177150005475,None,204.45177150005475,None,204.45177150005475,None,a,1,0.4232959998771548,204.45177150005475,None,,,,,,,,,,,,,6,001,2022_Sep_23_1137,Flanker,2021.2.0,239.71330316211936,
congruent-right.jpg,1,k,right_arrow.png,right_arrow.png,right_arrow.png,right_arrow.png,right_arrow.png,right_arrow.png,right_arrow.png,,,,,,,,,2,1,13,2,,,,,,,,,204.89388620015234,None,,,,,,,,,,,,,,,,,,,,,,,,,,,,,,205.90337590011768,None,205.90337590011768,None,205.90337590011768,None,205.90337590011768,None,205.90337590011768,None,205.90337590011768,None,205.90337590011768,None,k,1,0.41990410001017153,205.90337590011768,None,,,,,,,,,,,,,6,001,2022_Sep_23_1137,Flanker,2021.2.0,239.71330316211936,
incongruent-right.jpg,0,k,left_arrow.png,left_arrow.png,left_arrow.png,right_arrow.png,left_arrow.png,left_arrow.png,left_arrow.png,,,,,,,,,2,2,14,3,,,,,,,,,206.33718570019118,None,,,,,,,,,,,,,,,,,,,,,,,,,,,,,,207.35081450012513,None,207.35081450012513,None,207.35081450012513,None,207.35081450012513,None,207.35081450012513,None,207.35081450012513,None,207.35081450012513,None,k,1,0.31666480004787445,207.35081450012513,None,,,,,,,,,,,,,6,001,2022_Sep_23_1137,Flanker,2021.2.0,239.71330316211936,
neutral right,0,k,neutral.png,neutral.png,neutral.png,right_arrow.png,neutral.png,neutral.png,neutral.png,,,,,,,,,2,3,15,5,,,,,,,,,207.68432450015098,None,,,,,,,,,,,,,,,,,,,,,,,,,,,,,,208.69387280009687,None,208.69387280009687,None,208.69387280009687,None,208.69387280009687,None,208.69387280009687,None,208.69387280009687,None,208.69387280009687,None,k,1,0.3739960000384599,208.69387280009687,None,,,,,,,,,,,,,6,001,2022_Sep_23_1137,Flanker,2021.2.0,239.71330316211936,
neutral right,0,k,neutral.png,neutral.png,neutral.png,right_arrow.png,neutral.png,neutral.png,neutral.png,,,,,,,,,2,4,16,5,,,,,,,,,209.0858224001713,None,,,,,,,,,,,,,,,,,,,,,,,,,,,,,,210.09953040000983,None,210.09953040000983,None,210.09953040000983,None,210.09953040000983,None,210.09953040000983,None,210.09953040000983,None,210.09953040000983,None,k,1,0.37630779994651675,210.09953040000983,None,,,,,,,,,,,,,6,001,2022_Sep_23_1137,Flanker,2021.2.0,239.71330316211936,
incongruent-right.jpg,0,k,left_arrow.png,left_arrow.png,left_arrow.png,right_arrow.png,left_arrow.png,left_arrow.png,left_arrow.png,,,,,,,,,2,5,17,3,,,,,,,,,210.491457400145,None,,,,,,,,,,,,,,,,,,,,,,,,,,,,,,211.5011684000492,None,211.5011684000492,None,211.5011684000492,None,211.5011684000492,None,211.5011684000492,None,211.5011684000492,None,211.5011684000492,None,k,1,0.4628748001996428,211.5011684000492,None,,,,,,,,,,,,,6,001,2022_Sep_23_1137,Flanker,2021.2.0,239.71330316211936,
incongruent-left.jpg,0,a,right_arrow.png,right_arrow.png,right_arrow.png,left_arrow.png,right_arrow.png,right_arrow.png,right_arrow.png,,,,,,,,,3,0,18,1,,,,,,,,,211.97644230001606,None,,,,,,,,,,,,,,,,,,,,,,,,,,,,,,212.99000970018096,None,212.99000970018096,None,212.99000970018096,None,212.99000970018096,None,212.99000970018096,None,212.99000970018096,None,212.99000970018096,None,a,1,0.6382738999091089,212.99000970018096,None,,,,,,,,,,,,,6,001,2022_Sep_23_1137,Flanker,2021.2.0,239.71330316211936,
incongruent-left.jpg,0,a,right_arrow.png,right_arrow.png,right_arrow.png,left_arrow.png,right_arrow.png,right_arrow.png,right_arrow.png,,,,,,,,,3,1,19,1,,,,,,,,,213.6407247001771,None,,,,,,,,,,,,,,,,,,,,,,,,,,,,,,214.6501928002108,None,214.6501928002108,None,214.6501928002108,None,214.6501928002108,None,214.6501928002108,None,214.6501928002108,None,214.6501928002108,None,a,1,0.40227159997448325,214.6501928002108,None,,,,,,,,,,,,,6,001,2022_Sep_23_1137,Flanker,2021.2.0,239.71330316211936,
neutral left,0,a,neutral.png,neutral.png,neutral.png,left_arrow.png,neutral.png,neutral.png,neutral.png,,,,,,,,,3,2,20,4,,,,,,,,,215.06715030013584,None,,,,,,,,,,,,,,,,,,,,,,,,,,,,,,216.08086440013722,None,216.08086440013722,None,216.08086440013722,None,216.08086440013722,None,216.08086440013722,None,216.08086440013722,None,216.08086440013722,None,a,1,0.35574940009973943,216.08086440013722,None,,,,,,,,,,,,,6,001,2022_Sep_23_1137,Flanker,2021.2.0,239.71330316211936,
congruent-left.jpg,1,a,left_arrow.png,left_arrow.png,left_arrow.png,left_arrow.png,left_arrow.png,left_arrow.png,left_arrow.png,,,,,,,,,3,3,21,0,,,,,,,,,216.4564328000415,None,,,,,,,,,,,,,,,,,,,,,,,,,,,,,,217.46554250014015,None,217.46554250014015,None,217.46554250014015,None,217.46554250014015,None,217.46554250014015,None,217.46554250014015,None,217.46554250014015,None,a,1,0.435277400072664,217.46554250014015,None,,,,,,,,,,,,,6,001,2022_Sep_23_1137,Flanker,2021.2.0,239.71330316211936,
incongruent-left.jpg,0,a,right_arrow.png,right_arrow.png,right_arrow.png,left_arrow.png,right_arrow.png,right_arrow.png,right_arrow.png,,,,,,,,,3,4,22,1,,,,,,,,,217.9159994001966,None,,,,,,,,,,,,,,,,,,,,,,,,,,,,,,218.9253978000488,None,218.9253978000488,None,218.9253978000488,None,218.9253978000488,None,218.9253978000488,None,218.9253978000488,None,218.9253978000488,None,a,1,0.39178090007044375,218.9253978000488,None,,,,,,,,,,,,,6,001,2022_Sep_23_1137,Flanker,2021.2.0,239.71330316211936,
neutral left,0,a,neutral.png,neutral.png,neutral.png,left_arrow.png,neutral.png,neutral.png,neutral.png,,,,,,,,,3,5,23,4,,,,,,,,,219.3341684001498,None,,,,,,,,,,,,,,,,,,,,,,,,,,,,,,220.34773380006664,None,220.34773380006664,None,220.34773380006664,None,220.34773380006664,None,220.34773380006664,None,220.34773380006664,None,220.34773380006664,None,a,1,0.3294585000257939,220.34773380006664,None,,,,,,,,,,,,,6,001,2022_Sep_23_1137,Flanker,2021.2.0,239.71330316211936,
incongruent-right.jpg,0,k,left_arrow.png,left_arrow.png,left_arrow.png,right_arrow.png,left_arrow.png,left_arrow.png,left_arrow.png,,,,,,,,,4,0,24,3,,,,,,,,,220.6897657001391,None,,,,,,,,,,,,,,,,,,,,,,,,,,,,,,221.70751760015264,None,221.70751760015264,None,221.70751760015264,None,221.70751760015264,None,221.70751760015264,None,221.70751760015264,None,221.70751760015264,None,k,1,0.4018739000894129,221.70751760015264,None,,,,,,,,,,,,,6,001,2022_Sep_23_1137,Flanker,2021.2.0,239.71330316211936,
neutral left,0,a,neutral.png,neutral.png,neutral.png,left_arrow.png,neutral.png,neutral.png,neutral.png,,,,,,,,,4,1,25,4,,,,,,,,,222.12461160006933,None,,,,,,,,,,,,,,,,,,,,,,,,,,,,,,223.13819280010648,None,223.13819280010648,None,223.13819280010648,None,223.13819280010648,None,223.13819280010648,None,223.13819280010648,None,223.13819280010648,None,a,1,0.411447900114581,223.13819280010648,None,,,,,,,,,,,,,6,001,2022_Sep_23_1137,Flanker,2021.2.0,239.71330316211936,
incongruent-right.jpg,0,k,left_arrow.png,left_arrow.png,left_arrow.png,right_arrow.png,left_arrow.png,left_arrow.png,left_arrow.png,,,,,,,,,4,2,26,3,,,,,,,,,223.56363640003838,None,,,,,,,,,,,,,,,,,,,,,,,,,,,,,,224.5772141001653,None,224.5772141001653,None,224.5772141001653,None,224.5772141001653,None,224.5772141001653,None,224.5772141001653,None,224.5772141001653,None,k,1,0.38852340006269515,224.5772141001653,None,,,,,,,,,,,,,6,001,2022_Sep_23_1137,Flanker,2021.2.0,239.71330316211936,
neutral left,0,a,neutral.png,neutral.png,neutral.png,left_arrow.png,neutral.png,neutral.png,neutral.png,,,,,,,,,4,3,27,4,,,,,,,,,224.97765000001527,None,,,,,,,,,,,,,,,,,,,,,,,,,,,,,,225.99131810013205,None,225.99131810013205,None,225.99131810013205,None,225.99131810013205,None,225.99131810013205,None,225.99131810013205,None,225.99131810013205,None,a,1,0.5986232999712229,225.99131810013205,None,,,,,,,,,,,,,6,001,2022_Sep_23_1137,Flanker,2021.2.0,239.71330316211936,
congruent-left.jpg,1,a,left_arrow.png,left_arrow.png,left_arrow.png,left_arrow.png,left_arrow.png,left_arrow.png,left_arrow.png,,,,,,,,,4,4,28,0,,,,,,,,,226.60852880007587,None,,,,,,,,,,,,,,,,,,,,,,,,,,,,,,227.61792920017615,None,227.61792920017615,None,227.61792920017615,None,227.61792920017615,None,227.61792920017615,None,227.61792920017615,None,227.61792920017615,None,a,1,0.3962264999281615,227.61792920017615,None,,,,,,,,,,,,,6,001,2022_Sep_23_1137,Flanker,2021.2.0,239.71330316211936,
incongruent-left.jpg,0,a,right_arrow.png,right_arrow.png,right_arrow.png,left_arrow.png,right_arrow.png,right_arrow.png,right_arrow.png,,,,,,,,,4,5,29,1,,,,,,,,,228.0266967001371,None,,,,,,,,,,,,,,,,,,,,,,,,,,,,,,229.04040700010955,None,229.04040700010955,None,229.04040700010955,None,229.04040700010955,None,229.04040700010955,None,229.04040700010955,None,229.04040700010955,None,a,1,0.46997079998254776,229.04040700010955,None,,,,,,,,,,,,,6,001,2022_Sep_23_1137,Flanker,2021.2.0,239.71330316211936,
congruent-left.jpg,1,a,left_arrow.png,left_arrow.png,left_arrow.png,left_arrow.png,left_arrow.png,left_arrow.png,left_arrow.png,,,,,,,,,5,0,30,0,,,,,,,,,229.5241043001879,None,,,,,,,,,,,,,,,,,,,,,,,,,,,,,,230.53783590020612,None,230.53783590020612,None,230.53783590020612,None,230.53783590020612,None,230.53783590020612,None,230.53783590020612,None,230.53783590020612,None,a,1,0.35670730005949736,230.53783590020612,None,,,,,,,,,,,,,6,001,2022_Sep_23_1137,Flanker,2021.2.0,239.71330316211936,
incongruent-left.jpg,0,a,right_arrow.png,right_arrow.png,right_arrow.png,left_arrow.png,right_arrow.png,right_arrow.png,right_arrow.png,,,,,,,,,5,1,31,1,,,,,,,,,230.91346120019443,None,,,,,,,,,,,,,,,,,,,,,,,,,,,,,,231.92673599999398,None,231.92673599999398,None,231.92673599999398,None,231.92673599999398,None,231.92673599999398,None,231.92673599999398,None,231.92673599999398,None,a,1,0.3200508998706937,231.92673599999398,None,,,,,,,,,,,,,6,001,2022_Sep_23_1137,Flanker,2021.2.0,239.71330316211936,
incongruent-right.jpg,0,k,left_arrow.png,left_arrow.png,left_arrow.png,right_arrow.png,left_arrow.png,left_arrow.png,left_arrow.png,,,,,,,,,5,2,32,3,,,,,,,,,232.2603452000767,None,,,,,,,,,,,,,,,,,,,,,,,,,,,,,,233.27402060013264,None,233.27402060013264,None,233.27402060013264,None,233.27402060013264,None,233.27402060013264,None,233.27402060013264,None,233.27402060013264,None,k,1,0.4609209999907762,233.27402060013264,None,,,,,,,,,,,,,6,001,2022_Sep_23_1137,Flanker,2021.2.0,239.71330316211936,
neutral right,0,k,neutral.png,neutral.png,neutral.png,right_arrow.png,neutral.png,neutral.png,neutral.png,,,,,,,,,5,3,33,5,,,,,,,,,233.7494831001386,None,,,,,,,,,,,,,,,,,,,,,,,,,,,,,,234.7630670000799,None,234.7630670000799,None,234.7630670000799,None,234.7630670000799,None,234.7630670000799,None,234.7630670000799,None,234.7630670000799,None,k,1,0.39603770012035966,234.7630670000799,None,,,,,,,,,,,,,6,001,2022_Sep_23_1137,Flanker,2021.2.0,239.71330316211936,
neutral left,0,a,neutral.png,neutral.png,neutral.png,left_arrow.png,neutral.png,neutral.png,neutral.png,,,,,,,,,5,4,34,4,,,,,,,,,235.1717578000389,None,,,,,,,,,,,,,,,,,,,,,,,,,,,,,,236.18127950001508,None,236.18127950001508,None,236.18127950001508,None,236.18127950001508,None,236.18127950001508,None,236.18127950001508,None,236.18127950001508,None,a,1,0.3700500999111682,236.18127950001508,None,,,,,,,,,,,,,6,001,2022_Sep_23_1137,Flanker,2021.2.0,239.71330316211936,
neutral right,0,k,neutral.png,neutral.png,neutral.png,right_arrow.png,neutral.png,neutral.png,neutral.png,,,,,,,,,5,5,35,5,,,,,,,,,236.564914500108,None,,,,,,,,,,,,,,,,,,,,,,,,,,,,,,237.5784492001403,None,237.5784492001403,None,237.5784492001403,None,237.5784492001403,None,237.5784492001403,None,237.5784492001403,None,237.5784492001403,None,k,1,0.45307040004990995,237.5784492001403,None,,,,,,,,,,,,,6,001,2022_Sep_23_1137,Flanker,2021.2.0,239.71330316211936,
congruent-right.jpg,1,k,right_arrow.png,right_arrow.png,right_arrow.png,right_arrow.png,right_arrow.png,right_arrow.png,right_arrow.png,,,,,,,,,6,0,36,2,,,,,,,,,238.04590020002797,None,,,,,,,,,,,,,,,,,,,,,,,,,,,,,,239.05921850004233,None,239.05921850004233,None,239.05921850004233,None,239.05921850004233,None,239.05921850004233,None,239.05921850004233,None,239.05921850004233,None,k,1,0.4444914001505822,239.05921850004233,None,,,,,,,,,,,,,6,001,2022_Sep_23_1137,Flanker,2021.2.0,239.71330316211936,
congruent-left.jpg,1,a,left_arrow.png,left_arrow.png,left_arrow.png,left_arrow.png,left_arrow.png,left_arrow.png,left_arrow.png,,,,,,,,,6,1,37,0,,,,,,,,,239.5180128000211,None,,,,,,,,,,,,,,,,,,,,,,,,,,,,,,240.5275034001097,None,240.5275034001097,None,240.5275034001097,None,240.5275034001097,None,240.5275034001097,None,240.5275034001097,None,240.5275034001097,None,a,1,0.4325443999841809,240.5275034001097,None,,,,,,,,,,,,,6,001,2022_Sep_23_1137,Flanker,2021.2.0,239.71330316211936,
neutral left,0,a,neutral.png,neutral.png,neutral.png,left_arrow.png,neutral.png,neutral.png,neutral.png,,,,,,,,,6,2,38,4,,,,,,,,,240.97788610006683,None,,,,,,,,,,,,,,,,,,,,,,,,,,,,,,241.9914763001725,None,241.9914763001725,None,241.9914763001725,None,241.9914763001725,None,241.9914763001725,None,241.9914763001725,None,241.9914763001725,None,a,1,0.4566091999877244,241.9914763001725,None,,,,,,,,,,,,,6,001,2022_Sep_23_1137,Flanker,2021.2.0,239.71330316211936,
congruent-left.jpg,1,a,left_arrow.png,left_arrow.png,left_arrow.png,left_arrow.png,left_arrow.png,left_arrow.png,left_arrow.png,,,,,,,,,6,3,39,0,,,,,,,,,242.4589047001209,None,,,,,,,,,,,,,,,,,,,,,,,,,,,,,,243.47234340012074,None,243.47234340012074,None,243.47234340012074,None,243.47234340012074,None,243.47234340012074,None,243.47234340012074,None,243.47234340012074,None,a,1,0.3682375999633223,243.47234340012074,None,,,,,,,,,,,,,6,001,2022_Sep_23_1137,Flanker,2021.2.0,239.71330316211936,
congruent-right.jpg,1,k,right_arrow.png,right_arrow.png,right_arrow.png,right_arrow.png,right_arrow.png,right_arrow.png,right_arrow.png,,,,,,,,,6,4,40,2,,,,,,,,,243.85620740009472,None,,,,,,,,,,,,,,,,,,,,,,,,,,,,,,244.8654936000239,None,244.8654936000239,None,244.8654936000239,None,244.8654936000239,None,244.8654936000239,None,244.8654936000239,None,244.8654936000239,None,k,1,0.44694590009748936,244.8654936000239,None,,,,,,,,,,,,,6,001,2022_Sep_23_1137,Flanker,2021.2.0,239.71330316211936,
congruent-left.jpg,1,a,left_arrow.png,left_arrow.png,left_arrow.png,left_arrow.png,left_arrow.png,left_arrow.png,left_arrow.png,,,,,,,,,6,5,41,0,,,,,,,,,245.32422629999928,None,,,,,,,,,,,,,,,,,,,,,,,,,,,,,,246.33362620021217,None,246.33362620021217,None,246.33362620021217,None,246.33362620021217,None,246.33362620021217,None,246.33362620021217,None,246.33362620021217,None,a,1,0.39506040001288056,246.33362620021217,None,,,,,,,,,,,,,6,001,2022_Sep_23_1137,Flanker,2021.2.0,239.71330316211936,
neutral right,0,k,neutral.png,neutral.png,neutral.png,right_arrow.png,neutral.png,neutral.png,neutral.png,,,,,,,,,7,0,42,5,,,,,,,,,246.7424046001397,None,,,,,,,,,,,,,,,,,,,,,,,,,,,,,,247.75170840020292,None,247.75170840020292,None,247.75170840020292,None,247.75170840020292,None,247.75170840020292,None,247.75170840020292,None,247.75170840020292,None,k,1,0.3611671000253409,247.75170840020292,None,,,,,,,,,,,,,6,001,2022_Sep_23_1137,Flanker,2021.2.0,239.71330316211936,
incongruent-right.jpg,0,k,left_arrow.png,left_arrow.png,left_arrow.png,right_arrow.png,left_arrow.png,left_arrow.png,left_arrow.png,,,,,,,,,7,1,43,3,,,,,,,,,248.12714300001971,None,,,,,,,,,,,,,,,,,,,,,,,,,,,,,,249.13670110004023,None,249.13670110004023,None,249.13670110004023,None,249.13670110004023,None,249.13670110004023,None,249.13670110004023,None,249.13670110004023,None,k,1,0.416592099936679,249.13670110004023,None,,,,,,,,,,,,,6,001,2022_Sep_23_1137,Flanker,2021.2.0,239.71330316211936,
neutral left,0,a,neutral.png,neutral.png,neutral.png,left_arrow.png,neutral.png,neutral.png,neutral.png,,,,,,,,,7,2,44,4,,,,,,,,,249.57032759999856,None,,,,,,,,,,,,,,,,,,,,,,,,,,,,,,250.58389450004324,None,250.58389450004324,None,250.58389450004324,None,250.58389450004324,None,250.58389450004324,None,250.58389450004324,None,250.58389450004324,None,a,1,0.36933519993908703,250.58389450004324,None,,,,,,,,,,,,,6,001,2022_Sep_23_1137,Flanker,2021.2.0,239.71330316211936,
congruent-right.jpg,1,k,right_arrow.png,right_arrow.png,right_arrow.png,right_arrow.png,right_arrow.png,right_arrow.png,right_arrow.png,,,,,,,,,7,3,45,2,,,,,,,,,250.96763650001958,None,,,,,,,,,,,,,,,,,,,,,,,,,,,,,,251.98134750011377,None,251.98134750011377,None,251.98134750011377,None,251.98134750011377,None,251.98134750011377,None,251.98134750011377,None,251.98134750011377,None,k,1,0.3640576999168843,251.98134750011377,None,,,,,,,,,,,,,6,001,2022_Sep_23_1137,Flanker,2021.2.0,239.71330316211936,
neutral right,0,k,neutral.png,neutral.png,neutral.png,right_arrow.png,neutral.png,neutral.png,neutral.png,,,,,,,,,7,4,46,5,,,,,,,,,252.35667820018716,None,,,,,,,,,,,,,,,,,,,,,,,,,,,,,,253.37019220017828,None,253.37019220017828,None,253.37019220017828,None,253.37019220017828,None,253.37019220017828,None,253.37019220017828,None,253.37019220017828,None,k,1,0.38342950004152954,253.37019220017828,None,,,,,,,,,,,,,6,001,2022_Sep_23_1137,Flanker,2021.2.0,239.71330316211936,
congruent-left.jpg,1,a,left_arrow.png,left_arrow.png,left_arrow.png,left_arrow.png,left_arrow.png,left_arrow.png,left_arrow.png,,,,,,,,,7,5,47,0,,,,,,,,,253.77079760003835,None,,,,,,,,,,,,,,,,,,,,,,,,,,,,,,254.78439890011214,None,254.78439890011214,None,254.78439890011214,None,254.78439890011214,None,254.78439890011214,None,254.78439890011214,None,254.78439890011214,None,a,1,0.41741929994896054,254.78439890011214,None,,,,,,,,,,,,,6,001,2022_Sep_23_1137,Flanker,2021.2.0,239.71330316211936,
,,,,,,,,,,,,,,,,,,,,,,,,,,,,,,,,,,,,,,,,,,,,,,,,,,,,,,,,,,,,,,,,,,,,,,,,,,,,,,,,255.23046220000833,None,space,2.435696000000462,255.23046220000833,None,,,,,,,6,001,2022_Sep_23_1137,Flanker,2021.2.0,239.71330316211936,
congruent-right.jpg,1,k,right_arrow.png,right_arrow.png,right_arrow.png,right_arrow.png,right_arrow.png,right_arrow.png,right_arrow.png,,,,,,,,,,,,,0,0,0,2,,,,,257.69142610020936,None,,,,,,,,,,,,,,,,,,,,,,,,,,,,,,258.6925361000467,None,258.6925361000467,None,258.6925361000467,None,258.6925361000467,None,258.6925361000467,None,258.6925361000467,None,258.6925361000467,None,k,1,0.41374790016561747,258.6925361000467,None,,,,,,,,,,,,,6,001,2022_Sep_23_1137,Flanker,2021.2.0,239.71330316211936,
neutral left,0,a,neutral.png,neutral.png,neutral.png,left_arrow.png,neutral.png,neutral.png,neutral.png,,,,,,,,,,,,,0,1,1,4,,,,,259.1179267000407,None,,,,,,,,,,,,,,,,,,,,,,,,,,,,,,260.13573960005306,None,260.13573960005306,None,260.13573960005306,None,260.13573960005306,None,260.13573960005306,None,260.13573960005306,None,260.13573960005306,None,a,1,0.4107818999327719,260.13573960005306,None,,,,,,,,,,,,,6,001,2022_Sep_23_1137,Flanker,2021.2.0,239.71330316211936,
congruent-right.jpg,1,k,right_arrow.png,right_arrow.png,right_arrow.png,right_arrow.png,right_arrow.png,right_arrow.png,right_arrow.png,,,,,,,,,,,,,0,2,2,2,,,,,260.5612000001129,None,,,,,,,,,,,,,,,,,,,,,,,,,,,,,,261.5706701001618,None,261.5706701001618,None,261.5706701001618,None,261.5706701001618,None,261.5706701001618,None,261.5706701001618,None,261.5706701001618,None,k,1,0.38433309993706644,261.5706701001618,None,,,,,,,,,,,,,6,001,2022_Sep_23_1137,Flanker,2021.2.0,239.71330316211936,
incongruent-right.jpg,0,k,left_arrow.png,left_arrow.png,left_arrow.png,right_arrow.png,left_arrow.png,left_arrow.png,left_arrow.png,,,,,,,,,,,,,0,3,3,3,,,,,261.97120370017365,None,,,,,,,,,,,,,,,,,,,,,,,,,,,,,,262.98893540003337,None,262.98893540003337,None,262.98893540003337,None,262.98893540003337,None,262.98893540003337,None,262.98893540003337,None,262.98893540003337,None,k,1,0.3743761000223458,262.98893540003337,None,,,,,,,,,,,,,6,001,2022_Sep_23_1137,Flanker,2021.2.0,239.71330316211936,
neutral left,0,a,neutral.png,neutral.png,neutral.png,left_arrow.png,neutral.png,neutral.png,neutral.png,,,,,,,,,,,,,0,4,4,4,,,,,263.38109810021706,None,,,,,,,,,,,,,,,,,,,,,,,,,,,,,,264.39458309998736,None,264.39458309998736,None,264.39458309998736,None,264.39458309998736,None,264.39458309998736,None,264.39458309998736,None,264.39458309998736,None,a,1,0.3448157999664545,264.39458309998736,None,,,,,,,,,,,,,6,001,2022_Sep_23_1137,Flanker,2021.2.0,239.71330316211936,
congruent-left.jpg,1,a,left_arrow.png,left_arrow.png,left_arrow.png,left_arrow.png,left_arrow.png,left_arrow.png,left_arrow.png,,,,,,,,,,,,,0,5,5,0,,,,,264.753266800195,None,,,,,,,,,,,,,,,,,,,,,,,,,,,,,,265.76683470001444,None,265.76683470001444,None,265.76683470001444,None,265.76683470001444,None,265.76683470001444,None,265.76683470001444,None,265.76683470001444,None,a,1,0.37240120000205934,265.76683470001444,None,,,,,,,,,,,,,6,001,2022_Sep_23_1137,Flanker,2021.2.0,239.71330316211936,
neutral left,0,a,neutral.png,neutral.png,neutral.png,left_arrow.png,neutral.png,neutral.png,neutral.png,,,,,,,,,,,,,1,0,6,4,,,,,266.15061850007623,None,,,,,,,,,,,,,,,,,,,,,,,,,,,,,,267.16417780006304,None,267.16417780006304,None,267.16417780006304,None,267.16417780006304,None,267.16417780006304,None,267.16417780006304,None,267.16417780006304,None,k,0,0.3593132998794317,267.16417780006304,None,,,,,,,,,,,,,6,001,2022_Sep_23_1137,Flanker,2021.2.0,239.71330316211936,
congruent-left.jpg,1,a,left_arrow.png,left_arrow.png,left_arrow.png,left_arrow.png,left_arrow.png,left_arrow.png,left_arrow.png,,,,,,,,,,,,,1,1,7,0,,,,,267.53965819999576,None,,,,,,,,,,,,,,,,,,,,,,,,,,,,,,268.54914440005086,None,268.54914440005086,None,268.54914440005086,None,268.54914440005086,None,268.54914440005086,None,268.54914440005086,None,268.54914440005086,None,a,1,0.5024965000338852,268.54914440005086,None,,,,,,,,,,,,,6,001,2022_Sep_23_1137,Flanker,2021.2.0,239.71330316211936,
incongruent-left.jpg,0,a,right_arrow.png,right_arrow.png,right_arrow.png,left_arrow.png,right_arrow.png,right_arrow.png,right_arrow.png,,,,,,,,,,,,,1,2,8,1,,,,,269.0659757000394,None,,,,,,,,,,,,,,,,,,,,,,,,,,,,,,270.07977770012803,None,270.07977770012803,None,270.07977770012803,None,270.07977770012803,None,270.07977770012803,None,270.07977770012803,None,270.07977770012803,None,a,1,0.484395399922505,270.07977770012803,None,,,,,,,,,,,,,6,001,2022_Sep_23_1137,Flanker,2021.2.0,239.71330316211936,
congruent-right.jpg,1,k,right_arrow.png,right_arrow.png,right_arrow.png,right_arrow.png,right_arrow.png,right_arrow.png,right_arrow.png,,,,,,,,,,,,,1,3,9,2,,,,,270.5804153000936,None,,,,,,,,,,,,,,,,,,,,,,,,,,,,,,271.58977170009166,None,271.58977170009166,None,271.58977170009166,None,271.58977170009166,None,271.58977170009166,None,271.58977170009166,None,271.58977170009166,None,k,1,0.48629970010370016,271.58977170009166,None,,,,,,,,,,,,,6,001,2022_Sep_23_1137,Flanker,2021.2.0,239.71330316211936,
incongruent-left.jpg,0,a,right_arrow.png,right_arrow.png,right_arrow.png,left_arrow.png,right_arrow.png,right_arrow.png,right_arrow.png,,,,,,,,,,,,,1,4,10,1,,,,,272.09025030001067,None,,,,,,,,,,,,,,,,,,,,,,,,,,,,,,273.0993553001899,None,273.0993553001899,None,273.0993553001899,None,273.0993553001899,None,273.0993553001899,None,273.0993553001899,None,273.0993553001899,None,a,1,0.4252599000465125,273.0993553001899,None,,,,,,,,,,,,,6,001,2022_Sep_23_1137,Flanker,2021.2.0,239.71330316211936,
incongruent-left.jpg,0,a,right_arrow.png,right_arrow.png,right_arrow.png,left_arrow.png,right_arrow.png,right_arrow.png,right_arrow.png,,,,,,,,,,,,,1,5,11,1,,,,,273.54199090017937,None,,,,,,,,,,,,,,,,,,,,,,,,,,,,,,274.55118010006845,None,274.55118010006845,None,274.55118010006845,None,274.55118010006845,None,274.55118010006845,None,274.55118010006845,None,274.55118010006845,None,a,1,0.40523050003685057,274.55118010006845,None,,,,,,,,,,,,,6,001,2022_Sep_23_1137,Flanker,2021.2.0,239.71330316211936,
congruent-left.jpg,1,a,left_arrow.png,left_arrow.png,left_arrow.png,left_arrow.png,left_arrow.png,left_arrow.png,left_arrow.png,,,,,,,,,,,,,2,0,12,0,,,,,274.96800140012056,None,,,,,,,,,,,,,,,,,,,,,,,,,,,,,,275.97761770011857,None,275.97761770011857,None,275.97761770011857,None,275.97761770011857,None,275.97761770011857,None,275.97761770011857,None,275.97761770011857,None,a,1,0.42701940005645156,275.97761770011857,None,,,,,,,,,,,,,6,001,2022_Sep_23_1137,Flanker,2021.2.0,239.71330316211936,
neutral right,0,k,neutral.png,neutral.png,neutral.png,right_arrow.png,neutral.png,neutral.png,neutral.png,,,,,,,,,,,,,2,1,13,5,,,,,276.41955200000666,None,,,,,,,,,,,,,,,,,,,,,,,,,,,,,,277.4292821001727,None,277.4292821001727,None,277.4292821001727,None,277.4292821001727,None,277.4292821001727,None,277.4292821001727,None,277.4292821001727,None,k,1,0.4078611999284476,277.4292821001727,None,,,,,,,,,,,,,6,001,2022_Sep_23_1137,Flanker,2021.2.0,239.71330316211936,
congruent-right.jpg,1,k,right_arrow.png,right_arrow.png,right_arrow.png,right_arrow.png,right_arrow.png,right_arrow.png,right_arrow.png,,,,,,,,,,,,,2,2,14,2,,,,,277.8544114001561,None,,,,,,,,,,,,,,,,,,,,,,,,,,,,,,278.86795560014434,None,278.86795560014434,None,278.86795560014434,None,278.86795560014434,None,278.86795560014434,None,278.86795560014434,None,278.86795560014434,None,k,1,0.41708180005662143,278.86795560014434,None,,,,,,,,,,,,,6,001,2022_Sep_23_1137,Flanker,2021.2.0,239.71330316211936,
neutral left,0,a,neutral.png,neutral.png,neutral.png,left_arrow.png,neutral.png,neutral.png,neutral.png,,,,,,,,,,,,,2,3,15,4,,,,,279.30175660015084,None,,,,,,,,,,,,,,,,,,,,,,,,,,,,,,280.31557960016653,None,280.31557960016653,None,280.31557960016653,None,280.31557960016653,None,280.31557960016653,None,280.31557960016653,None,280.31557960016653,None,a,1,0.4016153998672962,280.31557960016653,None,,,,,,,,,,,,,6,001,2022_Sep_23_1137,Flanker,2021.2.0,239.71330316211936,
incongruent-left.jpg,0,a,right_arrow.png,right_arrow.png,right_arrow.png,left_arrow.png,right_arrow.png,right_arrow.png,right_arrow.png,,,,,,,,,,,,,2,4,16,1,,,,,280.732516300166,None,,,,,,,,,,,,,,,,,,,,,,,,,,,,,,281.7418990000151,None,281.7418990000151,None,281.7418990000151,None,281.7418990000151,None,281.7418990000151,None,281.7418990000151,None,281.7418990000151,None,a,1,0.6077799999620765,281.7418990000151,None,,,,,,,,,,,,,6,001,2022_Sep_23_1137,Flanker,2021.2.0,239.71330316211936,
incongruent-right.jpg,0,k,left_arrow.png,left_arrow.png,left_arrow.png,right_arrow.png,left_arrow.png,left_arrow.png,left_arrow.png,,,,,,,,,,,,,2,5,17,3,,,,,282.36750520020723,None,,,,,,,,,,,,,,,,,,,,,,,,,,,,,,283.38106960011646,None,283.38106960011646,None,283.38106960011646,None,283.38106960011646,None,283.38106960011646,None,283.38106960011646,None,283.38106960011646,None,k,1,0.40053909993730485,283.38106960011646,None,,,,,,,,,,,,,6,001,2022_Sep_23_1137,Flanker,2021.2.0,239.71330316211936,
congruent-right.jpg,1,k,right_arrow.png,right_arrow.png,right_arrow.png,right_arrow.png,right_arrow.png,right_arrow.png,right_arrow.png,,,,,,,,,,,,,3,0,18,2,,,,,283.79817760013975,None,,,,,,,,,,,,,,,,,,,,,,,,,,,,,,284.81207370013,None,284.81207370013,None,284.81207370013,None,284.81207370013,None,284.81207370013,None,284.81207370013,None,284.81207370013,None,k,1,0.49772509979084134,284.81207370013,None,,,,,,,,,,,,,6,001,2022_Sep_23_1137,Flanker,2021.2.0,239.71330316211936,
congruent-right.jpg,1,k,right_arrow.png,right_arrow.png,right_arrow.png,right_arrow.png,right_arrow.png,right_arrow.png,right_arrow.png,,,,,,,,,,,,,3,1,19,2,,,,,285.32897900021635,None,,,,,,,,,,,,,,,,,,,,,,,,,,,,,,286.3383866001386,None,286.3383866001386,None,286.3383866001386,None,286.3383866001386,None,286.3383866001386,None,286.3383866001386,None,286.3383866001386,None,k,1,0.46760730003006756,286.3383866001386,None,,,,,,,,,,,,,6,001,2022_Sep_23_1137,Flanker,2021.2.0,239.71330316211936,
congruent-left.jpg,1,a,left_arrow.png,left_arrow.png,left_arrow.png,left_arrow.png,left_arrow.png,left_arrow.png,left_arrow.png,,,,,,,,,,,,,3,2,20,0,,,,,286.8222397000063,None,,,,,,,,,,,,,,,,,,,,,,,,,,,,,,287.83608640008606,None,287.83608640008606,None,287.83608640008606,None,287.83608640008606,None,287.83608640008606,None,287.83608640008606,None,287.83608640008606,None,a,1,0.3941046998370439,287.83608640008606,None,,,,,,,,,,,,,6,001,2022_Sep_23_1137,Flanker,2021.2.0,239.71330316211936,
neutral right,0,k,neutral.png,neutral.png,neutral.png,right_arrow.png,neutral.png,neutral.png,neutral.png,,,,,,,,,,,,,3,3,21,5,,,,,288.2445799000561,None,,,,,,,,,,,,,,,,,,,,,,,,,,,,,,289.25855990010314,None,289.25855990010314,None,289.25855990010314,None,289.25855990010314,None,289.25855990010314,None,289.25855990010314,None,289.25855990010314,None,k,1,0.411910800030455,289.25855990010314,None,,,,,,,,,,,,,6,001,2022_Sep_23_1137,Flanker,2021.2.0,239.71330316211936,
neutral right,0,k,neutral.png,neutral.png,neutral.png,right_arrow.png,neutral.png,neutral.png,neutral.png,,,,,,,,,,,,,3,4,22,5,,,,,289.683661499992,None,,,,,,,,,,,,,,,,,,,,,,,,,,,,,,290.6931306000333,None,290.6931306000333,None,290.6931306000333,None,290.6931306000333,None,290.6931306000333,None,290.6931306000333,None,290.6931306000333,None,k,1,0.43352709989994764,290.6931306000333,None,,,,,,,,,,,,,6,001,2022_Sep_23_1137,Flanker,2021.2.0,239.71330316211936,
incongruent-left.jpg,0,a,right_arrow.png,right_arrow.png,right_arrow.png,left_arrow.png,right_arrow.png,right_arrow.png,right_arrow.png,,,,,,,,,,,,,3,5,23,1,,,,,291.143460100051,None,,,,,,,,,,,,,,,,,,,,,,,,,,,,,,292.161188099999,None,292.161188099999,None,292.161188099999,None,292.161188099999,None,292.161188099999,None,292.161188099999,None,292.161188099999,None,a,1,0.3975772999692708,292.161188099999,None,,,,,,,,,,,,,6,001,2022_Sep_23_1137,Flanker,2021.2.0,239.71330316211936,
congruent-right.jpg,1,k,right_arrow.png,right_arrow.png,right_arrow.png,right_arrow.png,right_arrow.png,right_arrow.png,right_arrow.png,,,,,,,,,,,,,4,0,24,2,,,,,292.5699711001944,None,,,,,,,,,,,,,,,,,,,,,,,,,,,,,,293.5835422000382,None,293.5835422000382,None,293.5835422000382,None,293.5835422000382,None,293.5835422000382,None,293.5835422000382,None,293.5835422000382,None,k,1,0.43941779993474483,293.5835422000382,None,,,,,,,,,,,,,6,001,2022_Sep_23_1137,Flanker,2021.2.0,239.71330316211936,
incongruent-right.jpg,0,k,left_arrow.png,left_arrow.png,left_arrow.png,right_arrow.png,left_arrow.png,left_arrow.png,left_arrow.png,,,,,,,,,,,,,4,1,25,3,,,,,294.03409750014544,None,,,,,,,,,,,,,,,,,,,,,,,,,,,,,,295.0476740000304,None,295.0476740000304,None,295.0476740000304,None,295.0476740000304,None,295.0476740000304,None,295.0476740000304,None,295.0476740000304,None,k,1,0.47149300016462803,295.0476740000304,None,,,,,,,,,,,,,6,001,2022_Sep_23_1137,Flanker,2021.2.0,239.71330316211936,
incongruent-right.jpg,0,k,left_arrow.png,left_arrow.png,left_arrow.png,right_arrow.png,left_arrow.png,left_arrow.png,left_arrow.png,,,,,,,,,,,,,4,2,26,3,,,,,295.5314399001654,None,,,,,,,,,,,,,,,,,,,,,,,,,,,,,,296.545247600181,None,296.545247600181,None,296.545247600181,None,296.545247600181,None,296.545247600181,None,296.545247600181,None,296.545247600181,None,k,1,0.43807889986783266,296.545247600181,None,,,,,,,,,,,,,6,001,2022_Sep_23_1137,Flanker,2021.2.0,239.71330316211936,
neutral left,0,a,neutral.png,neutral.png,neutral.png,left_arrow.png,neutral.png,neutral.png,neutral.png,,,,,,,,,,,,,4,3,27,4,,,,,296.99557070015,None,,,,,,,,,,,,,,,,,,,,,,,,,,,,,,298.00519510009326,None,298.00519510009326,None,298.00519510009326,None,298.00519510009326,None,298.00519510009326,None,298.00519510009326,None,298.00519510009326,None,a,1,0.41836690017953515,298.00519510009326,None,,,,,,,,,,,,,6,001,2022_Sep_23_1137,Flanker,2021.2.0,239.71330316211936,
incongruent-right.jpg,0,k,left_arrow.png,left_arrow.png,left_arrow.png,right_arrow.png,left_arrow.png,left_arrow.png,left_arrow.png,,,,,,,,,,,,,4,4,28,3,,,,,298.4386979001574,None,,,,,,,,,,,,,,,,,,,,,,,,,,,,,,299.4481683000922,None,299.4481683000922,None,299.4481683000922,None,299.4481683000922,None,299.4481683000922,None,299.4481683000922,None,299.4481683000922,None,k,1,0.3835835999343544,299.4481683000922,None,,,,,,,,,,,,,6,001,2022_Sep_23_1137,Flanker,2021.2.0,239.71330316211936,
congruent-left.jpg,1,a,left_arrow.png,left_arrow.png,left_arrow.png,left_arrow.png,left_arrow.png,left_arrow.png,left_arrow.png,,,,,,,,,,,,,4,5,29,0,,,,,299.84884890005924,None,,,,,,,,,,,,,,,,,,,,,,,,,,,,,,300.85372920008376,None,300.85372920008376,None,300.85372920008376,None,300.85372920008376,None,300.85372920008376,None,300.85372920008376,None,300.85372920008376,None,a,1,0.3702447998803109,300.85372920008376,None,,,,,,,,,,,,,6,001,2022_Sep_23_1137,Flanker,2021.2.0,239.71330316211936,
neutral left,0,a,neutral.png,neutral.png,neutral.png,left_arrow.png,neutral.png,neutral.png,neutral.png,,,,,,,,,,,,,5,0,30,4,,,,,301.23756420006976,None,,,,,,,,,,,,,,,,,,,,,,,,,,,,,,302.2513354001567,None,302.2513354001567,None,302.2513354001567,None,302.2513354001567,None,302.2513354001567,None,302.2513354001567,None,302.2513354001567,None,k,0,0.34106869995594025,302.2513354001567,None,,,,,,,,,,,,,6,001,2022_Sep_23_1137,Flanker,2021.2.0,239.71330316211936,
neutral right,0,k,neutral.png,neutral.png,neutral.png,right_arrow.png,neutral.png,neutral.png,neutral.png,,,,,,,,,,,,,5,1,31,5,,,,,302.609841800062,None,,,,,,,,,,,,,,,,,,,,,,,,,,,,,,303.61514760018326,None,303.61514760018326,None,303.61514760018326,None,303.61514760018326,None,303.61514760018326,None,303.61514760018326,None,303.61514760018326,None,k,1,0.39314169995486736,303.61514760018326,None,,,,,,,,,,,,,6,001,2022_Sep_23_1137,Flanker,2021.2.0,239.71330316211936,
neutral right,0,k,neutral.png,neutral.png,neutral.png,right_arrow.png,neutral.png,neutral.png,neutral.png,,,,,,,,,,,,,5,2,32,5,,,,,304.02374740014784,None,,,,,,,,,,,,,,,,,,,,,,,,,,,,,,305.0376188000664,None,305.0376188000664,None,305.0376188000664,None,305.0376188000664,None,305.0376188000664,None,305.0376188000664,None,305.0376188000664,None,k,1,0.38687729998491704,305.0376188000664,None,,,,,,,,,,,,,6,001,2022_Sep_23_1137,Flanker,2021.2.0,239.71330316211936,
incongruent-left.jpg,0,a,right_arrow.png,right_arrow.png,right_arrow.png,left_arrow.png,right_arrow.png,right_arrow.png,right_arrow.png,,,,,,,,,,,,,5,3,33,1,,,,,305.43775060004555,None,,,,,,,,,,,,,,,,,,,,,,,,,,,,,,306.4471492001321,None,306.4471492001321,None,306.4471492001321,None,306.4471492001321,None,306.4471492001321,None,306.4471492001321,None,306.4471492001321,None,a,1,0.39355610008351505,306.4471492001321,None,,,,,,,,,,,,,6,001,2022_Sep_23_1137,Flanker,2021.2.0,239.71330316211936,
congruent-right.jpg,1,k,right_arrow.png,right_arrow.png,right_arrow.png,right_arrow.png,right_arrow.png,right_arrow.png,right_arrow.png,,,,,,,,,,,,,5,4,34,2,,,,,306.8559122001752,None,,,,,,,,,,,,,,,,,,,,,,,,,,,,,,307.8653265000321,None,307.8653265000321,None,307.8653265000321,None,307.8653265000321,None,307.8653265000321,None,307.8653265000321,None,307.8653265000321,None,k,1,0.6555405000690371,307.8653265000321,None,,,,,,,,,,,,,6,001,2022_Sep_23_1137,Flanker,2021.2.0,239.71330316211936,
neutral right,0,k,neutral.png,neutral.png,neutral.png,right_arrow.png,neutral.png,neutral.png,neutral.png,,,,,,,,,,,,,5,5,35,5,,,,,308.53282890003175,None,,,,,,,,,,,,,,,,,,,,,,,,,,,,,,309.5462944000028,None,309.5462944000028,None,309.5462944000028,None,309.5462944000028,None,309.5462944000028,None,309.5462944000028,None,309.5462944000028,None,k,1,0.47881659981794655,309.5462944000028,None,,,,,,,,,,,,,6,001,2022_Sep_23_1137,Flanker,2021.2.0,239.71330316211936,
incongruent-right.jpg,0,k,left_arrow.png,left_arrow.png,left_arrow.png,right_arrow.png,left_arrow.png,left_arrow.png,left_arrow.png,,,,,,,,,,,,,6,0,36,3,,,,,310.0384592001792,None,,,,,,,,,,,,,,,,,,,,,,,,,,,,,,311.0520244000945,None,311.0520244000945,None,311.0520244000945,None,311.0520244000945,None,311.0520244000945,None,311.0520244000945,None,311.0520244000945,None,k,1,0.4212851000484079,311.0520244000945,None,,,,,,,,,,,,,6,001,2022_Sep_23_1137,Flanker,2021.2.0,239.71330316211936,
incongruent-left.jpg,0,a,right_arrow.png,right_arrow.png,right_arrow.png,left_arrow.png,right_arrow.png,right_arrow.png,right_arrow.png,,,,,,,,,,,,,6,1,37,1,,,,,311.48584450013004,None,,,,,,,,,,,,,,,,,,,,,,,,,,,,,,312.49551949999295,None,312.49551949999295,None,312.49551949999295,None,312.49551949999295,None,312.49551949999295,None,312.49551949999295,None,312.49551949999295,None,a,1,0.4502868000417948,312.49551949999295,None,,,,,,,,,,,,,6,001,2022_Sep_23_1137,Flanker,2021.2.0,239.71330316211936,
incongruent-right.jpg,0,k,left_arrow.png,left_arrow.png,left_arrow.png,right_arrow.png,left_arrow.png,left_arrow.png,left_arrow.png,,,,,,,,,,,,,6,2,38,3,,,,,312.9623939001467,None,,,,,,,,,,,,,,,,,,,,,,,,,,,,,,313.972046200186,None,313.972046200186,None,313.972046200186,None,313.972046200186,None,313.972046200186,None,313.972046200186,None,313.972046200186,None,k,1,0.4136112001724541,313.972046200186,None,,,,,,,,,,,,,6,001,2022_Sep_23_1137,Flanker,2021.2.0,239.71330316211936,
neutral left,0,a,neutral.png,neutral.png,neutral.png,left_arrow.png,neutral.png,neutral.png,neutral.png,,,,,,,,,,,,,6,3,39,4,,,,,314.3972632000223,None,,,,,,,,,,,,,,,,,,,,,,,,,,,,,,315.4108144000638,None,315.4108144000638,None,315.4108144000638,None,315.4108144000638,None,315.4108144000638,None,315.4108144000638,None,315.4108144000638,None,a,1,0.4073151999618858,315.4108144000638,None,,,,,,,,,,,,,6,001,2022_Sep_23_1137,Flanker,2021.2.0,239.71330316211936,
incongruent-right.jpg,0,k,left_arrow.png,left_arrow.png,left_arrow.png,right_arrow.png,left_arrow.png,left_arrow.png,left_arrow.png,,,,,,,,,,,,,6,4,40,3,,,,,315.83652340015396,None,,,,,,,,,,,,,,,,,,,,,,,,,,,,,,316.8456516000442,None,316.8456516000442,None,316.8456516000442,None,316.8456516000442,None,316.8456516000442,None,316.8456516000442,None,316.8456516000442,None,k,1,0.48470199992880225,316.8456516000442,None,,,,,,,,,,,,,6,001,2022_Sep_23_1137,Flanker,2021.2.0,239.71330316211936,
incongruent-left.jpg,0,a,right_arrow.png,right_arrow.png,right_arrow.png,left_arrow.png,right_arrow.png,right_arrow.png,right_arrow.png,,,,,,,,,,,,,6,5,41,1,,,,,317.3464460000396,None,,,,,,,,,,,,,,,,,,,,,,,,,,,,,,318.35571240005083,None,318.35571240005083,None,318.35571240005083,None,318.35571240005083,None,318.35571240005083,None,318.35571240005083,None,318.35571240005083,None,a,1,0.3506171000190079,318.35571240005083,None,,,,,,,,,,,,,6,001,2022_Sep_23_1137,Flanker,2021.2.0,239.71330316211936,
neutral left,0,a,neutral.png,neutral.png,neutral.png,left_arrow.png,neutral.png,neutral.png,neutral.png,,,,,,,,,,,,,7,0,42,4,,,,,318.72266279999167,None,,,,,,,,,,,,,,,,,,,,,,,,,,,,,,319.7324100001715,None,319.7324100001715,None,319.7324100001715,None,319.7324100001715,None,319.7324100001715,None,319.7324100001715,None,319.7324100001715,None,a,1,0.39806849998421967,319.7324100001715,None,,,,,,,,,,,,,6,001,2022_Sep_23_1137,Flanker,2021.2.0,239.71330316211936,
congruent-left.jpg,1,a,left_arrow.png,left_arrow.png,left_arrow.png,left_arrow.png,left_arrow.png,left_arrow.png,left_arrow.png,,,,,,,,,,,,,7,1,43,0,,,,,320.141106700059,None,,,,,,,,,,,,,,,,,,,,,,,,,,,,,,321.15880970004946,None,321.15880970004946,None,321.15880970004946,None,321.15880970004946,None,321.15880970004946,None,321.15880970004946,None,321.15880970004946,None,a,1,0.47620789986103773,321.15880970004946,None,,,,,,,,,,,,,6,001,2022_Sep_23_1137,Flanker,2021.2.0,239.71330316211936,
congruent-left.jpg,1,a,left_arrow.png,left_arrow.png,left_arrow.png,left_arrow.png,left_arrow.png,left_arrow.png,left_arrow.png,,,,,,,,,,,,,7,2,44,0,,,,,321.6510157000739,None,,,,,,,,,,,,,,,,,,,,,,,,,,,,,,322.66039910004474,None,322.66039910004474,None,322.66039910004474,None,322.66039910004474,None,322.66039910004474,None,322.66039910004474,None,322.66039910004474,None,a,1,0.3427675999701023,322.66039910004474,None,,,,,,,,,,,,,6,001,2022_Sep_23_1137,Flanker,2021.2.0,239.71330316211936,
neutral right,0,k,neutral.png,neutral.png,neutral.png,right_arrow.png,neutral.png,neutral.png,neutral.png,,,,,,,,,,,,,7,3,45,5,,,,,323.01912850001827,None,,,,,,,,,,,,,,,,,,,,,,,,,,,,,,324.0282938000746,None,324.0282938000746,None,324.0282938000746,None,324.0282938000746,None,324.0282938000746,None,324.0282938000746,None,324.0282938000746,None,k,1,0.44671560009010136,324.0282938000746,None,,,,,,,,,,,,,6,001,2022_Sep_23_1137,Flanker,2021.2.0,239.71330316211936,
congruent-left.jpg,1,a,left_arrow.png,left_arrow.png,left_arrow.png,left_arrow.png,left_arrow.png,left_arrow.png,left_arrow.png,,,,,,,,,,,,,7,4,46,0,,,,,324.4870957999956,None,,,,,,,,,,,,,,,,,,,,,,,,,,,,,,325.50082140020095,None,325.50082140020095,None,325.50082140020095,None,325.50082140020095,None,325.50082140020095,None,325.50082140020095,None,325.50082140020095,None,a,1,0.38242909987457097,325.50082140020095,None,,,,,,,,,,,,,6,001,2022_Sep_23_1137,Flanker,2021.2.0,239.71330316211936,
neutral right,0,k,neutral.png,neutral.png,neutral.png,right_arrow.png,neutral.png,neutral.png,neutral.png,,,,,,,,,,,,,7,5,47,5,,,,,325.90123110008426,None,,,,,,,,,,,,,,,,,,,,,,,,,,,,,,326.91051369998604,None,326.91051369998604,None,326.91051369998604,None,326.91051369998604,None,326.91051369998604,None,326.91051369998604,None,326.91051369998604,None,k,1,0.42091360013000667,326.91051369998604,None,,,,,,,,,,,,,6,001,2022_Sep_23_1137,Flanker,2021.2.0,239.71330316211936,
,,,,,,,,,,,,,,,,,,,,,,,,,,,,,,,,,,,,,,,,,,,,,,,,,,,,,,,,,,,,,,,,,,,,,,,,,,,,,,,,327.35679200012237,None,space,11.248176699969918,327.35679200012237,None,,,,,,,6,001,2022_Sep_23_1137,Flanker,2021.2.0,239.71330316211936,
,,,,,,,,,,,,,,,,,,,,,,,,,,,,,,,,,,,,,,,,,,,,,,,,,,,,,,,,,,,,,,,,,,,,,,,,,,,,,,,,,,,,,,338.6187080000527,None,space,2.0268602001015097,338.6187080000527,None,6,001,2022_Sep_23_1137,Flanker,2021.2.0,239.71330316211936,
