images,congruentcy,corrAns,arrow_1,arrow_2,arrow_3,target,arrow_5,arrow_6,arrow_7,practice.thisRepN,practice.thisTrialN,practice.thisN,practice.thisIndex,trials.thisRepN,trials.thisTrialN,trials.thisN,trials.thisIndex,trials_2.thisRepN,trials_2.thisTrialN,trials_2.thisN,trials_2.thisIndex,trials_3.thisRepN,trials_3.thisTrialN,trials_3.thisN,trials_3.thisIndex,instr_text.started,instr_text.stopped,instr_resp.keys,instr_resp.rt,polygon.started,polygon.stopped,arrow1_.started,arrow1_.stopped,arrow2_.started,arrow2_.stopped,arrow3_.started,arrow3_.stopped,target_p.started,target_p.stopped,arrow5_.started,arrow5_.stopped,arrow6_.started,arrow6_.stopped,arrow7_.started,arrow7_.stopped,key_resp_P.keys,key_resp_P.corr,key_resp_P.rt,key_resp_P.started,key_resp_P.stopped,text_2.started,text_2.stopped,text_3.started,text_3.stopped,text_4.started,text_4.stopped,key_resp_2.keys,key_resp_2.rt,key_resp_2.started,key_resp_2.stopped,arrow1.started,arrow1.stopped,arrow2.started,arrow2.stopped,arrow3.started,arrow3.stopped,target_t.started,target_t.stopped,arrow5.started,arrow5.stopped,arrow6.started,arrow6.stopped,arrow7.started,arrow7.stopped,key_resp.keys,key_resp.corr,key_resp.rt,key_resp.started,key_resp.stopped,text_5.started,text_5.stopped,key_resp_3.keys,key_resp_3.rt,key_resp_3.started,key_resp_3.stopped,text_6.started,text_6.stopped,key_resp_4.keys,key_resp_4.rt,key_resp_4.started,key_resp_4.stopped,participant,session,date,expName,psychopyVersion,frameRate,
,,,,,,,,,,,,,,,,,,,,,,,,,,13.692389099998763,None,space,38.61405530000047,,,,,,,,,,,,,,,,,,,,,,,,,,,,,,,,,,,,,,,,,,,,,,,,,,,,,,,,,,,,,,,7,001,2022_Sep_28_1518,Flanker,2021.2.0,239.58408203224522,
incongruent-left.jpg,0,a,right_arrow.png,right_arrow.png,right_arrow.png,left_arrow.png,right_arrow.png,right_arrow.png,right_arrow.png,0,0,0,1,,,,,,,,,,,,,,,,,52.336719599999924,None,53.613065699999424,None,53.613065699999424,None,53.613065699999424,None,53.613065699999424,None,53.613065699999424,None,53.613065699999424,None,53.613065699999424,None,a,1,7.118370700000014,53.613065699999424,None,60.75379509999948,None,,,,,,,,,,,,,,,,,,,,,,,,,,,,,,,,,,,,,,,,7,001,2022_Sep_28_1518,Flanker,2021.2.0,239.58408203224522,
neutral right,0,k,neutral.png,neutral.png,neutral.png,right_arrow.png,neutral.png,neutral.png,neutral.png,0,1,1,5,,,,,,,,,,,,,,,,,62.25531020000017,None,63.26484270000037,None,63.26484270000037,None,63.26484270000037,None,63.26484270000037,None,63.26484270000037,None,63.26484270000037,None,63.26484270000037,None,k,1,1.0272389000001567,63.26484270000037,None,64.30759899999975,None,,,,,,,,,,,,,,,,,,,,,,,,,,,,,,,,,,,,,,,,7,001,2022_Sep_28_1518,Flanker,2021.2.0,239.58408203224522,
neutral left,0,a,neutral.png,neutral.png,neutral.png,left_arrow.png,neutral.png,neutral.png,neutral.png,0,2,2,4,,,,,,,,,,,,,,,,,65.8092187000002,None,66.81847170000037,None,66.81847170000037,None,66.81847170000037,None,66.81847170000037,None,66.81847170000037,None,66.81847170000037,None,66.81847170000037,None,a,1,1.0179231999991316,66.81847170000037,None,67.84886220000044,None,,,,,,,,,,,,,,,,,,,,,,,,,,,,,,,,,,,,,,,,7,001,2022_Sep_28_1518,Flanker,2021.2.0,239.58408203224522,
neutral right,0,k,neutral.png,neutral.png,neutral.png,right_arrow.png,neutral.png,neutral.png,neutral.png,0,3,3,5,,,,,,,,,,,,,,,,,69.35046890000012,None,70.35987099999875,None,70.35987099999875,None,70.35987099999875,None,70.35987099999875,None,70.35987099999875,None,70.35987099999875,None,70.35987099999875,None,k,1,0.6209467999997287,70.35987099999875,None,70.99372819999917,None,,,,,,,,,,,,,,,,,,,,,,,,,,,,,,,,,,,,,,,,7,001,2022_Sep_28_1518,Flanker,2021.2.0,239.58408203224522,
neutral left,0,a,neutral.png,neutral.png,neutral.png,left_arrow.png,neutral.png,neutral.png,neutral.png,0,4,4,4,,,,,,,,,,,,,,,,,72.49553749999905,None,73.50486309999906,None,73.50486309999906,None,73.50486309999906,None,73.50486309999906,None,73.50486309999906,None,73.50486309999906,None,73.50486309999906,None,a,1,0.5643799000008585,73.50486309999906,None,74.08883869999954,None,,,,,,,,,,,,,,,,,,,,,,,,,,,,,,,,,,,,,,,,7,001,2022_Sep_28_1518,Flanker,2021.2.0,239.58408203224522,
incongruent-left.jpg,0,a,right_arrow.png,right_arrow.png,right_arrow.png,left_arrow.png,right_arrow.png,right_arrow.png,right_arrow.png,0,5,5,1,,,,,,,,,,,,,,,,,75.59029949999967,None,76.5998442,None,76.5998442,None,76.5998442,None,76.5998442,None,76.5998442,None,76.5998442,None,76.5998442,None,a,1,1.6701783999997133,76.5998442,None,78.28502110000045,None,,,,,,,,,,,,,,,,,,,,,,,,,,,,,,,,,,,,,,,,7,001,2022_Sep_28_1518,Flanker,2021.2.0,239.58408203224522,
neutral left,0,a,neutral.png,neutral.png,neutral.png,left_arrow.png,neutral.png,neutral.png,neutral.png,1,0,6,4,,,,,,,,,,,,,,,,,79.79053459999886,None,80.80005789999996,None,80.80005789999996,None,80.80005789999996,None,80.80005789999996,None,80.80005789999996,None,80.80005789999996,None,80.80005789999996,None,a,1,0.5023457000006601,80.80005789999996,None,81.31735060000028,None,,,,,,,,,,,,,,,,,,,,,,,,,,,,,,,,,,,,,,,,7,001,2022_Sep_28_1518,Flanker,2021.2.0,239.58408203224522,
incongruent-right.jpg,0,k,left_arrow.png,left_arrow.png,left_arrow.png,right_arrow.png,left_arrow.png,left_arrow.png,left_arrow.png,1,1,7,3,,,,,,,,,,,,,,,,,82.8229371999987,None,83.83265799999936,None,83.83265799999936,None,83.83265799999936,None,83.83265799999936,None,83.83265799999936,None,83.83265799999936,None,83.83265799999936,None,k,1,0.6460554000004777,83.83265799999936,None,84.49153549999937,None,,,,,,,,,,,,,,,,,,,,,,,,,,,,,,,,,,,,,,,,7,001,2022_Sep_28_1518,Flanker,2021.2.0,239.58408203224522,
congruent-right.jpg,1,k,right_arrow.png,right_arrow.png,right_arrow.png,right_arrow.png,right_arrow.png,right_arrow.png,right_arrow.png,1,2,8,2,,,,,,,,,,,,,,,,,85.99300889999904,None,87.00241800000003,None,87.00241800000003,None,87.00241800000003,None,87.00241800000003,None,87.00241800000003,None,87.00241800000003,None,87.00241800000003,None,k,1,0.6208523000004789,87.00241800000003,None,87.63652910000019,None,,,,,,,,,,,,,,,,,,,,,,,,,,,,,,,,,,,,,,,,7,001,2022_Sep_28_1518,Flanker,2021.2.0,239.58408203224522,
congruent-left.jpg,1,a,left_arrow.png,left_arrow.png,left_arrow.png,left_arrow.png,left_arrow.png,left_arrow.png,left_arrow.png,1,3,9,0,,,,,,,,,,,,,,,,,89.14229799999885,None,90.1519429,None,90.1519429,None,90.1519429,None,90.1519429,None,90.1519429,None,90.1519429,None,90.1519429,None,a,1,0.6155524000005244,90.1519429,None,90.78556319999916,None,,,,,,,,,,,,,,,,,,,,,,,,,,,,,,,,,,,,,,,,7,001,2022_Sep_28_1518,Flanker,2021.2.0,239.58408203224522,
incongruent-right.jpg,0,k,left_arrow.png,left_arrow.png,left_arrow.png,right_arrow.png,left_arrow.png,left_arrow.png,left_arrow.png,1,4,10,3,,,,,,,,,,,,,,,,,92.28755999999885,None,93.30087989999993,None,93.30087989999993,None,93.30087989999993,None,93.30087989999993,None,93.30087989999993,None,93.30087989999993,None,93.30087989999993,None,k,1,0.5790707999985898,93.30087989999993,None,93.89322530000027,None,,,,,,,,,,,,,,,,,,,,,,,,,,,,,,,,,,,,,,,,7,001,2022_Sep_28_1518,Flanker,2021.2.0,239.58408203224522,
incongruent-left.jpg,0,a,right_arrow.png,right_arrow.png,right_arrow.png,left_arrow.png,right_arrow.png,right_arrow.png,right_arrow.png,1,5,11,1,,,,,,,,,,,,,,,,,95.39880189999894,None,96.40835489999881,None,96.40835489999881,None,96.40835489999881,None,96.40835489999881,None,96.40835489999881,None,96.40835489999881,None,96.40835489999881,None,a,1,0.5521560000015597,96.40835489999881,None,96.9757787999988,None,,,,,,,,,,,,,,,,,,,,,,,,,,,,,,,,,,,,,,,,7,001,2022_Sep_28_1518,Flanker,2021.2.0,239.58408203224522,
incongruent-right.jpg,0,k,left_arrow.png,left_arrow.png,left_arrow.png,right_arrow.png,left_arrow.png,left_arrow.png,left_arrow.png,2,0,12,3,,,,,,,,,,,,,,,,,98.47720649999974,None,99.48662119999972,None,99.48662119999972,None,99.48662119999972,None,99.48662119999972,None,99.48662119999972,None,99.48662119999972,None,99.48662119999972,None,k,1,0.4823716000009881,99.48662119999972,None,99.98713359999965,None,,,,,,,,,,,,,,,,,,,,,,,,,,,,,,,,,,,,,,,,7,001,2022_Sep_28_1518,Flanker,2021.2.0,239.58408203224522,
congruent-right.jpg,1,k,right_arrow.png,right_arrow.png,right_arrow.png,right_arrow.png,right_arrow.png,right_arrow.png,right_arrow.png,2,1,13,2,,,,,,,,,,,,,,,,,101.48889479999889,None,102.50217840000005,None,102.50217840000005,None,102.50217840000005,None,102.50217840000005,None,102.50217840000005,None,102.50217840000005,None,102.50217840000005,None,k,1,0.6431608000002598,102.50217840000005,None,103.1614085000001,None,,,,,,,,,,,,,,,,,,,,,,,,,,,,,,,,,,,,,,,,7,001,2022_Sep_28_1518,Flanker,2021.2.0,239.58408203224522,
incongruent-left.jpg,0,a,right_arrow.png,right_arrow.png,right_arrow.png,left_arrow.png,right_arrow.png,right_arrow.png,right_arrow.png,2,2,14,1,,,,,,,,,,,,,,,,,104.66293699999915,None,105.6765104999995,None,105.6765104999995,None,105.6765104999995,None,105.6765104999995,None,105.6765104999995,None,105.6765104999995,None,105.6765104999995,None,a,1,0.5332183000009536,105.6765104999995,None,106.2272479000003,None,,,,,,,,,,,,,,,,,,,,,,,,,,,,,,,,,,,,,,,,7,001,2022_Sep_28_1518,Flanker,2021.2.0,239.58408203224522,
congruent-left.jpg,1,a,left_arrow.png,left_arrow.png,left_arrow.png,left_arrow.png,left_arrow.png,left_arrow.png,left_arrow.png,2,3,15,0,,,,,,,,,,,,,,,,,107.73270950000006,None,108.7422587000001,None,108.7422587000001,None,108.7422587000001,None,108.7422587000001,None,108.7422587000001,None,108.7422587000001,None,108.7422587000001,None,a,1,0.5237800999984756,108.7422587000001,None,109.28444739999941,None,,,,,,,,,,,,,,,,,,,,,,,,,,,,,,,,,,,,,,,,7,001,2022_Sep_28_1518,Flanker,2021.2.0,239.58408203224522,
incongruent-right.jpg,0,k,left_arrow.png,left_arrow.png,left_arrow.png,right_arrow.png,left_arrow.png,left_arrow.png,left_arrow.png,2,4,16,3,,,,,,,,,,,,,,,,,110.79025809999985,None,111.79984479999985,None,111.79984479999985,None,111.79984479999985,None,111.79984479999985,None,111.79984479999985,None,111.79984479999985,None,111.79984479999985,None,k,1,0.4826084999986051,111.79984479999985,None,112.30007569999907,None,,,,,,,,,,,,,,,,,,,,,,,,,,,,,,,,,,,,,,,,7,001,2022_Sep_28_1518,Flanker,2021.2.0,239.58408203224522,
congruent-left.jpg,1,a,left_arrow.png,left_arrow.png,left_arrow.png,left_arrow.png,left_arrow.png,left_arrow.png,left_arrow.png,2,5,17,0,,,,,,,,,,,,,,,,,113.80166949999875,None,114.80643149999923,None,114.80643149999923,None,114.80643149999923,None,114.80643149999923,None,114.80643149999923,None,114.80643149999923,None,114.80643149999923,None,a,1,0.5644498000001477,114.80643149999923,None,115.38664319999953,None,,,,,,,,,,,,,,,,,,,,,,,,,,,,,,,,,,,,,,,,7,001,2022_Sep_28_1518,Flanker,2021.2.0,239.58408203224522,
neutral right,0,k,neutral.png,neutral.png,neutral.png,right_arrow.png,neutral.png,neutral.png,neutral.png,3,0,18,5,,,,,,,,,,,,,,,,,116.8883451999991,None,117.89762989999872,None,117.89762989999872,None,117.89762989999872,None,117.89762989999872,None,117.89762989999872,None,117.89762989999872,None,117.89762989999872,None,k,1,0.5136071999986598,117.89762989999872,None,118.4232293999994,None,,,,,,,,,,,,,,,,,,,,,,,,,,,,,,,,,,,,,,,,7,001,2022_Sep_28_1518,Flanker,2021.2.0,239.58408203224522,
congruent-right.jpg,1,k,right_arrow.png,right_arrow.png,right_arrow.png,right_arrow.png,right_arrow.png,right_arrow.png,right_arrow.png,3,1,19,2,,,,,,,,,,,,,,,,,119.92480179999984,None,120.93835249999938,None,120.93835249999938,None,120.93835249999938,None,120.93835249999938,None,120.93835249999938,None,120.93835249999938,None,120.93835249999938,None,k,1,0.5453606999999465,120.93835249999938,None,121.4972848999987,None,,,,,,,,,,,,,,,,,,,,,,,,,,,,,,,,,,,,,,,,7,001,2022_Sep_28_1518,Flanker,2021.2.0,239.58408203224522,
congruent-right.jpg,1,k,right_arrow.png,right_arrow.png,right_arrow.png,right_arrow.png,right_arrow.png,right_arrow.png,right_arrow.png,3,2,20,2,,,,,,,,,,,,,,,,,122.99903879999874,None,124.00827899999967,None,124.00827899999967,None,124.00827899999967,None,124.00827899999967,None,124.00827899999967,None,124.00827899999967,None,124.00827899999967,None,k,1,0.4517995999995037,124.00827899999967,None,124.47545460000038,None,,,,,,,,,,,,,,,,,,,,,,,,,,,,,,,,,,,,,,,,7,001,2022_Sep_28_1518,Flanker,2021.2.0,239.58408203224522,
congruent-left.jpg,1,a,left_arrow.png,left_arrow.png,left_arrow.png,left_arrow.png,left_arrow.png,left_arrow.png,left_arrow.png,3,3,21,0,,,,,,,,,,,,,,,,,125.98122200000034,None,126.99076529999911,None,126.99076529999911,None,126.99076529999911,None,126.99076529999911,None,126.99076529999911,None,126.99076529999911,None,126.99076529999911,None,a,1,0.637749999999869,126.99076529999911,None,127.64130759999898,None,,,,,,,,,,,,,,,,,,,,,,,,,,,,,,,,,,,,,,,,7,001,2022_Sep_28_1518,Flanker,2021.2.0,239.58408203224522,
neutral left,0,a,neutral.png,neutral.png,neutral.png,left_arrow.png,neutral.png,neutral.png,neutral.png,3,4,22,4,,,,,,,,,,,,,,,,,129.14709889999904,None,130.15650749999986,None,130.15650749999986,None,130.15650749999986,None,130.15650749999986,None,130.15650749999986,None,130.15650749999986,None,130.15650749999986,None,a,1,0.5046454000002996,130.15650749999986,None,130.67372009999963,None,,,,,,,,,,,,,,,,,,,,,,,,,,,,,,,,,,,,,,,,7,001,2022_Sep_28_1518,Flanker,2021.2.0,239.58408203224522,
neutral right,0,k,neutral.png,neutral.png,neutral.png,right_arrow.png,neutral.png,neutral.png,neutral.png,3,5,23,5,,,,,,,,,,,,,,,,,132.1752962999999,None,133.18050459999904,None,133.18050459999904,None,133.18050459999904,None,133.18050459999904,None,133.18050459999904,None,133.18050459999904,None,133.18050459999904,None,k,1,0.45685360000061337,133.18050459999904,None,133.65609289999884,None,,,,,,,,,,,,,,,,,,,,,,,,,,,,,,,,,,,,,,,,7,001,2022_Sep_28_1518,Flanker,2021.2.0,239.58408203224522,
,,,,,,,,,,,,,,,,,,,,,,,,,,,,,,,,,,,,,,,,,,,,,,,,,,,,,135.18684939999912,None,137.16394670000045,None,space,13.739724999999453,137.16394670000045,None,,,,,,,,,,,,,,,,,,,,,,,,,,,,,,,,7,001,2022_Sep_28_1518,Flanker,2021.2.0,239.58408203224522,
incongruent-left.jpg,0,a,right_arrow.png,right_arrow.png,right_arrow.png,left_arrow.png,right_arrow.png,right_arrow.png,right_arrow.png,,,,,0,0,0,1,,,,,,,,,,,,,150.92433580000034,None,,,,,,,,,,,,,,,,,,,,,,,,,,,,,,151.9295564999993,None,151.9295564999993,None,151.9295564999993,None,151.9295564999993,None,151.9295564999993,None,151.9295564999993,None,151.9295564999993,None,a,1,0.6945407000002888,151.9295564999993,None,,,,,,,,,,,,,7,001,2022_Sep_28_1518,Flanker,2021.2.0,239.58408203224522,
neutral left,0,a,neutral.png,neutral.png,neutral.png,left_arrow.png,neutral.png,neutral.png,neutral.png,,,,,0,1,1,4,,,,,,,,,,,,,152.63878870000008,None,,,,,,,,,,,,,,,,,,,,,,,,,,,,,,153.65641219999998,None,153.65641219999998,None,153.65641219999998,None,153.65641219999998,None,153.65641219999998,None,153.65641219999998,None,153.65641219999998,None,a,1,0.5037102000005689,153.65641219999998,None,,,,,,,,,,,,,7,001,2022_Sep_28_1518,Flanker,2021.2.0,239.58408203224522,
congruent-left.jpg,1,a,left_arrow.png,left_arrow.png,left_arrow.png,left_arrow.png,left_arrow.png,left_arrow.png,left_arrow.png,,,,,0,2,2,0,,,,,,,,,,,,,154.17361999999957,None,,,,,,,,,,,,,,,,,,,,,,,,,,,,,,155.1871730999992,None,155.1871730999992,None,155.1871730999992,None,155.1871730999992,None,155.1871730999992,None,155.1871730999992,None,155.1871730999992,None,a,1,0.5493365999991511,155.1871730999992,None,,,,,,,,,,,,,7,001,2022_Sep_28_1518,Flanker,2021.2.0,239.58408203224522,
neutral right,0,k,neutral.png,neutral.png,neutral.png,right_arrow.png,neutral.png,neutral.png,neutral.png,,,,,0,3,3,5,,,,,,,,,,,,,155.75445279999985,None,,,,,,,,,,,,,,,,,,,,,,,,,,,,,,156.76804889999949,None,156.76804889999949,None,156.76804889999949,None,156.76804889999949,None,156.76804889999949,None,156.76804889999949,None,156.76804889999949,None,k,1,0.5365017000003718,156.76804889999949,None,,,,,,,,,,,,,7,001,2022_Sep_28_1518,Flanker,2021.2.0,239.58408203224522,
neutral left,0,a,neutral.png,neutral.png,neutral.png,left_arrow.png,neutral.png,neutral.png,neutral.png,,,,,0,4,4,4,,,,,,,,,,,,,157.31882330000008,None,,,,,,,,,,,,,,,,,,,,,,,,,,,,,,158.33220529999926,None,158.33220529999926,None,158.33220529999926,None,158.33220529999926,None,158.33220529999926,None,158.33220529999926,None,158.33220529999926,None,a,1,0.5408831999993708,158.33220529999926,None,,,,,,,,,,,,,7,001,2022_Sep_28_1518,Flanker,2021.2.0,239.58408203224522,
congruent-right.jpg,1,k,right_arrow.png,right_arrow.png,right_arrow.png,right_arrow.png,right_arrow.png,right_arrow.png,right_arrow.png,,,,,0,5,5,2,,,,,,,,,,,,,158.89112769999883,None,,,,,,,,,,,,,,,,,,,,,,,,,,,,,,159.900662,None,159.900662,None,159.900662,None,159.900662,None,159.900662,None,159.900662,None,159.900662,None,k,1,0.5643476000004739,159.900662,None,,,,,,,,,,,,,7,001,2022_Sep_28_1518,Flanker,2021.2.0,239.58408203224522,
incongruent-left.jpg,0,a,right_arrow.png,right_arrow.png,right_arrow.png,left_arrow.png,right_arrow.png,right_arrow.png,right_arrow.png,,,,,1,0,6,1,,,,,,,,,,,,,160.47614919999978,None,,,,,,,,,,,,,,,,,,,,,,,,,,,,,,161.48568589999923,None,161.48568589999923,None,161.48568589999923,None,161.48568589999923,None,161.48568589999923,None,161.48568589999923,None,161.48568589999923,None,a,1,0.6035102000005281,161.48568589999923,None,,,,,,,,,,,,,7,001,2022_Sep_28_1518,Flanker,2021.2.0,239.58408203224522,
congruent-right.jpg,1,k,right_arrow.png,right_arrow.png,right_arrow.png,right_arrow.png,right_arrow.png,right_arrow.png,right_arrow.png,,,,,1,1,7,2,,,,,,,,,,,,,162.10287160000007,None,,,,,,,,,,,,,,,,,,,,,,,,,,,,,,163.11675709999872,None,163.11675709999872,None,163.11675709999872,None,163.11675709999872,None,163.11675709999872,None,163.11675709999872,None,163.11675709999872,None,k,1,0.572603299999173,163.11675709999872,None,,,,,,,,,,,,,7,001,2022_Sep_28_1518,Flanker,2021.2.0,239.58408203224522,
neutral left,0,a,neutral.png,neutral.png,neutral.png,left_arrow.png,neutral.png,neutral.png,neutral.png,,,,,1,2,8,4,,,,,,,,,,,,,163.70872539999982,None,,,,,,,,,,,,,,,,,,,,,,,,,,,,,,164.72228259999974,None,164.72228259999974,None,164.72228259999974,None,164.72228259999974,None,164.72228259999974,None,164.72228259999974,None,164.72228259999974,None,a,1,0.5993796000002476,164.72228259999974,None,,,,,,,,,,,,,7,001,2022_Sep_28_1518,Flanker,2021.2.0,239.58408203224522,
neutral right,0,k,neutral.png,neutral.png,neutral.png,right_arrow.png,neutral.png,neutral.png,neutral.png,,,,,1,3,9,5,,,,,,,,,,,,,165.3396873999991,None,,,,,,,,,,,,,,,,,,,,,,,,,,,,,,166.34904169999936,None,166.34904169999936,None,166.34904169999936,None,166.34904169999936,None,166.34904169999936,None,166.34904169999936,None,166.34904169999936,None,k,1,0.5648270999990928,166.34904169999936,None,,,,,,,,,,,,,7,001,2022_Sep_28_1518,Flanker,2021.2.0,239.58408203224522,
incongruent-left.jpg,0,a,right_arrow.png,right_arrow.png,right_arrow.png,left_arrow.png,right_arrow.png,right_arrow.png,right_arrow.png,,,,,1,4,10,1,,,,,,,,,,,,,166.9329727000004,None,,,,,,,,,,,,,,,,,,,,,,,,,,,,,,167.94289779999963,None,167.94289779999963,None,167.94289779999963,None,167.94289779999963,None,167.94289779999963,None,167.94289779999963,None,167.94289779999963,None,a,1,0.5711566999998468,167.94289779999963,None,,,,,,,,,,,,,7,001,2022_Sep_28_1518,Flanker,2021.2.0,239.58408203224522,
neutral left,0,a,neutral.png,neutral.png,neutral.png,left_arrow.png,neutral.png,neutral.png,neutral.png,,,,,1,5,11,4,,,,,,,,,,,,,168.52634839999882,None,,,,,,,,,,,,,,,,,,,,,,,,,,,,,,169.53574920000028,None,169.53574920000028,None,169.53574920000028,None,169.53574920000028,None,169.53574920000028,None,169.53574920000028,None,169.53574920000028,None,a,1,0.5546608999993623,169.53574920000028,None,,,,,,,,,,,,,7,001,2022_Sep_28_1518,Flanker,2021.2.0,239.58408203224522,
incongruent-right.jpg,0,k,left_arrow.png,left_arrow.png,left_arrow.png,right_arrow.png,left_arrow.png,left_arrow.png,left_arrow.png,,,,,2,0,12,3,,,,,,,,,,,,,170.10299920000034,None,,,,,,,,,,,,,,,,,,,,,,,,,,,,,,171.1207691999989,None,171.1207691999989,None,171.1207691999989,None,171.1207691999989,None,171.1207691999989,None,171.1207691999989,None,171.1207691999989,None,k,1,0.51368790000015,171.1207691999989,None,,,,,,,,,,,,,7,001,2022_Sep_28_1518,Flanker,2021.2.0,239.58408203224522,
incongruent-right.jpg,0,k,left_arrow.png,left_arrow.png,left_arrow.png,right_arrow.png,left_arrow.png,left_arrow.png,left_arrow.png,,,,,2,1,13,3,,,,,,,,,,,,,171.64632789999996,None,,,,,,,,,,,,,,,,,,,,,,,,,,,,,,172.6557114999996,None,172.6557114999996,None,172.6557114999996,None,172.6557114999996,None,172.6557114999996,None,172.6557114999996,None,172.6557114999996,None,k,1,0.5710130000006757,172.6557114999996,None,,,,,,,,,,,,,7,001,2022_Sep_28_1518,Flanker,2021.2.0,239.58408203224522,
neutral right,0,k,neutral.png,neutral.png,neutral.png,right_arrow.png,neutral.png,neutral.png,neutral.png,,,,,2,2,14,5,,,,,,,,,,,,,173.23967429999902,None,,,,,,,,,,,,,,,,,,,,,,,,,,,,,,174.25322699999924,None,174.25322699999924,None,174.25322699999924,None,174.25322699999924,None,174.25322699999924,None,174.25322699999924,None,174.25322699999924,None,k,1,0.5817024000007223,174.25322699999924,None,,,,,,,,,,,,,7,001,2022_Sep_28_1518,Flanker,2021.2.0,239.58408203224522,
incongruent-left.jpg,0,a,right_arrow.png,right_arrow.png,right_arrow.png,left_arrow.png,right_arrow.png,right_arrow.png,right_arrow.png,,,,,2,3,15,1,,,,,,,,,,,,,174.8538755999998,None,,,,,,,,,,,,,,,,,,,,,,,,,,,,,,175.86327979999987,None,175.86327979999987,None,175.86327979999987,None,175.86327979999987,None,175.86327979999987,None,175.86327979999987,None,175.86327979999987,None,a,1,0.4999865999998292,175.86327979999987,None,,,,,,,,,,,,,7,001,2022_Sep_28_1518,Flanker,2021.2.0,239.58408203224522,
congruent-right.jpg,1,k,right_arrow.png,right_arrow.png,right_arrow.png,right_arrow.png,right_arrow.png,right_arrow.png,right_arrow.png,,,,,2,4,16,2,,,,,,,,,,,,,176.38049779999892,None,,,,,,,,,,,,,,,,,,,,,,,,,,,,,,177.39421889999903,None,177.39421889999903,None,177.39421889999903,None,177.39421889999903,None,177.39421889999903,None,177.39421889999903,None,177.39421889999903,None,k,1,0.5531594999993104,177.39421889999903,None,,,,,,,,,,,,,7,001,2022_Sep_28_1518,Flanker,2021.2.0,239.58408203224522,
neutral left,0,a,neutral.png,neutral.png,neutral.png,left_arrow.png,neutral.png,neutral.png,neutral.png,,,,,2,5,17,4,,,,,,,,,,,,,177.96148530000028,None,,,,,,,,,,,,,,,,,,,,,,,,,,,,,,178.97492690000036,None,178.97492690000036,None,178.97492690000036,None,178.97492690000036,None,178.97492690000036,None,178.97492690000036,None,178.97492690000036,None,a,1,0.4846558000008372,178.97492690000036,None,,,,,,,,,,,,,7,001,2022_Sep_28_1518,Flanker,2021.2.0,239.58408203224522,
congruent-right.jpg,1,k,right_arrow.png,right_arrow.png,right_arrow.png,right_arrow.png,right_arrow.png,right_arrow.png,right_arrow.png,,,,,3,0,18,2,,,,,,,,,,,,,179.475461,None,,,,,,,,,,,,,,,,,,,,,,,,,,,,,,180.4848951999993,None,180.4848951999993,None,180.4848951999993,None,180.4848951999993,None,180.4848951999993,None,180.4848951999993,None,180.4848951999993,None,k,1,0.5188584999996237,180.4848951999993,None,,,,,,,,,,,,,7,001,2022_Sep_28_1518,Flanker,2021.2.0,239.58408203224522,
incongruent-right.jpg,0,k,left_arrow.png,left_arrow.png,left_arrow.png,right_arrow.png,left_arrow.png,left_arrow.png,left_arrow.png,,,,,3,1,19,3,,,,,,,,,,,,,181.01872340000045,None,,,,,,,,,,,,,,,,,,,,,,,,,,,,,,182.03229180000017,None,182.03229180000017,None,182.03229180000017,None,182.03229180000017,None,182.03229180000017,None,182.03229180000017,None,182.03229180000017,None,k,1,0.5958356999999523,182.03229180000017,None,,,,,,,,,,,,,7,001,2022_Sep_28_1518,Flanker,2021.2.0,239.58408203224522,
congruent-left.jpg,1,a,left_arrow.png,left_arrow.png,left_arrow.png,left_arrow.png,left_arrow.png,left_arrow.png,left_arrow.png,,,,,3,2,20,0,,,,,,,,,,,,,182.64546979999977,None,,,,,,,,,,,,,,,,,,,,,,,,,,,,,,183.65906410000025,None,183.65906410000025,None,183.65906410000025,None,183.65906410000025,None,183.65906410000025,None,183.65906410000025,None,183.65906410000025,None,a,1,0.5051158999995096,183.65906410000025,None,,,,,,,,,,,,,7,001,2022_Sep_28_1518,Flanker,2021.2.0,239.58408203224522,
congruent-left.jpg,1,a,left_arrow.png,left_arrow.png,left_arrow.png,left_arrow.png,left_arrow.png,left_arrow.png,left_arrow.png,,,,,3,3,21,0,,,,,,,,,,,,,184.17657680000048,None,,,,,,,,,,,,,,,,,,,,,,,,,,,,,,185.1857156999995,None,185.1857156999995,None,185.1857156999995,None,185.1857156999995,None,185.1857156999995,None,185.1857156999995,None,185.1857156999995,None,a,1,0.5146715000009863,185.1857156999995,None,,,,,,,,,,,,,7,001,2022_Sep_28_1518,Flanker,2021.2.0,239.58408203224522,
incongruent-right.jpg,0,k,left_arrow.png,left_arrow.png,left_arrow.png,right_arrow.png,left_arrow.png,left_arrow.png,left_arrow.png,,,,,3,4,22,3,,,,,,,,,,,,,185.71968449999986,None,,,,,,,,,,,,,,,,,,,,,,,,,,,,,,186.72896169999876,None,186.72896169999876,None,186.72896169999876,None,186.72896169999876,None,186.72896169999876,None,186.72896169999876,None,186.72896169999876,None,k,1,0.5476552999989508,186.72896169999876,None,,,,,,,,,,,,,7,001,2022_Sep_28_1518,Flanker,2021.2.0,239.58408203224522,
congruent-left.jpg,1,a,left_arrow.png,left_arrow.png,left_arrow.png,left_arrow.png,left_arrow.png,left_arrow.png,left_arrow.png,,,,,3,5,23,0,,,,,,,,,,,,,187.28786369999943,None,,,,,,,,,,,,,,,,,,,,,,,,,,,,,,188.2972893999995,None,188.2972893999995,None,188.2972893999995,None,188.2972893999995,None,188.2972893999995,None,188.2972893999995,None,188.2972893999995,None,a,1,0.883584699999119,188.2972893999995,None,,,,,,,,,,,,,7,001,2022_Sep_28_1518,Flanker,2021.2.0,239.58408203224522,
congruent-right.jpg,1,k,right_arrow.png,right_arrow.png,right_arrow.png,right_arrow.png,right_arrow.png,right_arrow.png,right_arrow.png,,,,,4,0,24,2,,,,,,,,,,,,,189.19824829999925,None,,,,,,,,,,,,,,,,,,,,,,,,,,,,,,190.20778830000017,None,190.20778830000017,None,190.20778830000017,None,190.20778830000017,None,190.20778830000017,None,190.20778830000017,None,190.20778830000017,None,k,1,0.6533324000010907,190.20778830000017,None,,,,,,,,,,,,,7,001,2022_Sep_28_1518,Flanker,2021.2.0,239.58408203224522,
incongruent-left.jpg,0,a,right_arrow.png,right_arrow.png,right_arrow.png,left_arrow.png,right_arrow.png,right_arrow.png,right_arrow.png,,,,,4,1,25,1,,,,,,,,,,,,,190.8750111999998,None,,,,,,,,,,,,,,,,,,,,,,,,,,,,,,191.8886010999995,None,191.8886010999995,None,191.8886010999995,None,191.8886010999995,None,191.8886010999995,None,191.8886010999995,None,191.8886010999995,None,a,1,0.7007529999991675,191.8886010999995,None,,,,,,,,,,,,,7,001,2022_Sep_28_1518,Flanker,2021.2.0,239.58408203224522,
neutral right,0,k,neutral.png,neutral.png,neutral.png,right_arrow.png,neutral.png,neutral.png,neutral.png,,,,,4,2,26,5,,,,,,,,,,,,,192.6061049,None,,,,,,,,,,,,,,,,,,,,,,,,,,,,,,193.615448999999,None,193.615448999999,None,193.615448999999,None,193.615448999999,None,193.615448999999,None,193.615448999999,None,193.615448999999,None,k,1,0.6221201000007568,193.615448999999,None,,,,,,,,,,,,,7,001,2022_Sep_28_1518,Flanker,2021.2.0,239.58408203224522,
neutral left,0,a,neutral.png,neutral.png,neutral.png,left_arrow.png,neutral.png,neutral.png,neutral.png,,,,,4,3,27,4,,,,,,,,,,,,,194.2495171999999,None,,,,,,,,,,,,,,,,,,,,,,,,,,,,,,195.25898589999997,None,195.25898589999997,None,195.25898589999997,None,195.25898589999997,None,195.25898589999997,None,195.25898589999997,None,195.25898589999997,None,a,1,0.6428464999989956,195.25898589999997,None,,,,,,,,,,,,,7,001,2022_Sep_28_1518,Flanker,2021.2.0,239.58408203224522,
incongruent-left.jpg,0,a,right_arrow.png,right_arrow.png,right_arrow.png,left_arrow.png,right_arrow.png,right_arrow.png,right_arrow.png,,,,,4,4,28,1,,,,,,,,,,,,,195.91788689999885,None,,,,,,,,,,,,,,,,,,,,,,,,,,,,,,196.93156799999997,None,196.93156799999997,None,196.93156799999997,None,196.93156799999997,None,196.93156799999997,None,196.93156799999997,None,196.93156799999997,None,a,1,0.642592500000319,196.93156799999997,None,,,,,,,,,,,,,7,001,2022_Sep_28_1518,Flanker,2021.2.0,239.58408203224522,
neutral right,0,k,neutral.png,neutral.png,neutral.png,right_arrow.png,neutral.png,neutral.png,neutral.png,,,,,4,5,29,5,,,,,,,,,,,,,197.5906199000001,None,,,,,,,,,,,,,,,,,,,,,,,,,,,,,,198.60838879999937,None,198.60838879999937,None,198.60838879999937,None,198.60838879999937,None,198.60838879999937,None,198.60838879999937,None,198.60838879999937,None,k,1,0.5500185000000783,198.60838879999937,None,,,,,,,,,,,,,7,001,2022_Sep_28_1518,Flanker,2021.2.0,239.58408203224522,
incongruent-right.jpg,0,k,left_arrow.png,left_arrow.png,left_arrow.png,right_arrow.png,left_arrow.png,left_arrow.png,left_arrow.png,,,,,5,0,30,3,,,,,,,,,,,,,199.17564649999986,None,,,,,,,,,,,,,,,,,,,,,,,,,,,,,,200.1850388999992,None,200.1850388999992,None,200.1850388999992,None,200.1850388999992,None,200.1850388999992,None,200.1850388999992,None,200.1850388999992,None,k,1,0.6774457999999868,200.1850388999992,None,,,,,,,,,,,,,7,001,2022_Sep_28_1518,Flanker,2021.2.0,239.58408203224522,
neutral left,0,a,neutral.png,neutral.png,neutral.png,left_arrow.png,neutral.png,neutral.png,neutral.png,,,,,5,1,31,4,,,,,,,,,,,,,200.8774902999994,None,,,,,,,,,,,,,,,,,,,,,,,,,,,,,,201.89101850000043,None,201.89101850000043,None,201.89101850000043,None,201.89101850000043,None,201.89101850000043,None,201.89101850000043,None,201.89101850000043,None,a,1,0.883852000000843,201.89101850000043,None,,,,,,,,,,,,,7,001,2022_Sep_28_1518,Flanker,2021.2.0,239.58408203224522,
incongruent-right.jpg,0,k,left_arrow.png,left_arrow.png,left_arrow.png,right_arrow.png,left_arrow.png,left_arrow.png,left_arrow.png,,,,,5,2,32,3,,,,,,,,,,,,,202.7918484999991,None,,,,,,,,,,,,,,,,,,,,,,,,,,,,,,203.8055521999995,None,203.8055521999995,None,203.8055521999995,None,203.8055521999995,None,203.8055521999995,None,203.8055521999995,None,203.8055521999995,None,k,1,0.5376026999983878,203.8055521999995,None,,,,,,,,,,,,,7,001,2022_Sep_28_1518,Flanker,2021.2.0,239.58408203224522,
neutral left,0,a,neutral.png,neutral.png,neutral.png,left_arrow.png,neutral.png,neutral.png,neutral.png,,,,,5,3,33,4,,,,,,,,,,,,,204.35627229999955,None,,,,,,,,,,,,,,,,,,,,,,,,,,,,,,205.3655945999999,None,205.3655945999999,None,205.3655945999999,None,205.3655945999999,None,205.3655945999999,None,205.3655945999999,None,205.3655945999999,None,a,1,0.6417464000005566,205.3655945999999,None,,,,,,,,,,,,,7,001,2022_Sep_28_1518,Flanker,2021.2.0,239.58408203224522,
neutral right,0,k,neutral.png,neutral.png,neutral.png,right_arrow.png,neutral.png,neutral.png,neutral.png,,,,,5,4,34,5,,,,,,,,,,,,,206.02455849999933,None,,,,,,,,,,,,,,,,,,,,,,,,,,,,,,207.02980519999983,None,207.02980519999983,None,207.02980519999983,None,207.02980519999983,None,207.02980519999983,None,207.02980519999983,None,207.02980519999983,None,k,1,0.6417438000007678,207.02980519999983,None,,,,,,,,,,,,,7,001,2022_Sep_28_1518,Flanker,2021.2.0,239.58408203224522,
congruent-right.jpg,1,k,right_arrow.png,right_arrow.png,right_arrow.png,right_arrow.png,right_arrow.png,right_arrow.png,right_arrow.png,,,,,5,5,35,2,,,,,,,,,,,,,207.6888199999994,None,,,,,,,,,,,,,,,,,,,,,,,,,,,,,,208.70657839999876,None,208.70657839999876,None,208.70657839999876,None,208.70657839999876,None,208.70657839999876,None,208.70657839999876,None,208.70657839999876,None,k,1,1.8694132000000536,208.70657839999876,None,,,,,,,,,,,,,7,001,2022_Sep_28_1518,Flanker,2021.2.0,239.58408203224522,
congruent-left.jpg,1,a,left_arrow.png,left_arrow.png,left_arrow.png,left_arrow.png,left_arrow.png,left_arrow.png,left_arrow.png,,,,,6,0,36,0,,,,,,,,,,,,,210.5920105999994,None,,,,,,,,,,,,,,,,,,,,,,,,,,,,,,211.60131269999874,None,211.60131269999874,None,211.60131269999874,None,211.60131269999874,None,211.60131269999874,None,211.60131269999874,None,211.60131269999874,None,a,1,0.49468060000072,211.60131269999874,None,,,,,,,,,,,,,7,001,2022_Sep_28_1518,Flanker,2021.2.0,239.58408203224522,
neutral right,0,k,neutral.png,neutral.png,neutral.png,right_arrow.png,neutral.png,neutral.png,neutral.png,,,,,6,1,37,5,,,,,,,,,,,,,212.1100434,None,,,,,,,,,,,,,,,,,,,,,,,,,,,,,,213.1194459999988,None,213.1194459999988,None,213.1194459999988,None,213.1194459999988,None,213.1194459999988,None,213.1194459999988,None,213.1194459999988,None,k,1,0.6330707000015536,213.1194459999988,None,,,,,,,,,,,,,7,001,2022_Sep_28_1518,Flanker,2021.2.0,239.58408203224522,
congruent-right.jpg,1,k,right_arrow.png,right_arrow.png,right_arrow.png,right_arrow.png,right_arrow.png,right_arrow.png,right_arrow.png,,,,,6,2,38,2,,,,,,,,,,,,,213.7701388000005,None,,,,,,,,,,,,,,,,,,,,,,,,,,,,,,214.78402579999965,None,214.78402579999965,None,214.78402579999965,None,214.78402579999965,None,214.78402579999965,None,214.78402579999965,None,214.78402579999965,None,k,1,0.848433399998612,214.78402579999965,None,,,,,,,,,,,,,7,001,2022_Sep_28_1518,Flanker,2021.2.0,239.58408203224522,
neutral right,0,k,neutral.png,neutral.png,neutral.png,right_arrow.png,neutral.png,neutral.png,neutral.png,,,,,6,3,39,5,,,,,,,,,,,,,215.65130879999924,None,,,,,,,,,,,,,,,,,,,,,,,,,,,,,,216.66070819999914,None,216.66070819999914,None,216.66070819999914,None,216.66070819999914,None,216.66070819999914,None,216.66070819999914,None,216.66070819999914,None,k,1,0.5879346000001533,216.66070819999914,None,,,,,,,,,,,,,7,001,2022_Sep_28_1518,Flanker,2021.2.0,239.58408203224522,
congruent-right.jpg,1,k,right_arrow.png,right_arrow.png,right_arrow.png,right_arrow.png,right_arrow.png,right_arrow.png,right_arrow.png,,,,,6,4,40,2,,,,,,,,,,,,,217.26134490000004,None,,,,,,,,,,,,,,,,,,,,,,,,,,,,,,218.27491369999916,None,218.27491369999916,None,218.27491369999916,None,218.27491369999916,None,218.27491369999916,None,218.27491369999916,None,218.27491369999916,None,k,1,0.6059606999988318,218.27491369999916,None,,,,,,,,,,,,,7,001,2022_Sep_28_1518,Flanker,2021.2.0,239.58408203224522,
incongruent-right.jpg,0,k,left_arrow.png,left_arrow.png,left_arrow.png,right_arrow.png,left_arrow.png,left_arrow.png,left_arrow.png,,,,,6,5,41,3,,,,,,,,,,,,,218.90058119999958,None,,,,,,,,,,,,,,,,,,,,,,,,,,,,,,219.91428149999956,None,219.91428149999956,None,219.91428149999956,None,219.91428149999956,None,219.91428149999956,None,219.91428149999956,None,219.91428149999956,None,k,1,0.6388310000002093,219.91428149999956,None,,,,,,,,,,,,,7,001,2022_Sep_28_1518,Flanker,2021.2.0,239.58408203224522,
congruent-left.jpg,1,a,left_arrow.png,left_arrow.png,left_arrow.png,left_arrow.png,left_arrow.png,left_arrow.png,left_arrow.png,,,,,7,0,42,0,,,,,,,,,,,,,220.56484439999986,None,,,,,,,,,,,,,,,,,,,,,,,,,,,,,,221.5788111999991,None,221.5788111999991,None,221.5788111999991,None,221.5788111999991,None,221.5788111999991,None,221.5788111999991,None,221.5788111999991,None,a,1,0.5986756999991485,221.5788111999991,None,,,,,,,,,,,,,7,001,2022_Sep_28_1518,Flanker,2021.2.0,239.58408203224522,
congruent-left.jpg,1,a,left_arrow.png,left_arrow.png,left_arrow.png,left_arrow.png,left_arrow.png,left_arrow.png,left_arrow.png,,,,,7,1,43,0,,,,,,,,,,,,,222.19603519999873,None,,,,,,,,,,,,,,,,,,,,,,,,,,,,,,223.20529569999962,None,223.20529569999962,None,223.20529569999962,None,223.20529569999962,None,223.20529569999962,None,223.20529569999962,None,223.20529569999962,None,a,1,0.6042586000003212,223.20529569999962,None,,,,,,,,,,,,,7,001,2022_Sep_28_1518,Flanker,2021.2.0,239.58408203224522,
incongruent-right.jpg,0,k,left_arrow.png,left_arrow.png,left_arrow.png,right_arrow.png,left_arrow.png,left_arrow.png,left_arrow.png,,,,,7,2,44,3,,,,,,,,,,,,,223.82246479999958,None,,,,,,,,,,,,,,,,,,,,,,,,,,,,,,224.84022319999895,None,224.84022319999895,None,224.84022319999895,None,224.84022319999895,None,224.84022319999895,None,224.84022319999895,None,224.84022319999895,None,k,1,0.5695360999998229,224.84022319999895,None,,,,,,,,,,,,,7,001,2022_Sep_28_1518,Flanker,2021.2.0,239.58408203224522,
incongruent-left.jpg,0,a,right_arrow.png,right_arrow.png,right_arrow.png,left_arrow.png,right_arrow.png,right_arrow.png,right_arrow.png,,,,,7,3,45,1,,,,,,,,,,,,,225.42413769999985,None,,,,,,,,,,,,,,,,,,,,,,,,,,,,,,226.43356440000025,None,226.43356440000025,None,226.43356440000025,None,226.43356440000025,None,226.43356440000025,None,226.43356440000025,None,226.43356440000025,None,a,1,0.5445638000001054,226.43356440000025,None,,,,,,,,,,,,,7,001,2022_Sep_28_1518,Flanker,2021.2.0,239.58408203224522,
incongruent-left.jpg,0,a,right_arrow.png,right_arrow.png,right_arrow.png,left_arrow.png,right_arrow.png,right_arrow.png,right_arrow.png,,,,,7,4,46,1,,,,,,,,,,,,,226.9925648999997,None,,,,,,,,,,,,,,,,,,,,,,,,,,,,,,228.0020375999993,None,228.0020375999993,None,228.0020375999993,None,228.0020375999993,None,228.0020375999993,None,228.0020375999993,None,228.0020375999993,None,a,1,0.5681839999997464,228.0020375999993,None,,,,,,,,,,,,,7,001,2022_Sep_28_1518,Flanker,2021.2.0,239.58408203224522,
congruent-left.jpg,1,a,left_arrow.png,left_arrow.png,left_arrow.png,left_arrow.png,left_arrow.png,left_arrow.png,left_arrow.png,,,,,7,5,47,0,,,,,,,,,,,,,228.58587590000025,None,,,,,,,,,,,,,,,,,,,,,,,,,,,,,,229.59537339999952,None,229.59537339999952,None,229.59537339999952,None,229.59537339999952,None,229.59537339999952,None,229.59537339999952,None,229.59537339999952,None,a,1,0.5350711999999476,229.59537339999952,None,,,,,,,,,,,,,7,001,2022_Sep_28_1518,Flanker,2021.2.0,239.58408203224522,
,,,,,,,,,,,,,,,,,,,,,,,,,,,,,,,,,,,,,,,,,,,,,,,,,,,,,,,,,,,,,,,,,,,,,,,,,,,,,,,,230.15840469999966,None,space,8.077120699999796,230.15840469999966,None,,,,,,,7,001,2022_Sep_28_1518,Flanker,2021.2.0,239.58408203224522,
incongruent-left.jpg,0,a,right_arrow.png,right_arrow.png,right_arrow.png,left_arrow.png,right_arrow.png,right_arrow.png,right_arrow.png,,,,,,,,,0,0,0,1,,,,,,,,,238.2586623999996,None,,,,,,,,,,,,,,,,,,,,,,,,,,,,,,239.2555754999994,None,239.2555754999994,None,239.2555754999994,None,239.2555754999994,None,239.2555754999994,None,239.2555754999994,None,239.2555754999994,None,a,1,0.6281785999999556,239.2555754999994,None,,,,,,,,,,,,,7,001,2022_Sep_28_1518,Flanker,2021.2.0,239.58408203224522,
neutral right,0,k,neutral.png,neutral.png,neutral.png,right_arrow.png,neutral.png,neutral.png,neutral.png,,,,,,,,,0,1,1,5,,,,,,,,,239.8978857000002,None,,,,,,,,,,,,,,,,,,,,,,,,,,,,,,240.91140180000002,None,240.91140180000002,None,240.91140180000002,None,240.91140180000002,None,240.91140180000002,None,240.91140180000002,None,240.91140180000002,None,k,1,0.4845571000005293,240.91140180000002,None,,,,,,,,,,,,,7,001,2022_Sep_28_1518,Flanker,2021.2.0,239.58408203224522,
incongruent-left.jpg,0,a,right_arrow.png,right_arrow.png,right_arrow.png,left_arrow.png,right_arrow.png,right_arrow.png,right_arrow.png,,,,,,,,,0,2,2,1,,,,,,,,,241.41193609999937,None,,,,,,,,,,,,,,,,,,,,,,,,,,,,,,242.4213321999996,None,242.4213321999996,None,242.4213321999996,None,242.4213321999996,None,242.4213321999996,None,242.4213321999996,None,242.4213321999996,None,a,1,0.4948441999986244,242.4213321999996,None,,,,,,,,,,,,,7,001,2022_Sep_28_1518,Flanker,2021.2.0,239.58408203224522,
congruent-left.jpg,1,a,left_arrow.png,left_arrow.png,left_arrow.png,left_arrow.png,left_arrow.png,left_arrow.png,left_arrow.png,,,,,,,,,0,3,3,0,,,,,,,,,242.93051319999904,None,,,,,,,,,,,,,,,,,,,,,,,,,,,,,,243.94397819999904,None,243.94397819999904,None,243.94397819999904,None,243.94397819999904,None,243.94397819999904,None,243.94397819999904,None,243.94397819999904,None,a,1,0.5325354999986303,243.94397819999904,None,,,,,,,,,,,,,7,001,2022_Sep_28_1518,Flanker,2021.2.0,239.58408203224522,
incongruent-right.jpg,0,k,left_arrow.png,left_arrow.png,left_arrow.png,right_arrow.png,left_arrow.png,left_arrow.png,left_arrow.png,,,,,,,,,0,4,4,3,,,,,,,,,244.4943693999994,None,,,,,,,,,,,,,,,,,,,,,,,,,,,,,,245.5039158999989,None,245.5039158999989,None,245.5039158999989,None,245.5039158999989,None,245.5039158999989,None,245.5039158999989,None,245.5039158999989,None,k,1,0.5248375999999553,245.5039158999989,None,,,,,,,,,,,,,7,001,2022_Sep_28_1518,Flanker,2021.2.0,239.58408203224522,
neutral left,0,a,neutral.png,neutral.png,neutral.png,left_arrow.png,neutral.png,neutral.png,neutral.png,,,,,,,,,0,5,5,4,,,,,,,,,246.04616669999996,None,,,,,,,,,,,,,,,,,,,,,,,,,,,,,,247.05540540000038,None,247.05540540000038,None,247.05540540000038,None,247.05540540000038,None,247.05540540000038,None,247.05540540000038,None,247.05540540000038,None,a,1,0.43738889999985986,247.05540540000038,None,,,,,,,,,,,,,7,001,2022_Sep_28_1518,Flanker,2021.2.0,239.58408203224522,
congruent-left.jpg,1,a,left_arrow.png,left_arrow.png,left_arrow.png,left_arrow.png,left_arrow.png,left_arrow.png,left_arrow.png,,,,,,,,,1,0,6,0,,,,,,,,,247.50589779999973,None,,,,,,,,,,,,,,,,,,,,,,,,,,,,,,248.51976529999956,None,248.51976529999956,None,248.51976529999956,None,248.51976529999956,None,248.51976529999956,None,248.51976529999956,None,248.51976529999956,None,a,1,0.5412228000004689,248.51976529999956,None,,,,,,,,,,,,,7,001,2022_Sep_28_1518,Flanker,2021.2.0,239.58408203224522,
neutral left,0,a,neutral.png,neutral.png,neutral.png,left_arrow.png,neutral.png,neutral.png,neutral.png,,,,,,,,,1,1,7,4,,,,,,,,,249.0786360000002,None,,,,,,,,,,,,,,,,,,,,,,,,,,,,,,250.08780639999895,None,250.08780639999895,None,250.08780639999895,None,250.08780639999895,None,250.08780639999895,None,250.08780639999895,None,250.08780639999895,None,a,1,0.48540909999974247,250.08780639999895,None,,,,,,,,,,,,,7,001,2022_Sep_28_1518,Flanker,2021.2.0,239.58408203224522,
congruent-left.jpg,1,a,left_arrow.png,left_arrow.png,left_arrow.png,left_arrow.png,left_arrow.png,left_arrow.png,left_arrow.png,,,,,,,,,1,2,8,0,,,,,,,,,250.58831420000024,None,,,,,,,,,,,,,,,,,,,,,,,,,,,,,,251.5977323999996,None,251.5977323999996,None,251.5977323999996,None,251.5977323999996,None,251.5977323999996,None,251.5977323999996,None,251.5977323999996,None,a,1,0.4876731000003929,251.5977323999996,None,,,,,,,,,,,,,7,001,2022_Sep_28_1518,Flanker,2021.2.0,239.58408203224522,
neutral right,0,k,neutral.png,neutral.png,neutral.png,right_arrow.png,neutral.png,neutral.png,neutral.png,,,,,,,,,1,3,9,5,,,,,,,,,252.09831940000004,None,,,,,,,,,,,,,,,,,,,,,,,,,,,,,,253.11192599999958,None,253.11192599999958,None,253.11192599999958,None,253.11192599999958,None,253.11192599999958,None,253.11192599999958,None,253.11192599999958,None,k,1,0.4457170000005135,253.11192599999958,None,,,,,,,,,,,,,7,001,2022_Sep_28_1518,Flanker,2021.2.0,239.58408203224522,
congruent-right.jpg,1,k,right_arrow.png,right_arrow.png,right_arrow.png,right_arrow.png,right_arrow.png,right_arrow.png,right_arrow.png,,,,,,,,,1,4,10,2,,,,,,,,,253.57084779999968,None,,,,,,,,,,,,,,,,,,,,,,,,,,,,,,254.58855679999942,None,254.58855679999942,None,254.58855679999942,None,254.58855679999942,None,254.58855679999942,None,254.58855679999942,None,254.58855679999942,None,k,1,0.521269900000334,254.58855679999942,None,,,,,,,,,,,,,7,001,2022_Sep_28_1518,Flanker,2021.2.0,239.58408203224522,
incongruent-right.jpg,0,k,left_arrow.png,left_arrow.png,left_arrow.png,right_arrow.png,left_arrow.png,left_arrow.png,left_arrow.png,,,,,,,,,1,5,11,3,,,,,,,,,255.12245979999898,None,,,,,,,,,,,,,,,,,,,,,,,,,,,,,,256.1359152999994,None,256.1359152999994,None,256.1359152999994,None,256.1359152999994,None,256.1359152999994,None,256.1359152999994,None,256.1359152999994,None,k,1,0.5261640999997326,256.1359152999994,None,,,,,,,,,,,,,7,001,2022_Sep_28_1518,Flanker,2021.2.0,239.58408203224522,
neutral left,0,a,neutral.png,neutral.png,neutral.png,left_arrow.png,neutral.png,neutral.png,neutral.png,,,,,,,,,2,0,12,4,,,,,,,,,256.67813360000036,None,,,,,,,,,,,,,,,,,,,,,,,,,,,,,,257.6877463000001,None,257.6877463000001,None,257.6877463000001,None,257.6877463000001,None,257.6877463000001,None,257.6877463000001,None,257.6877463000001,None,a,1,0.4224755000013829,257.6877463000001,None,,,,,,,,,,,,,7,001,2022_Sep_28_1518,Flanker,2021.2.0,239.58408203224522,
incongruent-right.jpg,0,k,left_arrow.png,left_arrow.png,left_arrow.png,right_arrow.png,left_arrow.png,left_arrow.png,left_arrow.png,,,,,,,,,2,1,13,3,,,,,,,,,258.1213441,None,,,,,,,,,,,,,,,,,,,,,,,,,,,,,,259.1349137999987,None,259.1349137999987,None,259.1349137999987,None,259.1349137999987,None,259.1349137999987,None,259.1349137999987,None,259.1349137999987,None,k,1,0.5115065999998478,259.1349137999987,None,,,,,,,,,,,,,7,001,2022_Sep_28_1518,Flanker,2021.2.0,239.58408203224522,
congruent-right.jpg,1,k,right_arrow.png,right_arrow.png,right_arrow.png,right_arrow.png,right_arrow.png,right_arrow.png,right_arrow.png,,,,,,,,,2,2,14,2,,,,,,,,,259.66052839999975,None,,,,,,,,,,,,,,,,,,,,,,,,,,,,,,260.6656729999995,None,260.6656729999995,None,260.6656729999995,None,260.6656729999995,None,260.6656729999995,None,260.6656729999995,None,260.6656729999995,None,k,1,0.4290001999997912,260.6656729999995,None,,,,,,,,,,,,,7,001,2022_Sep_28_1518,Flanker,2021.2.0,239.58408203224522,
neutral left,0,a,neutral.png,neutral.png,neutral.png,left_arrow.png,neutral.png,neutral.png,neutral.png,,,,,,,,,2,3,15,4,,,,,,,,,261.10802220000005,None,,,,,,,,,,,,,,,,,,,,,,,,,,,,,,262.11739940000007,None,262.11739940000007,None,262.11739940000007,None,262.11739940000007,None,262.11739940000007,None,262.11739940000007,None,262.11739940000007,None,a,1,0.4654751000016404,262.11739940000007,None,,,,,,,,,,,,,7,001,2022_Sep_28_1518,Flanker,2021.2.0,239.58408203224522,
incongruent-left.jpg,0,a,right_arrow.png,right_arrow.png,right_arrow.png,left_arrow.png,right_arrow.png,right_arrow.png,right_arrow.png,,,,,,,,,2,4,16,1,,,,,,,,,262.6011523999987,None,,,,,,,,,,,,,,,,,,,,,,,,,,,,,,263.610482099999,None,263.610482099999,None,263.610482099999,None,263.610482099999,None,263.610482099999,None,263.610482099999,None,263.610482099999,None,a,1,0.5327322999983153,263.610482099999,None,,,,,,,,,,,,,7,001,2022_Sep_28_1518,Flanker,2021.2.0,239.58408203224522,
congruent-right.jpg,1,k,right_arrow.png,right_arrow.png,right_arrow.png,right_arrow.png,right_arrow.png,right_arrow.png,right_arrow.png,,,,,,,,,2,5,17,2,,,,,,,,,264.1612187999999,None,,,,,,,,,,,,,,,,,,,,,,,,,,,,,,265.17065770000045,None,265.17065770000045,None,265.17065770000045,None,265.17065770000045,None,265.17065770000045,None,265.17065770000045,None,265.17065770000045,None,k,1,0.4846188000010443,265.17065770000045,None,,,,,,,,,,,,,7,001,2022_Sep_28_1518,Flanker,2021.2.0,239.58408203224522,
neutral left,0,a,neutral.png,neutral.png,neutral.png,left_arrow.png,neutral.png,neutral.png,neutral.png,,,,,,,,,3,0,18,4,,,,,,,,,265.6712324,None,,,,,,,,,,,,,,,,,,,,,,,,,,,,,,266.68483190000006,None,266.68483190000006,None,266.68483190000006,None,266.68483190000006,None,266.68483190000006,None,266.68483190000006,None,266.68483190000006,None,a,1,0.370602199998757,266.68483190000006,None,,,,,,,,,,,,,7,001,2022_Sep_28_1518,Flanker,2021.2.0,239.58408203224522,
congruent-right.jpg,1,k,right_arrow.png,right_arrow.png,right_arrow.png,right_arrow.png,right_arrow.png,right_arrow.png,right_arrow.png,,,,,,,,,3,1,19,2,,,,,,,,,267.06862809999984,None,,,,,,,,,,,,,,,,,,,,,,,,,,,,,,268.08188599999994,None,268.08188599999994,None,268.08188599999994,None,268.08188599999994,None,268.08188599999994,None,268.08188599999994,None,268.08188599999994,None,k,1,0.4537940999998682,268.08188599999994,None,,,,,,,,,,,,,7,001,2022_Sep_28_1518,Flanker,2021.2.0,239.58408203224522,
incongruent-left.jpg,0,a,right_arrow.png,right_arrow.png,right_arrow.png,left_arrow.png,right_arrow.png,right_arrow.png,right_arrow.png,,,,,,,,,3,2,20,1,,,,,,,,,268.5490590999998,None,,,,,,,,,,,,,,,,,,,,,,,,,,,,,,269.5584942000005,None,269.5584942000005,None,269.5584942000005,None,269.5584942000005,None,269.5584942000005,None,269.5584942000005,None,269.5584942000005,None,a,1,0.5453923999994004,269.5584942000005,None,,,,,,,,,,,,,7,001,2022_Sep_28_1518,Flanker,2021.2.0,239.58408203224522,
congruent-right.jpg,1,k,right_arrow.png,right_arrow.png,right_arrow.png,right_arrow.png,right_arrow.png,right_arrow.png,right_arrow.png,,,,,,,,,3,3,21,2,,,,,,,,,270.11739899999884,None,,,,,,,,,,,,,,,,,,,,,,,,,,,,,,271.13122509999994,None,271.13122509999994,None,271.13122509999994,None,271.13122509999994,None,271.13122509999994,None,271.13122509999994,None,271.13122509999994,None,k,1,0.52498100000048,271.13122509999994,None,,,,,,,,,,,,,7,001,2022_Sep_28_1518,Flanker,2021.2.0,239.58408203224522,
congruent-left.jpg,1,a,left_arrow.png,left_arrow.png,left_arrow.png,left_arrow.png,left_arrow.png,left_arrow.png,left_arrow.png,,,,,,,,,3,4,22,0,,,,,,,,,271.67340049999984,None,,,,,,,,,,,,,,,,,,,,,,,,,,,,,,272.68676330000017,None,272.68676330000017,None,272.68676330000017,None,272.68676330000017,None,272.68676330000017,None,272.68676330000017,None,272.68676330000017,None,a,1,0.3695010999999795,272.68676330000017,None,,,,,,,,,,,,,7,001,2022_Sep_28_1518,Flanker,2021.2.0,239.58408203224522,
incongruent-right.jpg,0,k,left_arrow.png,left_arrow.png,left_arrow.png,right_arrow.png,left_arrow.png,left_arrow.png,left_arrow.png,,,,,,,,,3,5,23,3,,,,,,,,,273.07052719999956,None,,,,,,,,,,,,,,,,,,,,,,,,,,,,,,274.084302199999,None,274.084302199999,None,274.084302199999,None,274.084302199999,None,274.084302199999,None,274.084302199999,None,274.084302199999,None,k,1,0.5401741000005131,274.084302199999,None,,,,,,,,,,,,,7,001,2022_Sep_28_1518,Flanker,2021.2.0,239.58408203224522,
congruent-right.jpg,1,k,right_arrow.png,right_arrow.png,right_arrow.png,right_arrow.png,right_arrow.png,right_arrow.png,right_arrow.png,,,,,,,,,4,0,24,2,,,,,,,,,274.64332359999935,None,,,,,,,,,,,,,,,,,,,,,,,,,,,,,,275.6523932,None,275.6523932,None,275.6523932,None,275.6523932,None,275.6523932,None,275.6523932,None,275.6523932,None,k,1,0.4603170999998838,275.6523932,None,,,,,,,,,,,,,7,001,2022_Sep_28_1518,Flanker,2021.2.0,239.58408203224522,
congruent-right.jpg,1,k,right_arrow.png,right_arrow.png,right_arrow.png,right_arrow.png,right_arrow.png,right_arrow.png,right_arrow.png,,,,,,,,,4,1,25,2,,,,,,,,,276.13209429999915,None,,,,,,,,,,,,,,,,,,,,,,,,,,,,,,277.1499769000002,None,277.1499769000002,None,277.1499769000002,None,277.1499769000002,None,277.1499769000002,None,277.1499769000002,None,277.1499769000002,None,k,1,0.42690829999992275,277.1499769000002,None,,,,,,,,,,,,,7,001,2022_Sep_28_1518,Flanker,2021.2.0,239.58408203224522,
neutral right,0,k,neutral.png,neutral.png,neutral.png,right_arrow.png,neutral.png,neutral.png,neutral.png,,,,,,,,,4,2,26,5,,,,,,,,,277.59198730000026,None,,,,,,,,,,,,,,,,,,,,,,,,,,,,,,278.6013874,None,278.6013874,None,278.6013874,None,278.6013874,None,278.6013874,None,278.6013874,None,278.6013874,None,k,1,0.4476641000001109,278.6013874,None,,,,,,,,,,,,,7,001,2022_Sep_28_1518,Flanker,2021.2.0,239.58408203224522,
neutral right,0,k,neutral.png,neutral.png,neutral.png,right_arrow.png,neutral.png,neutral.png,neutral.png,,,,,,,,,4,3,27,5,,,,,,,,,279.0601881999992,None,,,,,,,,,,,,,,,,,,,,,,,,,,,,,,280.07375820000016,None,280.07375820000016,None,280.07375820000016,None,280.07375820000016,None,280.07375820000016,None,280.07375820000016,None,280.07375820000016,None,k,1,0.43152199999894947,280.07375820000016,None,,,,,,,,,,,,,7,001,2022_Sep_28_1518,Flanker,2021.2.0,239.58408203224522,
incongruent-right.jpg,0,k,left_arrow.png,left_arrow.png,left_arrow.png,right_arrow.png,left_arrow.png,left_arrow.png,left_arrow.png,,,,,,,,,4,4,28,3,,,,,,,,,280.5243255000005,None,,,,,,,,,,,,,,,,,,,,,,,,,,,,,,281.5379018000003,None,281.5379018000003,None,281.5379018000003,None,281.5379018000003,None,281.5379018000003,None,281.5379018000003,None,281.5379018000003,None,a,0,0.4315766999989137,281.5379018000003,None,,,,,,,,,,,,,7,001,2022_Sep_28_1518,Flanker,2021.2.0,239.58408203224522,
neutral right,0,k,neutral.png,neutral.png,neutral.png,right_arrow.png,neutral.png,neutral.png,neutral.png,,,,,,,,,4,5,29,5,,,,,,,,,281.9886217000003,None,,,,,,,,,,,,,,,,,,,,,,,,,,,,,,282.9977007999987,None,282.9977007999987,None,282.9977007999987,None,282.9977007999987,None,282.9977007999987,None,282.9977007999987,None,282.9977007999987,None,k,1,0.5319784000002983,282.9977007999987,None,,,,,,,,,,,,,7,001,2022_Sep_28_1518,Flanker,2021.2.0,239.58408203224522,
congruent-left.jpg,1,a,left_arrow.png,left_arrow.png,left_arrow.png,left_arrow.png,left_arrow.png,left_arrow.png,left_arrow.png,,,,,,,,,5,0,30,0,,,,,,,,,283.54843319999964,None,,,,,,,,,,,,,,,,,,,,,,,,,,,,,,284.557675,None,284.557675,None,284.557675,None,284.557675,None,284.557675,None,284.557675,None,284.557675,None,a,1,0.652275100001134,284.557675,None,,,,,,,,,,,,,7,001,2022_Sep_28_1518,Flanker,2021.2.0,239.58408203224522,
congruent-left.jpg,1,a,left_arrow.png,left_arrow.png,left_arrow.png,left_arrow.png,left_arrow.png,left_arrow.png,left_arrow.png,,,,,,,,,5,1,31,0,,,,,,,,,285.22514349999983,None,,,,,,,,,,,,,,,,,,,,,,,,,,,,,,286.2428106999996,None,286.2428106999996,None,286.2428106999996,None,286.2428106999996,None,286.2428106999996,None,286.2428106999996,None,286.2428106999996,None,a,1,0.5353429000006145,286.2428106999996,None,,,,,,,,,,,,,7,001,2022_Sep_28_1518,Flanker,2021.2.0,239.58408203224522,
incongruent-right.jpg,0,k,left_arrow.png,left_arrow.png,left_arrow.png,right_arrow.png,left_arrow.png,left_arrow.png,left_arrow.png,,,,,,,,,5,2,32,3,,,,,,,,,286.793392399999,None,,,,,,,,,,,,,,,,,,,,,,,,,,,,,,287.8029201999998,None,287.8029201999998,None,287.8029201999998,None,287.8029201999998,None,287.8029201999998,None,287.8029201999998,None,287.8029201999998,None,k,1,0.5434461000004376,287.8029201999998,None,,,,,,,,,,,,,7,001,2022_Sep_28_1518,Flanker,2021.2.0,239.58408203224522,
incongruent-left.jpg,0,a,right_arrow.png,right_arrow.png,right_arrow.png,left_arrow.png,right_arrow.png,right_arrow.png,right_arrow.png,,,,,,,,,5,3,33,1,,,,,,,,,288.3618736999997,None,,,,,,,,,,,,,,,,,,,,,,,,,,,,,,289.36694650000027,None,289.36694650000027,None,289.36694650000027,None,289.36694650000027,None,289.36694650000027,None,289.36694650000027,None,289.36694650000027,None,a,1,0.6116306000003533,289.36694650000027,None,,,,,,,,,,,,,7,001,2022_Sep_28_1518,Flanker,2021.2.0,239.58408203224522,
neutral left,0,a,neutral.png,neutral.png,neutral.png,left_arrow.png,neutral.png,neutral.png,neutral.png,,,,,,,,,5,4,34,4,,,,,,,,,289.9926197999994,None,,,,,,,,,,,,,,,,,,,,,,,,,,,,,,291.00618620000023,None,291.00618620000023,None,291.00618620000023,None,291.00618620000023,None,291.00618620000023,None,291.00618620000023,None,291.00618620000023,None,a,1,0.5330349999985629,291.00618620000023,None,,,,,,,,,,,,,7,001,2022_Sep_28_1518,Flanker,2021.2.0,239.58408203224522,
incongruent-left.jpg,0,a,right_arrow.png,right_arrow.png,right_arrow.png,left_arrow.png,right_arrow.png,right_arrow.png,right_arrow.png,,,,,,,,,5,5,35,1,,,,,,,,,291.5567861999989,None,,,,,,,,,,,,,,,,,,,,,,,,,,,,,,292.56617059999917,None,292.56617059999917,None,292.56617059999917,None,292.56617059999917,None,292.56617059999917,None,292.56617059999917,None,292.56617059999917,None,a,1,0.5968552000013005,292.56617059999917,None,,,,,,,,,,,,,7,001,2022_Sep_28_1518,Flanker,2021.2.0,239.58408203224522,
neutral right,0,k,neutral.png,neutral.png,neutral.png,right_arrow.png,neutral.png,neutral.png,neutral.png,,,,,,,,,6,0,36,5,,,,,,,,,293.1751457999999,None,,,,,,,,,,,,,,,,,,,,,,,,,,,,,,294.1888803999991,None,294.1888803999991,None,294.1888803999991,None,294.1888803999991,None,294.1888803999991,None,294.1888803999991,None,294.1888803999991,None,k,1,0.4542959999998857,294.1888803999991,None,,,,,,,,,,,,,7,001,2022_Sep_28_1518,Flanker,2021.2.0,239.58408203224522,
neutral right,0,k,neutral.png,neutral.png,neutral.png,right_arrow.png,neutral.png,neutral.png,neutral.png,,,,,,,,,6,1,37,5,,,,,,,,,294.65602599999875,None,,,,,,,,,,,,,,,,,,,,,,,,,,,,,,295.66547999999966,None,295.66547999999966,None,295.66547999999966,None,295.66547999999966,None,295.66547999999966,None,295.66547999999966,None,295.66547999999966,None,k,1,0.5379373999985546,295.66547999999966,None,,,,,,,,,,,,,7,001,2022_Sep_28_1518,Flanker,2021.2.0,239.58408203224522,
neutral left,0,a,neutral.png,neutral.png,neutral.png,left_arrow.png,neutral.png,neutral.png,neutral.png,,,,,,,,,6,2,38,4,,,,,,,,,296.21600639999997,None,,,,,,,,,,,,,,,,,,,,,,,,,,,,,,297.22541359999923,None,297.22541359999923,None,297.22541359999923,None,297.22541359999923,None,297.22541359999923,None,297.22541359999923,None,297.22541359999923,None,a,1,0.5944158000002062,297.22541359999923,None,,,,,,,,,,,,,7,001,2022_Sep_28_1518,Flanker,2021.2.0,239.58408203224522,
incongruent-right.jpg,0,k,left_arrow.png,left_arrow.png,left_arrow.png,right_arrow.png,left_arrow.png,left_arrow.png,left_arrow.png,,,,,,,,,6,3,39,3,,,,,,,,,297.83454940000047,None,,,,,,,,,,,,,,,,,,,,,,,,,,,,,,298.84379830000034,None,298.84379830000034,None,298.84379830000034,None,298.84379830000034,None,298.84379830000034,None,298.84379830000034,None,298.84379830000034,None,k,1,0.7442592999996123,298.84379830000034,None,,,,,,,,,,,,,7,001,2022_Sep_28_1518,Flanker,2021.2.0,239.58408203224522,
incongruent-left.jpg,0,a,right_arrow.png,right_arrow.png,right_arrow.png,left_arrow.png,right_arrow.png,right_arrow.png,right_arrow.png,,,,,,,,,6,4,40,1,,,,,,,,,299.6029417999998,None,,,,,,,,,,,,,,,,,,,,,,,,,,,,,,300.6165753000005,None,300.6165753000005,None,300.6165753000005,None,300.6165753000005,None,300.6165753000005,None,300.6165753000005,None,300.6165753000005,None,a,1,0.49173510000036913,300.6165753000005,None,,,,,,,,,,,,,7,001,2022_Sep_28_1518,Flanker,2021.2.0,239.58408203224522,
congruent-left.jpg,1,a,left_arrow.png,left_arrow.png,left_arrow.png,left_arrow.png,left_arrow.png,left_arrow.png,left_arrow.png,,,,,,,,,6,5,41,0,,,,,,,,,301.1253975999989,None,,,,,,,,,,,,,,,,,,,,,,,,,,,,,,302.13880749999953,None,302.13880749999953,None,302.13880749999953,None,302.13880749999953,None,302.13880749999953,None,302.13880749999953,None,302.13880749999953,None,a,1,0.5134818000005907,302.13880749999953,None,,,,,,,,,,,,,7,001,2022_Sep_28_1518,Flanker,2021.2.0,239.58408203224522,
neutral right,0,k,neutral.png,neutral.png,neutral.png,right_arrow.png,neutral.png,neutral.png,neutral.png,,,,,,,,,7,0,42,5,,,,,,,,,302.66466799999944,None,,,,,,,,,,,,,,,,,,,,,,,,,,,,,,303.6739445000003,None,303.6739445000003,None,303.6739445000003,None,303.6739445000003,None,303.6739445000003,None,303.6739445000003,None,303.6739445000003,None,k,1,0.5545564000003651,303.6739445000003,None,,,,,,,,,,,,,7,001,2022_Sep_28_1518,Flanker,2021.2.0,239.58408203224522,
congruent-right.jpg,1,k,right_arrow.png,right_arrow.png,right_arrow.png,right_arrow.png,right_arrow.png,right_arrow.png,right_arrow.png,,,,,,,,,7,1,43,2,,,,,,,,,304.24119020000035,None,,,,,,,,,,,,,,,,,,,,,,,,,,,,,,305.25075839999954,None,305.25075839999954,None,305.25075839999954,None,305.25075839999954,None,305.25075839999954,None,305.25075839999954,None,305.25075839999954,None,k,1,0.5299104999994597,305.25075839999954,None,,,,,,,,,,,,,7,001,2022_Sep_28_1518,Flanker,2021.2.0,239.58408203224522,
incongruent-left.jpg,0,a,right_arrow.png,right_arrow.png,right_arrow.png,left_arrow.png,right_arrow.png,right_arrow.png,right_arrow.png,,,,,,,,,7,2,44,1,,,,,,,,,305.79283550000036,None,,,,,,,,,,,,,,,,,,,,,,,,,,,,,,306.81060849999994,None,306.81060849999994,None,306.81060849999994,None,306.81060849999994,None,306.81060849999994,None,306.81060849999994,None,306.81060849999994,None,a,1,0.5302862000007735,306.81060849999994,None,,,,,,,,,,,,,7,001,2022_Sep_28_1518,Flanker,2021.2.0,239.58408203224522,
neutral left,0,a,neutral.png,neutral.png,neutral.png,left_arrow.png,neutral.png,neutral.png,neutral.png,,,,,,,,,7,3,45,4,,,,,,,,,307.3528437999994,None,,,,,,,,,,,,,,,,,,,,,,,,,,,,,,308.36240739999994,None,308.36240739999994,None,308.36240739999994,None,308.36240739999994,None,308.36240739999994,None,308.36240739999994,None,308.36240739999994,None,a,1,0.5146844999999303,308.36240739999994,None,,,,,,,,,,,,,7,001,2022_Sep_28_1518,Flanker,2021.2.0,239.58408203224522,
congruent-left.jpg,1,a,left_arrow.png,left_arrow.png,left_arrow.png,left_arrow.png,left_arrow.png,left_arrow.png,left_arrow.png,,,,,,,,,7,4,46,0,,,,,,,,,308.8959944999988,None,,,,,,,,,,,,,,,,,,,,,,,,,,,,,,309.90986429999975,None,309.90986429999975,None,309.90986429999975,None,309.90986429999975,None,309.90986429999975,None,309.90986429999975,None,309.90986429999975,None,a,1,0.7596224999997503,309.90986429999975,None,,,,,,,,,,,,,7,001,2022_Sep_28_1518,Flanker,2021.2.0,239.58408203224522,
incongruent-right.jpg,0,k,left_arrow.png,left_arrow.png,left_arrow.png,right_arrow.png,left_arrow.png,left_arrow.png,left_arrow.png,,,,,,,,,7,5,47,3,,,,,,,,,310.68558069999926,None,,,,,,,,,,,,,,,,,,,,,,,,,,,,,,311.6949096999997,None,311.6949096999997,None,311.6949096999997,None,311.6949096999997,None,311.6949096999997,None,311.6949096999997,None,311.6949096999997,None,k,1,0.6627734000012424,311.6949096999997,None,,,,,,,,,,,,,7,001,2022_Sep_28_1518,Flanker,2021.2.0,239.58408203224522,
,,,,,,,,,,,,,,,,,,,,,,,,,,,,,,,,,,,,,,,,,,,,,,,,,,,,,,,,,,,,,,,,,,,,,,,,,,,,,,,,312.3831616999996,None,space,3.174880700000358,312.3831616999996,None,,,,,,,7,001,2022_Sep_28_1518,Flanker,2021.2.0,239.58408203224522,
incongruent-left.jpg,0,a,right_arrow.png,right_arrow.png,right_arrow.png,left_arrow.png,right_arrow.png,right_arrow.png,right_arrow.png,,,,,,,,,,,,,0,0,0,1,,,,,315.57825629999934,None,,,,,,,,,,,,,,,,,,,,,,,,,,,,,,316.58345349999945,None,316.58345349999945,None,316.58345349999945,None,316.58345349999945,None,316.58345349999945,None,316.58345349999945,None,316.58345349999945,None,a,1,0.9828762999986793,316.58345349999945,None,,,,,,,,,,,,,7,001,2022_Sep_28_1518,Flanker,2021.2.0,239.58408203224522,
neutral left,0,a,neutral.png,neutral.png,neutral.png,left_arrow.png,neutral.png,neutral.png,neutral.png,,,,,,,,,,,,,0,1,1,4,,,,,317.58457689999886,None,,,,,,,,,,,,,,,,,,,,,,,,,,,,,,318.60209029999896,None,318.60209029999896,None,318.60209029999896,None,318.60209029999896,None,318.60209029999896,None,318.60209029999896,None,318.60209029999896,None,a,1,0.4845882999998139,318.60209029999896,None,,,,,,,,,,,,,7,001,2022_Sep_28_1518,Flanker,2021.2.0,239.58408203224522,
congruent-left.jpg,1,a,left_arrow.png,left_arrow.png,left_arrow.png,left_arrow.png,left_arrow.png,left_arrow.png,left_arrow.png,,,,,,,,,,,,,0,2,2,0,,,,,319.10276630000044,None,,,,,,,,,,,,,,,,,,,,,,,,,,,,,,320.11216520000016,None,320.11216520000016,None,320.11216520000016,None,320.11216520000016,None,320.11216520000016,None,320.11216520000016,None,320.11216520000016,None,a,1,0.5830057000002853,320.11216520000016,None,,,,,,,,,,,,,7,001,2022_Sep_28_1518,Flanker,2021.2.0,239.58408203224522,
incongruent-right.jpg,0,k,left_arrow.png,left_arrow.png,left_arrow.png,right_arrow.png,left_arrow.png,left_arrow.png,left_arrow.png,,,,,,,,,,,,,0,3,3,3,,,,,320.7126771000003,None,,,,,,,,,,,,,,,,,,,,,,,,,,,,,,321.71789270000045,None,321.71789270000045,None,321.71789270000045,None,321.71789270000045,None,321.71789270000045,None,321.71789270000045,None,321.71789270000045,None,k,1,0.5372153000007529,321.71789270000045,None,,,,,,,,,,,,,7,001,2022_Sep_28_1518,Flanker,2021.2.0,239.58408203224522,
congruent-right.jpg,1,k,right_arrow.png,right_arrow.png,right_arrow.png,right_arrow.png,right_arrow.png,right_arrow.png,right_arrow.png,,,,,,,,,,,,,0,4,4,2,,,,,322.26862059999985,None,,,,,,,,,,,,,,,,,,,,,,,,,,,,,,323.2780630999987,None,323.2780630999987,None,323.2780630999987,None,323.2780630999987,None,323.2780630999987,None,323.2780630999987,None,323.2780630999987,None,k,1,0.4810732999994798,323.2780630999987,None,,,,,,,,,,,,,7,001,2022_Sep_28_1518,Flanker,2021.2.0,239.58408203224522,
neutral left,0,a,neutral.png,neutral.png,neutral.png,left_arrow.png,neutral.png,neutral.png,neutral.png,,,,,,,,,,,,,0,5,5,4,,,,,323.7702303999995,None,,,,,,,,,,,,,,,,,,,,,,,,,,,,,,324.77963479999926,None,324.77963479999926,None,324.77963479999926,None,324.77963479999926,None,324.77963479999926,None,324.77963479999926,None,324.77963479999926,None,a,1,0.5958737000000838,324.77963479999926,None,,,,,,,,,,,,,7,001,2022_Sep_28_1518,Flanker,2021.2.0,239.58408203224522,
congruent-right.jpg,1,k,right_arrow.png,right_arrow.png,right_arrow.png,right_arrow.png,right_arrow.png,right_arrow.png,right_arrow.png,,,,,,,,,,,,,1,0,6,2,,,,,325.3886012999992,None,,,,,,,,,,,,,,,,,,,,,,,,,,,,,,326.40622020000046,None,326.40622020000046,None,326.40622020000046,None,326.40622020000046,None,326.40622020000046,None,326.40622020000046,None,326.40622020000046,None,k,1,0.48133729999972275,326.40622020000046,None,,,,,,,,,,,,,7,001,2022_Sep_28_1518,Flanker,2021.2.0,239.58408203224522,
incongruent-left.jpg,0,a,right_arrow.png,right_arrow.png,right_arrow.png,left_arrow.png,right_arrow.png,right_arrow.png,right_arrow.png,,,,,,,,,,,,,1,1,7,1,,,,,326.9068821000001,None,,,,,,,,,,,,,,,,,,,,,,,,,,,,,,327.9246103000005,None,327.9246103000005,None,327.9246103000005,None,327.9246103000005,None,327.9246103000005,None,327.9246103000005,None,327.9246103000005,None,a,1,0.5792046999995364,327.9246103000005,None,,,,,,,,,,,,,7,001,2022_Sep_28_1518,Flanker,2021.2.0,239.58408203224522,
neutral right,0,k,neutral.png,neutral.png,neutral.png,right_arrow.png,neutral.png,neutral.png,neutral.png,,,,,,,,,,,,,1,2,8,5,,,,,328.51676829999997,None,,,,,,,,,,,,,,,,,,,,,,,,,,,,,,329.52631350000047,None,329.52631350000047,None,329.52631350000047,None,329.52631350000047,None,329.52631350000047,None,329.52631350000047,None,329.52631350000047,None,k,1,0.4816742000002705,329.52631350000047,None,,,,,,,,,,,,,7,001,2022_Sep_28_1518,Flanker,2021.2.0,239.58408203224522,
incongruent-left.jpg,0,a,right_arrow.png,right_arrow.png,right_arrow.png,left_arrow.png,right_arrow.png,right_arrow.png,right_arrow.png,,,,,,,,,,,,,1,3,9,1,,,,,330.0185270000002,None,,,,,,,,,,,,,,,,,,,,,,,,,,,,,,331.03196039999966,None,331.03196039999966,None,331.03196039999966,None,331.03196039999966,None,331.03196039999966,None,331.03196039999966,None,331.03196039999966,None,a,1,0.5681985000010172,331.03196039999966,None,,,,,,,,,,,,,7,001,2022_Sep_28_1518,Flanker,2021.2.0,239.58408203224522,
congruent-left.jpg,1,a,left_arrow.png,left_arrow.png,left_arrow.png,left_arrow.png,left_arrow.png,left_arrow.png,left_arrow.png,,,,,,,,,,,,,1,4,10,0,,,,,331.6159007999995,None,,,,,,,,,,,,,,,,,,,,,,,,,,,,,,332.6296638999993,None,332.6296638999993,None,332.6296638999993,None,332.6296638999993,None,332.6296638999993,None,332.6296638999993,None,332.6296638999993,None,a,1,0.5547715000011522,332.6296638999993,None,,,,,,,,,,,,,7,001,2022_Sep_28_1518,Flanker,2021.2.0,239.58408203224522,
incongruent-right.jpg,0,k,left_arrow.png,left_arrow.png,left_arrow.png,right_arrow.png,left_arrow.png,left_arrow.png,left_arrow.png,,,,,,,,,,,,,1,5,11,3,,,,,333.19672999999966,None,,,,,,,,,,,,,,,,,,,,,,,,,,,,,,334.21044710000024,None,334.21044710000024,None,334.21044710000024,None,334.21044710000024,None,334.21044710000024,None,334.21044710000024,None,334.21044710000024,None,k,1,1.0782180999995035,334.21044710000024,None,,,,,,,,,,,,,7,001,2022_Sep_28_1518,Flanker,2021.2.0,239.58408203224522,
incongruent-right.jpg,0,k,left_arrow.png,left_arrow.png,left_arrow.png,right_arrow.png,left_arrow.png,left_arrow.png,left_arrow.png,,,,,,,,,,,,,2,0,12,3,,,,,335.3031291999996,None,,,,,,,,,,,,,,,,,,,,,,,,,,,,,,336.3083463999992,None,336.3083463999992,None,336.3083463999992,None,336.3083463999992,None,336.3083463999992,None,336.3083463999992,None,336.3083463999992,None,k,1,0.5485506000004534,336.3083463999992,None,,,,,,,,,,,,,7,001,2022_Sep_28_1518,Flanker,2021.2.0,239.58408203224522,
neutral left,0,a,neutral.png,neutral.png,neutral.png,left_arrow.png,neutral.png,neutral.png,neutral.png,,,,,,,,,,,,,2,1,13,4,,,,,336.8756403999996,None,,,,,,,,,,,,,,,,,,,,,,,,,,,,,,337.88922529999945,None,337.88922529999945,None,337.88922529999945,None,337.88922529999945,None,337.88922529999945,None,337.88922529999945,None,337.88922529999945,None,a,1,0.487873000000036,337.88922529999945,None,,,,,,,,,,,,,7,001,2022_Sep_28_1518,Flanker,2021.2.0,239.58408203224522,
incongruent-left.jpg,0,a,right_arrow.png,right_arrow.png,right_arrow.png,left_arrow.png,right_arrow.png,right_arrow.png,right_arrow.png,,,,,,,,,,,,,2,2,14,1,,,,,338.38974419999977,None,,,,,,,,,,,,,,,,,,,,,,,,,,,,,,339.40333049999936,None,339.40333049999936,None,339.40333049999936,None,339.40333049999936,None,339.40333049999936,None,339.40333049999936,None,339.40333049999936,None,a,1,0.6379766999998537,339.40333049999936,None,,,,,,,,,,,,,7,001,2022_Sep_28_1518,Flanker,2021.2.0,239.58408203224522,
neutral left,0,a,neutral.png,neutral.png,neutral.png,left_arrow.png,neutral.png,neutral.png,neutral.png,,,,,,,,,,,,,2,3,15,4,,,,,340.05424329999914,None,,,,,,,,,,,,,,,,,,,,,,,,,,,,,,341.0638192999995,None,341.0638192999995,None,341.0638192999995,None,341.0638192999995,None,341.0638192999995,None,341.0638192999995,None,341.0638192999995,None,a,1,0.5617480999990221,341.0638192999995,None,,,,,,,,,,,,,7,001,2022_Sep_28_1518,Flanker,2021.2.0,239.58408203224522,
congruent-left.jpg,1,a,left_arrow.png,left_arrow.png,left_arrow.png,left_arrow.png,left_arrow.png,left_arrow.png,left_arrow.png,,,,,,,,,,,,,2,4,16,0,,,,,341.63902869999947,None,,,,,,,,,,,,,,,,,,,,,,,,,,,,,,342.6525951000003,None,342.6525951000003,None,342.6525951000003,None,342.6525951000003,None,342.6525951000003,None,342.6525951000003,None,342.6525951000003,None,a,1,0.6611630999996123,342.6525951000003,None,,,,,,,,,,,,,7,001,2022_Sep_28_1518,Flanker,2021.2.0,239.58408203224522,
neutral right,0,k,neutral.png,neutral.png,neutral.png,right_arrow.png,neutral.png,neutral.png,neutral.png,,,,,,,,,,,,,2,5,17,5,,,,,343.32832359999884,None,,,,,,,,,,,,,,,,,,,,,,,,,,,,,,344.3418916999999,None,344.3418916999999,None,344.3418916999999,None,344.3418916999999,None,344.3418916999999,None,344.3418916999999,None,344.3418916999999,None,k,1,0.5162466999991011,344.3418916999999,None,,,,,,,,,,,,,7,001,2022_Sep_28_1518,Flanker,2021.2.0,239.58408203224522,
congruent-left.jpg,1,a,left_arrow.png,left_arrow.png,left_arrow.png,left_arrow.png,left_arrow.png,left_arrow.png,left_arrow.png,,,,,,,,,,,,,3,0,18,0,,,,,344.8757859999987,None,,,,,,,,,,,,,,,,,,,,,,,,,,,,,,345.88935479999964,None,345.88935479999964,None,345.88935479999964,None,345.88935479999964,None,345.88935479999964,None,345.88935479999964,None,345.88935479999964,None,a,1,0.49684830000114744,345.88935479999964,None,,,,,,,,,,,,,7,001,2022_Sep_28_1518,Flanker,2021.2.0,239.58408203224522,
neutral right,0,k,neutral.png,neutral.png,neutral.png,right_arrow.png,neutral.png,neutral.png,neutral.png,,,,,,,,,,,,,3,1,19,5,,,,,346.3982562000001,None,,,,,,,,,,,,,,,,,,,,,,,,,,,,,,347.4076488999999,None,347.4076488999999,None,347.4076488999999,None,347.4076488999999,None,347.4076488999999,None,347.4076488999999,None,347.4076488999999,None,k,1,0.45890760000111186,347.4076488999999,None,,,,,,,,,,,,,7,001,2022_Sep_28_1518,Flanker,2021.2.0,239.58408203224522,
neutral right,0,k,neutral.png,neutral.png,neutral.png,right_arrow.png,neutral.png,neutral.png,neutral.png,,,,,,,,,,,,,3,2,20,5,,,,,347.883127699999,None,,,,,,,,,,,,,,,,,,,,,,,,,,,,,,348.89275909999924,None,348.89275909999924,None,348.89275909999924,None,348.89275909999924,None,348.89275909999924,None,348.89275909999924,None,348.89275909999924,None,k,1,0.4780035999992833,348.89275909999924,None,,,,,,,,,,,,,7,001,2022_Sep_28_1518,Flanker,2021.2.0,239.58408203224522,
congruent-right.jpg,1,k,right_arrow.png,right_arrow.png,right_arrow.png,right_arrow.png,right_arrow.png,right_arrow.png,right_arrow.png,,,,,,,,,,,,,3,3,21,2,,,,,349.38496309999937,None,,,,,,,,,,,,,,,,,,,,,,,,,,,,,,350.3984741000004,None,350.3984741000004,None,350.3984741000004,None,350.3984741000004,None,350.3984741000004,None,350.3984741000004,None,350.3984741000004,None,k,1,0.47655849999864586,350.3984741000004,None,,,,,,,,,,,,,7,001,2022_Sep_28_1518,Flanker,2021.2.0,239.58408203224522,
incongruent-right.jpg,0,k,left_arrow.png,left_arrow.png,left_arrow.png,right_arrow.png,left_arrow.png,left_arrow.png,left_arrow.png,,,,,,,,,,,,,3,4,22,3,,,,,350.8906544999991,None,,,,,,,,,,,,,,,,,,,,,,,,,,,,,,351.90409159999945,None,351.90409159999945,None,351.90409159999945,None,351.90409159999945,None,351.90409159999945,None,351.90409159999945,None,351.90409159999945,None,k,1,0.5629547000007733,351.90409159999945,None,,,,,,,,,,,,,7,001,2022_Sep_28_1518,Flanker,2021.2.0,239.58408203224522,
neutral right,0,k,neutral.png,neutral.png,neutral.png,right_arrow.png,neutral.png,neutral.png,neutral.png,,,,,,,,,,,,,3,5,23,5,,,,,352.4797110999989,None,,,,,,,,,,,,,,,,,,,,,,,,,,,,,,353.49758549999933,None,353.49758549999933,None,353.49758549999933,None,353.49758549999933,None,353.49758549999933,None,353.49758549999933,None,353.49758549999933,None,k,1,0.8017059999983758,353.49758549999933,None,,,,,,,,,,,,,7,001,2022_Sep_28_1518,Flanker,2021.2.0,239.58408203224522,
neutral left,0,a,neutral.png,neutral.png,neutral.png,left_arrow.png,neutral.png,neutral.png,neutral.png,,,,,,,,,,,,,4,0,24,4,,,,,354.31497969999873,None,,,,,,,,,,,,,,,,,,,,,,,,,,,,,,355.3244926999996,None,355.3244926999996,None,355.3244926999996,None,355.3244926999996,None,355.3244926999996,None,355.3244926999996,None,355.3244926999996,None,a,1,0.5031550000003335,355.3244926999996,None,,,,,,,,,,,,,7,001,2022_Sep_28_1518,Flanker,2021.2.0,239.58408203224522,
congruent-right.jpg,1,k,right_arrow.png,right_arrow.png,right_arrow.png,right_arrow.png,right_arrow.png,right_arrow.png,right_arrow.png,,,,,,,,,,,,,4,1,25,2,,,,,355.84173459999874,None,,,,,,,,,,,,,,,,,,,,,,,,,,,,,,356.851144799999,None,356.851144799999,None,356.851144799999,None,356.851144799999,None,356.851144799999,None,356.851144799999,None,356.851144799999,None,k,1,0.696577000000616,356.851144799999,None,,,,,,,,,,,,,7,001,2022_Sep_28_1518,Flanker,2021.2.0,239.58408203224522,
incongruent-right.jpg,0,k,left_arrow.png,left_arrow.png,left_arrow.png,right_arrow.png,left_arrow.png,left_arrow.png,left_arrow.png,,,,,,,,,,,,,4,2,26,3,,,,,357.56015169999955,None,,,,,,,,,,,,,,,,,,,,,,,,,,,,,,358.5738526999994,None,358.5738526999994,None,358.5738526999994,None,358.5738526999994,None,358.5738526999994,None,358.5738526999994,None,358.5738526999994,None,k,1,0.4782298999998602,358.5738526999994,None,,,,,,,,,,,,,7,001,2022_Sep_28_1518,Flanker,2021.2.0,239.58408203224522,
neutral right,0,k,neutral.png,neutral.png,neutral.png,right_arrow.png,neutral.png,neutral.png,neutral.png,,,,,,,,,,,,,4,3,27,5,,,,,359.0660102999991,None,,,,,,,,,,,,,,,,,,,,,,,,,,,,,,360.0754567999993,None,360.0754567999993,None,360.0754567999993,None,360.0754567999993,None,360.0754567999993,None,360.0754567999993,None,360.0754567999993,None,k,1,0.49669229999926756,360.0754567999993,None,,,,,,,,,,,,,7,001,2022_Sep_28_1518,Flanker,2021.2.0,239.58408203224522,
neutral left,0,a,neutral.png,neutral.png,neutral.png,left_arrow.png,neutral.png,neutral.png,neutral.png,,,,,,,,,,,,,4,4,28,4,,,,,360.5842582000005,None,,,,,,,,,,,,,,,,,,,,,,,,,,,,,,361.5935131999995,None,361.5935131999995,None,361.5935131999995,None,361.5935131999995,None,361.5935131999995,None,361.5935131999995,None,361.5935131999995,None,a,1,0.7228485000014189,361.5935131999995,None,,,,,,,,,,,,,7,001,2022_Sep_28_1518,Flanker,2021.2.0,239.58408203224522,
incongruent-left.jpg,0,a,right_arrow.png,right_arrow.png,right_arrow.png,left_arrow.png,right_arrow.png,right_arrow.png,right_arrow.png,,,,,,,,,,,,,4,5,29,1,,,,,362.3277832999993,None,,,,,,,,,,,,,,,,,,,,,,,,,,,,,,363.3373445999987,None,363.3373445999987,None,363.3373445999987,None,363.3373445999987,None,363.3373445999987,None,363.3373445999987,None,363.3373445999987,None,a,1,0.5952770999992936,363.3373445999987,None,,,,,,,,,,,,,7,001,2022_Sep_28_1518,Flanker,2021.2.0,239.58408203224522,
congruent-left.jpg,1,a,left_arrow.png,left_arrow.png,left_arrow.png,left_arrow.png,left_arrow.png,left_arrow.png,left_arrow.png,,,,,,,,,,,,,5,0,30,0,,,,,363.9463818999993,None,,,,,,,,,,,,,,,,,,,,,,,,,,,,,,364.9555573999987,None,364.9555573999987,None,364.9555573999987,None,364.9555573999987,None,364.9555573999987,None,364.9555573999987,None,364.9555573999987,None,a,1,0.5052222999984224,364.9555573999987,None,,,,,,,,,,,,,7,001,2022_Sep_28_1518,Flanker,2021.2.0,239.58408203224522,
congruent-right.jpg,1,k,right_arrow.png,right_arrow.png,right_arrow.png,right_arrow.png,right_arrow.png,right_arrow.png,right_arrow.png,,,,,,,,,,,,,5,1,31,2,,,,,365.47294879999936,None,,,,,,,,,,,,,,,,,,,,,,,,,,,,,,366.49051469999904,None,366.49051469999904,None,366.49051469999904,None,366.49051469999904,None,366.49051469999904,None,366.49051469999904,None,366.49051469999904,None,k,1,0.9225418999994872,366.49051469999904,None,,,,,,,,,,,,,7,001,2022_Sep_28_1518,Flanker,2021.2.0,239.58408203224522,
congruent-right.jpg,1,k,right_arrow.png,right_arrow.png,right_arrow.png,right_arrow.png,right_arrow.png,right_arrow.png,right_arrow.png,,,,,,,,,,,,,5,2,32,2,,,,,367.42484609999883,None,,,,,,,,,,,,,,,,,,,,,,,,,,,,,,368.434231199999,None,368.434231199999,None,368.434231199999,None,368.434231199999,None,368.434231199999,None,368.434231199999,None,368.434231199999,None,k,1,0.49119509999945876,368.434231199999,None,,,,,,,,,,,,,7,001,2022_Sep_28_1518,Flanker,2021.2.0,239.58408203224522,
neutral right,0,k,neutral.png,neutral.png,neutral.png,right_arrow.png,neutral.png,neutral.png,neutral.png,,,,,,,,,,,,,5,3,33,5,,,,,368.94313169999987,None,,,,,,,,,,,,,,,,,,,,,,,,,,,,,,369.9566976999995,None,369.9566976999995,None,369.9566976999995,None,369.9566976999995,None,369.9566976999995,None,369.9566976999995,None,369.9566976999995,None,k,1,0.41693860000123095,369.9566976999995,None,,,,,,,,,,,,,7,001,2022_Sep_28_1518,Flanker,2021.2.0,239.58408203224522,
incongruent-left.jpg,0,a,right_arrow.png,right_arrow.png,right_arrow.png,left_arrow.png,right_arrow.png,right_arrow.png,right_arrow.png,,,,,,,,,,,,,5,4,34,1,,,,,370.390496,None,,,,,,,,,,,,,,,,,,,,,,,,,,,,,,371.4040623000001,None,371.4040623000001,None,371.4040623000001,None,371.4040623000001,None,371.4040623000001,None,371.4040623000001,None,371.4040623000001,None,a,1,0.609704899999997,371.4040623000001,None,,,,,,,,,,,,,7,001,2022_Sep_28_1518,Flanker,2021.2.0,239.58408203224522,
congruent-right.jpg,1,k,right_arrow.png,right_arrow.png,right_arrow.png,right_arrow.png,right_arrow.png,right_arrow.png,right_arrow.png,,,,,,,,,,,,,5,5,35,2,,,,,372.029729599999,None,,,,,,,,,,,,,,,,,,,,,,,,,,,,,,373.04332690000047,None,373.04332690000047,None,373.04332690000047,None,373.04332690000047,None,373.04332690000047,None,373.04332690000047,None,373.04332690000047,None,k,1,0.6665926999994554,373.04332690000047,None,,,,,,,,,,,,,7,001,2022_Sep_28_1518,Flanker,2021.2.0,239.58408203224522,
incongruent-left.jpg,0,a,right_arrow.png,right_arrow.png,right_arrow.png,left_arrow.png,right_arrow.png,right_arrow.png,right_arrow.png,,,,,,,,,,,,,6,0,36,1,,,,,373.72723059999953,None,,,,,,,,,,,,,,,,,,,,,,,,,,,,,,374.7367761000005,None,374.7367761000005,None,374.7367761000005,None,374.7367761000005,None,374.7367761000005,None,374.7367761000005,None,374.7367761000005,None,a,1,0.8695348000001104,374.7367761000005,None,,,,,,,,,,,,,7,001,2022_Sep_28_1518,Flanker,2021.2.0,239.58408203224522,
incongruent-left.jpg,0,a,right_arrow.png,right_arrow.png,right_arrow.png,left_arrow.png,right_arrow.png,right_arrow.png,right_arrow.png,,,,,,,,,,,,,6,1,37,1,,,,,375.62103279999974,None,,,,,,,,,,,,,,,,,,,,,,,,,,,,,,376.6346085999994,None,376.6346085999994,None,376.6346085999994,None,376.6346085999994,None,376.6346085999994,None,376.6346085999994,None,376.6346085999994,None,a,1,0.5557453999990685,376.6346085999994,None,,,,,,,,,,,,,7,001,2022_Sep_28_1518,Flanker,2021.2.0,239.58408203224522,
incongruent-right.jpg,0,k,left_arrow.png,left_arrow.png,left_arrow.png,right_arrow.png,left_arrow.png,left_arrow.png,left_arrow.png,,,,,,,,,,,,,6,2,38,3,,,,,377.2017114999999,None,,,,,,,,,,,,,,,,,,,,,,,,,,,,,,378.2111148999993,None,378.2111148999993,None,378.2111148999993,None,378.2111148999993,None,378.2111148999993,None,378.2111148999993,None,378.2111148999993,None,k,1,0.7956537999998545,378.2111148999993,None,,,,,,,,,,,,,7,001,2022_Sep_28_1518,Flanker,2021.2.0,239.58408203224522,
incongruent-right.jpg,0,k,left_arrow.png,left_arrow.png,left_arrow.png,right_arrow.png,left_arrow.png,left_arrow.png,left_arrow.png,,,,,,,,,,,,,6,3,39,3,,,,,379.0246269999989,None,,,,,,,,,,,,,,,,,,,,,,,,,,,,,,380.03401809999923,None,380.03401809999923,None,380.03401809999923,None,380.03401809999923,None,380.03401809999923,None,380.03401809999923,None,380.03401809999923,None,k,1,0.5888207000007242,380.03401809999923,None,,,,,,,,,,,,,7,001,2022_Sep_28_1518,Flanker,2021.2.0,239.58408203224522,
neutral left,0,a,neutral.png,neutral.png,neutral.png,left_arrow.png,neutral.png,neutral.png,neutral.png,,,,,,,,,,,,,6,4,40,4,,,,,380.63466700000026,None,,,,,,,,,,,,,,,,,,,,,,,,,,,,,,381.6439472999991,None,381.6439472999991,None,381.6439472999991,None,381.6439472999991,None,381.6439472999991,None,381.6439472999991,None,381.6439472999991,None,a,1,0.691313799999989,381.6439472999991,None,,,,,,,,,,,,,7,001,2022_Sep_28_1518,Flanker,2021.2.0,239.58408203224522,
congruent-right.jpg,1,k,right_arrow.png,right_arrow.png,right_arrow.png,right_arrow.png,right_arrow.png,right_arrow.png,right_arrow.png,,,,,,,,,,,,,6,5,41,2,,,,,382.3489176000003,None,,,,,,,,,,,,,,,,,,,,,,,,,,,,,,383.3626035999987,None,383.3626035999987,None,383.3626035999987,None,383.3626035999987,None,383.3626035999987,None,383.3626035999987,None,383.3626035999987,None,k,1,0.7727379000007204,383.3626035999987,None,,,,,,,,,,,,,7,001,2022_Sep_28_1518,Flanker,2021.2.0,239.58408203224522,
incongruent-right.jpg,0,k,left_arrow.png,left_arrow.png,left_arrow.png,right_arrow.png,left_arrow.png,left_arrow.png,left_arrow.png,,,,,,,,,,,,,7,0,42,3,,,,,384.1467269999994,None,,,,,,,,,,,,,,,,,,,,,,,,,,,,,,385.16034860000036,None,385.16034860000036,None,385.16034860000036,None,385.16034860000036,None,385.16034860000036,None,385.16034860000036,None,385.16034860000036,None,k,1,0.48718580000058864,385.16034860000036,None,,,,,,,,,,,,,7,001,2022_Sep_28_1518,Flanker,2021.2.0,239.58408203224522,
neutral right,0,k,neutral.png,neutral.png,neutral.png,right_arrow.png,neutral.png,neutral.png,neutral.png,,,,,,,,,,,,,7,1,43,5,,,,,385.6608311,None,,,,,,,,,,,,,,,,,,,,,,,,,,,,,,386.67030429999977,None,386.67030429999977,None,386.67030429999977,None,386.67030429999977,None,386.67030429999977,None,386.67030429999977,None,386.67030429999977,None,k,1,0.47346289999950386,386.67030429999977,None,,,,,,,,,,,,,7,001,2022_Sep_28_1518,Flanker,2021.2.0,239.58408203224522,
congruent-left.jpg,1,a,left_arrow.png,left_arrow.png,left_arrow.png,left_arrow.png,left_arrow.png,left_arrow.png,left_arrow.png,,,,,,,,,,,,,7,2,44,0,,,,,387.1625022999997,None,,,,,,,,,,,,,,,,,,,,,,,,,,,,,,388.1719314000002,None,388.1719314000002,None,388.1719314000002,None,388.1719314000002,None,388.1719314000002,None,388.1719314000002,None,388.1719314000002,None,a,1,0.4922322999991593,388.1719314000002,None,,,,,,,,,,,,,7,001,2022_Sep_28_1518,Flanker,2021.2.0,239.58408203224522,
neutral left,0,a,neutral.png,neutral.png,neutral.png,left_arrow.png,neutral.png,neutral.png,neutral.png,,,,,,,,,,,,,7,3,45,4,,,,,388.68099230000007,None,,,,,,,,,,,,,,,,,,,,,,,,,,,,,,389.6942805999988,None,389.6942805999988,None,389.6942805999988,None,389.6942805999988,None,389.6942805999988,None,389.6942805999988,None,389.6942805999988,None,a,1,0.46600190000026487,389.6942805999988,None,,,,,,,,,,,,,7,001,2022_Sep_28_1518,Flanker,2021.2.0,239.58408203224522,
congruent-left.jpg,1,a,left_arrow.png,left_arrow.png,left_arrow.png,left_arrow.png,left_arrow.png,left_arrow.png,left_arrow.png,,,,,,,,,,,,,7,4,46,0,,,,,390.17811299999994,None,,,,,,,,,,,,,,,,,,,,,,,,,,,,,,391.18765109999913,None,391.18765109999913,None,391.18765109999913,None,391.18765109999913,None,391.18765109999913,None,391.18765109999913,None,391.18765109999913,None,a,1,0.44486239999969257,391.18765109999913,None,,,,,,,,,,,,,7,001,2022_Sep_28_1518,Flanker,2021.2.0,239.58408203224522,
congruent-left.jpg,1,a,left_arrow.png,left_arrow.png,left_arrow.png,left_arrow.png,left_arrow.png,left_arrow.png,left_arrow.png,,,,,,,,,,,,,7,5,47,0,,,,,391.64644059999955,None,,,,,,,,,,,,,,,,,,,,,,,,,,,,,,392.6599358000003,None,392.6599358000003,None,392.6599358000003,None,392.6599358000003,None,392.6599358000003,None,392.6599358000003,None,392.6599358000003,None,a,1,0.49279810000007274,392.6599358000003,None,,,,,,,,,,,,,7,001,2022_Sep_28_1518,Flanker,2021.2.0,239.58408203224522,
,,,,,,,,,,,,,,,,,,,,,,,,,,,,,,,,,,,,,,,,,,,,,,,,,,,,,,,,,,,,,,,,,,,,,,,,,,,,,,,,393.1813715999997,None,space,2.387487699999838,393.1813715999997,None,,,,,,,7,001,2022_Sep_28_1518,Flanker,2021.2.0,239.58408203224522,
,,,,,,,,,,,,,,,,,,,,,,,,,,,,,,,,,,,,,,,,,,,,,,,,,,,,,,,,,,,,,,,,,,,,,,,,,,,,,,,,,,,,,,395.58387120000043,None,space,3.8895348999994894,395.58387120000043,None,7,001,2022_Sep_28_1518,Flanker,2021.2.0,239.58408203224522,
