images,congruentcy,corrAns,arrow_1,arrow_2,arrow_3,target,arrow_5,arrow_6,arrow_7,practice.thisRepN,practice.thisTrialN,practice.thisN,practice.thisIndex,trials.thisRepN,trials.thisTrialN,trials.thisN,trials.thisIndex,trials_2.thisRepN,trials_2.thisTrialN,trials_2.thisN,trials_2.thisIndex,trials_3.thisRepN,trials_3.thisTrialN,trials_3.thisN,trials_3.thisIndex,instr_text.started,instr_text.stopped,instr_resp.keys,instr_resp.rt,polygon.started,polygon.stopped,arrow1_.started,arrow1_.stopped,arrow2_.started,arrow2_.stopped,arrow3_.started,arrow3_.stopped,target_p.started,target_p.stopped,arrow5_.started,arrow5_.stopped,arrow6_.started,arrow6_.stopped,arrow7_.started,arrow7_.stopped,key_resp_P.keys,key_resp_P.corr,key_resp_P.rt,key_resp_P.started,key_resp_P.stopped,text_2.started,text_2.stopped,text_3.started,text_3.stopped,text_4.started,text_4.stopped,key_resp_2.keys,key_resp_2.rt,key_resp_2.started,key_resp_2.stopped,arrow1.started,arrow1.stopped,arrow2.started,arrow2.stopped,arrow3.started,arrow3.stopped,target_t.started,target_t.stopped,arrow5.started,arrow5.stopped,arrow6.started,arrow6.stopped,arrow7.started,arrow7.stopped,key_resp.keys,key_resp.corr,key_resp.rt,key_resp.started,key_resp.stopped,text_5.started,text_5.stopped,key_resp_3.keys,key_resp_3.rt,key_resp_3.started,key_resp_3.stopped,text_6.started,text_6.stopped,key_resp_4.keys,key_resp_4.rt,key_resp_4.started,key_resp_4.stopped,participant,session,date,expName,psychopyVersion,frameRate,
,,,,,,,,,,,,,,,,,,,,,,,,,,12.073145999999724,None,space,28.631710900000144,,,,,,,,,,,,,,,,,,,,,,,,,,,,,,,,,,,,,,,,,,,,,,,,,,,,,,,,,,,,,,,8,001,2022_Sep_29_1642,Flanker,2021.2.0,239.957767432602,
neutral left,0,a,neutral.png,neutral.png,neutral.png,left_arrow.png,neutral.png,neutral.png,neutral.png,0,0,0,4,,,,,,,,,,,,,,,,,40.74634819999983,None,41.75140099999999,None,41.75140099999999,None,41.75140099999999,None,41.75140099999999,None,41.75140099999999,None,41.75140099999999,None,41.75140099999999,None,a,1,0.729641299999912,41.75140099999999,None,42.50193360000003,None,,,,,,,,,,,,,,,,,,,,,,,,,,,,,,,,,,,,,,,,8,001,2022_Sep_29_1642,Flanker,2021.2.0,239.957767432602,
congruent-left.jpg,1,a,left_arrow.png,left_arrow.png,left_arrow.png,left_arrow.png,left_arrow.png,left_arrow.png,left_arrow.png,0,1,1,0,,,,,,,,,,,,,,,,,44.003815399999894,None,45.00495499999988,None,45.00495499999988,None,45.00495499999988,None,45.00495499999988,None,45.00495499999988,None,45.00495499999988,None,45.00495499999988,None,a,1,0.5404996000002029,45.00495499999988,None,45.56376509999973,None,,,,,,,,,,,,,,,,,,,,,,,,,,,,,,,,,,,,,,,,8,001,2022_Sep_29_1642,Flanker,2021.2.0,239.957767432602,
congruent-left.jpg,1,a,left_arrow.png,left_arrow.png,left_arrow.png,left_arrow.png,left_arrow.png,left_arrow.png,left_arrow.png,0,2,2,0,,,,,,,,,,,,,,,,,47.06959949999964,None,48.07445839999991,None,48.07445839999991,None,48.07445839999991,None,48.07445839999991,None,48.07445839999991,None,48.07445839999991,None,48.07445839999991,None,a,1,0.44737110000005487,48.07445839999991,None,48.53358170000001,None,,,,,,,,,,,,,,,,,,,,,,,,,,,,,,,,,,,,,,,,8,001,2022_Sep_29_1642,Flanker,2021.2.0,239.957767432602,
incongruent-left.jpg,0,a,right_arrow.png,right_arrow.png,right_arrow.png,left_arrow.png,right_arrow.png,right_arrow.png,right_arrow.png,0,3,3,1,,,,,,,,,,,,,,,,,50.035162599999694,None,51.057124499999645,None,51.057124499999645,None,51.057124499999645,None,51.057124499999645,None,51.057124499999645,None,51.057124499999645,None,51.057124499999645,None,k,0,0.3931188999999904,51.057124499999645,None,51.47009549999984,None,,,,,,,,,,,,,,,,,,,,,,,,,,,,,,,,,,,,,,,,8,001,2022_Sep_29_1642,Flanker,2021.2.0,239.957767432602,
neutral right,0,k,neutral.png,neutral.png,neutral.png,right_arrow.png,neutral.png,neutral.png,neutral.png,0,4,4,5,,,,,,,,,,,,,,,,,52.96744619999981,None,53.976808899999924,None,53.976808899999924,None,53.976808899999924,None,53.976808899999924,None,53.976808899999924,None,53.976808899999924,None,53.976808899999924,None,k,1,0.6418420999998489,53.976808899999924,None,54.63556679999965,None,,,,,,,,,,,,,,,,,,,,,,,,,,,,,,,,,,,,,,,,8,001,2022_Sep_29_1642,Flanker,2021.2.0,239.957767432602,
congruent-right.jpg,1,k,right_arrow.png,right_arrow.png,right_arrow.png,right_arrow.png,right_arrow.png,right_arrow.png,right_arrow.png,0,5,5,2,,,,,,,,,,,,,,,,,56.13745129999961,None,57.14681819999987,None,57.14681819999987,None,57.14681819999987,None,57.14681819999987,None,57.14681819999987,None,57.14681819999987,None,57.14681819999987,None,k,1,0.5042342000001554,57.14681819999987,None,57.66377130000001,None,,,,,,,,,,,,,,,,,,,,,,,,,,,,,,,,,,,,,,,,8,001,2022_Sep_29_1642,Flanker,2021.2.0,239.957767432602,
congruent-right.jpg,1,k,right_arrow.png,right_arrow.png,right_arrow.png,right_arrow.png,right_arrow.png,right_arrow.png,right_arrow.png,1,0,6,2,,,,,,,,,,,,,,,,,59.16982959999996,None,60.178932099999656,None,60.178932099999656,None,60.178932099999656,None,60.178932099999656,None,60.178932099999656,None,60.178932099999656,None,60.178932099999656,None,k,1,0.5525298000002294,60.178932099999656,None,60.74657399999978,None,,,,,,,,,,,,,,,,,,,,,,,,,,,,,,,,,,,,,,,,8,001,2022_Sep_29_1642,Flanker,2021.2.0,239.957767432602,
incongruent-right.jpg,0,k,left_arrow.png,left_arrow.png,left_arrow.png,right_arrow.png,left_arrow.png,left_arrow.png,left_arrow.png,1,1,7,3,,,,,,,,,,,,,,,,,62.25195669999994,None,63.257484100000056,None,63.257484100000056,None,63.257484100000056,None,63.257484100000056,None,63.257484100000056,None,63.257484100000056,None,63.257484100000056,None,k,1,0.6504231999997501,63.257484100000056,None,63.92456149999998,None,,,,,,,,,,,,,,,,,,,,,,,,,,,,,,,,,,,,,,,,8,001,2022_Sep_29_1642,Flanker,2021.2.0,239.957767432602,
incongruent-right.jpg,0,k,left_arrow.png,left_arrow.png,left_arrow.png,right_arrow.png,left_arrow.png,left_arrow.png,left_arrow.png,1,2,8,3,,,,,,,,,,,,,,,,,65.43062379999992,None,66.43556239999998,None,66.43556239999998,None,66.43556239999998,None,66.43556239999998,None,66.43556239999998,None,66.43556239999998,None,66.43556239999998,None,k,1,0.5367624999998952,66.43556239999998,None,66.98613279999972,None,,,,,,,,,,,,,,,,,,,,,,,,,,,,,,,,,,,,,,,,8,001,2022_Sep_29_1642,Flanker,2021.2.0,239.957767432602,
incongruent-left.jpg,0,a,right_arrow.png,right_arrow.png,right_arrow.png,left_arrow.png,right_arrow.png,right_arrow.png,right_arrow.png,1,3,9,1,,,,,,,,,,,,,,,,,68.48772589999999,None,69.49713729999985,None,69.49713729999985,None,69.49713729999985,None,69.49713729999985,None,69.49713729999985,None,69.49713729999985,None,69.49713729999985,None,a,1,0.5876376000001073,69.49713729999985,None,70.09786779999968,None,,,,,,,,,,,,,,,,,,,,,,,,,,,,,,,,,,,,,,,,8,001,2022_Sep_29_1642,Flanker,2021.2.0,239.957767432602,
congruent-left.jpg,1,a,left_arrow.png,left_arrow.png,left_arrow.png,left_arrow.png,left_arrow.png,left_arrow.png,left_arrow.png,1,4,10,0,,,,,,,,,,,,,,,,,71.60351489999994,None,72.60875309999983,None,72.60875309999983,None,72.60875309999983,None,72.60875309999983,None,72.60875309999983,None,72.60875309999983,None,72.60875309999983,None,a,1,0.476365099999839,72.60875309999983,None,73.10102310000002,None,,,,,,,,,,,,,,,,,,,,,,,,,,,,,,,,,,,,,,,,8,001,2022_Sep_29_1642,Flanker,2021.2.0,239.957767432602,
neutral left,0,a,neutral.png,neutral.png,neutral.png,left_arrow.png,neutral.png,neutral.png,neutral.png,1,5,11,4,,,,,,,,,,,,,,,,,74.60282479999978,None,75.61609199999975,None,75.61609199999975,None,75.61609199999975,None,75.61609199999975,None,75.61609199999975,None,75.61609199999975,None,75.61609199999975,None,a,1,0.46942310000031284,75.61609199999975,None,76.10411529999965,None,,,,,,,,,,,,,,,,,,,,,,,,,,,,,,,,,,,,,,,,8,001,2022_Sep_29_1642,Flanker,2021.2.0,239.957767432602,
congruent-left.jpg,1,a,left_arrow.png,left_arrow.png,left_arrow.png,left_arrow.png,left_arrow.png,left_arrow.png,left_arrow.png,2,0,12,0,,,,,,,,,,,,,,,,,77.60569510000005,None,78.61511419999988,None,78.61511419999988,None,78.61511419999988,None,78.61511419999988,None,78.61511419999988,None,78.61511419999988,None,78.61511419999988,None,a,1,0.6308117000003222,78.61511419999988,None,79.25747279999996,None,,,,,,,,,,,,,,,,,,,,,,,,,,,,,,,,,,,,,,,,8,001,2022_Sep_29_1642,Flanker,2021.2.0,239.957767432602,
congruent-right.jpg,1,k,right_arrow.png,right_arrow.png,right_arrow.png,right_arrow.png,right_arrow.png,right_arrow.png,right_arrow.png,2,1,13,2,,,,,,,,,,,,,,,,,80.7593812,None,81.76844940000001,None,81.76844940000001,None,81.76844940000001,None,81.76844940000001,None,81.76844940000001,None,81.76844940000001,None,81.76844940000001,None,k,1,0.5339066000001367,81.76844940000001,None,82.31933439999966,None,,,,,,,,,,,,,,,,,,,,,,,,,,,,,,,,,,,,,,,,8,001,2022_Sep_29_1642,Flanker,2021.2.0,239.957767432602,
incongruent-left.jpg,0,a,right_arrow.png,right_arrow.png,right_arrow.png,left_arrow.png,right_arrow.png,right_arrow.png,right_arrow.png,2,2,14,1,,,,,,,,,,,,,,,,,83.82477309999967,None,84.83029279999982,None,84.83029279999982,None,84.83029279999982,None,84.83029279999982,None,84.83029279999982,None,84.83029279999982,None,84.83029279999982,None,a,1,0.5364682999997967,84.83029279999982,None,85.38076030000002,None,,,,,,,,,,,,,,,,,,,,,,,,,,,,,,,,,,,,,,,,8,001,2022_Sep_29_1642,Flanker,2021.2.0,239.957767432602,
neutral right,0,k,neutral.png,neutral.png,neutral.png,right_arrow.png,neutral.png,neutral.png,neutral.png,2,3,15,5,,,,,,,,,,,,,,,,,86.88217009999971,None,87.89590509999971,None,87.89590509999971,None,87.89590509999971,None,87.89590509999971,None,87.89590509999971,None,87.89590509999971,None,87.89590509999971,None,k,1,0.47126459999981307,87.89590509999971,None,88.37960479999992,None,,,,,,,,,,,,,,,,,,,,,,,,,,,,,,,,,,,,,,,,8,001,2022_Sep_29_1642,Flanker,2021.2.0,239.957767432602,
incongruent-left.jpg,0,a,right_arrow.png,right_arrow.png,right_arrow.png,left_arrow.png,right_arrow.png,right_arrow.png,right_arrow.png,2,4,16,1,,,,,,,,,,,,,,,,,89.88152019999961,None,90.89474939999991,None,90.89474939999991,None,90.89474939999991,None,90.89474939999991,None,90.89474939999991,None,90.89474939999991,None,90.89474939999991,None,a,1,0.45679770000015196,90.89474939999991,None,91.37034909999966,None,,,,,,,,,,,,,,,,,,,,,,,,,,,,,,,,,,,,,,,,8,001,2022_Sep_29_1642,Flanker,2021.2.0,239.957767432602,
neutral right,0,k,neutral.png,neutral.png,neutral.png,right_arrow.png,neutral.png,neutral.png,neutral.png,2,5,17,5,,,,,,,,,,,,,,,,,92.87217839999994,None,93.8812770999998,None,93.8812770999998,None,93.8812770999998,None,93.8812770999998,None,93.8812770999998,None,93.8812770999998,None,93.8812770999998,None,k,1,0.44669359999988956,93.8812770999998,None,94.34006569999974,None,,,,,,,,,,,,,,,,,,,,,,,,,,,,,,,,,,,,,,,,8,001,2022_Sep_29_1642,Flanker,2021.2.0,239.957767432602,
congruent-right.jpg,1,k,right_arrow.png,right_arrow.png,right_arrow.png,right_arrow.png,right_arrow.png,right_arrow.png,right_arrow.png,3,0,18,2,,,,,,,,,,,,,,,,,95.84589129999995,None,96.85105339999973,None,96.85105339999973,None,96.85105339999973,None,96.85105339999973,None,96.85105339999973,None,96.85105339999973,None,96.85105339999973,None,k,1,0.5812936000002082,96.85105339999973,None,97.45171110000001,None,,,,,,,,,,,,,,,,,,,,,,,,,,,,,,,,,,,,,,,,8,001,2022_Sep_29_1642,Flanker,2021.2.0,239.957767432602,
neutral left,0,a,neutral.png,neutral.png,neutral.png,left_arrow.png,neutral.png,neutral.png,neutral.png,3,1,19,4,,,,,,,,,,,,,,,,,98.95328709999967,None,99.96270359999971,None,99.96270359999971,None,99.96270359999971,None,99.96270359999971,None,99.96270359999971,None,99.96270359999971,None,99.96270359999971,None,a,1,0.4860484999999244,99.96270359999971,None,100.46322519999967,None,,,,,,,,,,,,,,,,,,,,,,,,,,,,,,,,,,,,,,,,8,001,2022_Sep_29_1642,Flanker,2021.2.0,239.957767432602,
incongruent-right.jpg,0,k,left_arrow.png,left_arrow.png,left_arrow.png,right_arrow.png,left_arrow.png,left_arrow.png,left_arrow.png,3,2,20,3,,,,,,,,,,,,,,,,,101.96509149999974,None,102.9783938999999,None,102.9783938999999,None,102.9783938999999,None,102.9783938999999,None,102.9783938999999,None,102.9783938999999,None,102.9783938999999,None,k,1,0.5671504000001732,102.9783938999999,None,103.56232319999981,None,,,,,,,,,,,,,,,,,,,,,,,,,,,,,,,,,,,,,,,,8,001,2022_Sep_29_1642,Flanker,2021.2.0,239.957767432602,
neutral right,0,k,neutral.png,neutral.png,neutral.png,right_arrow.png,neutral.png,neutral.png,neutral.png,3,3,21,5,,,,,,,,,,,,,,,,,105.0639200999999,None,106.07360169999993,None,106.07360169999993,None,106.07360169999993,None,106.07360169999993,None,106.07360169999993,None,106.07360169999993,None,106.07360169999993,None,k,1,0.4479633000000831,106.07360169999993,None,106.54084069999999,None,,,,,,,,,,,,,,,,,,,,,,,,,,,,,,,,,,,,,,,,8,001,2022_Sep_29_1642,Flanker,2021.2.0,239.957767432602,
neutral left,0,a,neutral.png,neutral.png,neutral.png,left_arrow.png,neutral.png,neutral.png,neutral.png,3,4,22,4,,,,,,,,,,,,,,,,,108.04626429999962,None,109.05566769999996,None,109.05566769999996,None,109.05566769999996,None,109.05566769999996,None,109.05566769999996,None,109.05566769999996,None,109.05566769999996,None,a,1,0.43428480000011405,109.05566769999996,None,109.50661369999989,None,,,,,,,,,,,,,,,,,,,,,,,,,,,,,,,,,,,,,,,,8,001,2022_Sep_29_1642,Flanker,2021.2.0,239.957767432602,
incongruent-right.jpg,0,k,left_arrow.png,left_arrow.png,left_arrow.png,right_arrow.png,left_arrow.png,left_arrow.png,left_arrow.png,3,5,23,3,,,,,,,,,,,,,,,,,111.00805869999976,None,112.017112,None,112.017112,None,112.017112,None,112.017112,None,112.017112,None,112.017112,None,112.017112,None,k,1,0.8093148000002657,112.017112,None,112.84298099999978,None,,,,,,,,,,,,,,,,,,,,,,,,,,,,,,,,,,,,,,,,8,001,2022_Sep_29_1642,Flanker,2021.2.0,239.957767432602,
,,,,,,,,,,,,,,,,,,,,,,,,,,,,,,,,,,,,,,,,,,,,,,,,,,,,,114.36145409999972,None,116.3469399999999,None,space,4.6725814000001265,116.3469399999999,None,,,,,,,,,,,,,,,,,,,,,,,,,,,,,,,,8,001,2022_Sep_29_1642,Flanker,2021.2.0,239.957767432602,
neutral left,0,a,neutral.png,neutral.png,neutral.png,left_arrow.png,neutral.png,neutral.png,neutral.png,,,,,0,0,0,4,,,,,,,,,,,,,121.03924740000002,None,,,,,,,,,,,,,,,,,,,,,,,,,,,,,,122.04864980000002,None,122.04864980000002,None,122.04864980000002,None,122.04864980000002,None,122.04864980000002,None,122.04864980000002,None,122.04864980000002,None,a,1,0.515052900000228,122.04864980000002,None,,,,,,,,,,,,,8,001,2022_Sep_29_1642,Flanker,2021.2.0,239.957767432602,
neutral right,0,k,neutral.png,neutral.png,neutral.png,right_arrow.png,neutral.png,neutral.png,neutral.png,,,,,0,1,1,5,,,,,,,,,,,,,122.58245569999963,None,,,,,,,,,,,,,,,,,,,,,,,,,,,,,,123.59181850000004,None,123.59181850000004,None,123.59181850000004,None,123.59181850000004,None,123.59181850000004,None,123.59181850000004,None,123.59181850000004,None,k,1,0.46009230000026946,123.59181850000004,None,,,,,,,,,,,,,8,001,2022_Sep_29_1642,Flanker,2021.2.0,239.957767432602,
incongruent-left.jpg,0,a,right_arrow.png,right_arrow.png,right_arrow.png,left_arrow.png,right_arrow.png,right_arrow.png,right_arrow.png,,,,,0,2,2,1,,,,,,,,,,,,,124.06737639999983,None,,,,,,,,,,,,,,,,,,,,,,,,,,,,,,125.08094749999964,None,125.08094749999964,None,125.08094749999964,None,125.08094749999964,None,125.08094749999964,None,125.08094749999964,None,125.08094749999964,None,a,1,0.5311522000001787,125.08094749999964,None,,,,,,,,,,,,,8,001,2022_Sep_29_1642,Flanker,2021.2.0,239.957767432602,
neutral right,0,k,neutral.png,neutral.png,neutral.png,right_arrow.png,neutral.png,neutral.png,neutral.png,,,,,0,3,3,5,,,,,,,,,,,,,125.6233588,None,,,,,,,,,,,,,,,,,,,,,,,,,,,,,,126.64090679999981,None,126.64090679999981,None,126.64090679999981,None,126.64090679999981,None,126.64090679999981,None,126.64090679999981,None,126.64090679999981,None,k,1,0.42775369999981194,126.64090679999981,None,,,,,,,,,,,,,8,001,2022_Sep_29_1642,Flanker,2021.2.0,239.957767432602,
incongruent-left.jpg,0,a,right_arrow.png,right_arrow.png,right_arrow.png,left_arrow.png,right_arrow.png,right_arrow.png,right_arrow.png,,,,,0,4,4,1,,,,,,,,,,,,,127.08333649999986,None,,,,,,,,,,,,,,,,,,,,,,,,,,,,,,128.09270679999963,None,128.09270679999963,None,128.09270679999963,None,128.09270679999963,None,128.09270679999963,None,128.09270679999963,None,128.09270679999963,None,a,1,0.42401520000021264,128.09270679999963,None,,,,,,,,,,,,,8,001,2022_Sep_29_1642,Flanker,2021.2.0,239.957767432602,
neutral right,0,k,neutral.png,neutral.png,neutral.png,right_arrow.png,neutral.png,neutral.png,neutral.png,,,,,0,5,5,5,,,,,,,,,,,,,128.53487359999963,None,,,,,,,,,,,,,,,,,,,,,,,,,,,,,,129.5525757999999,None,129.5525757999999,None,129.5525757999999,None,129.5525757999999,None,129.5525757999999,None,129.5525757999999,None,129.5525757999999,None,k,1,0.42828049999980067,129.5525757999999,None,,,,,,,,,,,,,8,001,2022_Sep_29_1642,Flanker,2021.2.0,239.957767432602,
neutral right,0,k,neutral.png,neutral.png,neutral.png,right_arrow.png,neutral.png,neutral.png,neutral.png,,,,,1,0,6,5,,,,,,,,,,,,,129.99481849999984,None,,,,,,,,,,,,,,,,,,,,,,,,,,,,,,131.00402140000006,None,131.00402140000006,None,131.00402140000006,None,131.00402140000006,None,131.00402140000006,None,131.00402140000006,None,131.00402140000006,None,k,1,0.42509049999989656,131.00402140000006,None,,,,,,,,,,,,,8,001,2022_Sep_29_1642,Flanker,2021.2.0,239.957767432602,
incongruent-right.jpg,0,k,left_arrow.png,left_arrow.png,left_arrow.png,right_arrow.png,left_arrow.png,left_arrow.png,left_arrow.png,,,,,1,1,7,3,,,,,,,,,,,,,131.44635389999985,None,,,,,,,,,,,,,,,,,,,,,,,,,,,,,,132.45984069999986,None,132.45984069999986,None,132.45984069999986,None,132.45984069999986,None,132.45984069999986,None,132.45984069999986,None,132.45984069999986,None,k,1,0.5455533999997897,132.45984069999986,None,,,,,,,,,,,,,8,001,2022_Sep_29_1642,Flanker,2021.2.0,239.957767432602,
congruent-right.jpg,1,k,right_arrow.png,right_arrow.png,right_arrow.png,right_arrow.png,right_arrow.png,right_arrow.png,right_arrow.png,,,,,1,2,8,2,,,,,,,,,,,,,133.01864780000005,None,,,,,,,,,,,,,,,,,,,,,,,,,,,,,,134.02805369999987,None,134.02805369999987,None,134.02805369999987,None,134.02805369999987,None,134.02805369999987,None,134.02805369999987,None,134.02805369999987,None,k,1,0.45752840000022843,134.02805369999987,None,,,,,,,,,,,,,8,001,2022_Sep_29_1642,Flanker,2021.2.0,239.957767432602,
neutral right,0,k,neutral.png,neutral.png,neutral.png,right_arrow.png,neutral.png,neutral.png,neutral.png,,,,,1,3,9,5,,,,,,,,,,,,,134.50369009999986,None,,,,,,,,,,,,,,,,,,,,,,,,,,,,,,135.51699489999964,None,135.51699489999964,None,135.51699489999964,None,135.51699489999964,None,135.51699489999964,None,135.51699489999964,None,135.51699489999964,None,k,1,0.5285221999997702,135.51699489999964,None,,,,,,,,,,,,,8,001,2022_Sep_29_1642,Flanker,2021.2.0,239.957767432602,
neutral left,0,a,neutral.png,neutral.png,neutral.png,left_arrow.png,neutral.png,neutral.png,neutral.png,,,,,1,4,10,4,,,,,,,,,,,,,136.05922209999972,None,,,,,,,,,,,,,,,,,,,,,,,,,,,,,,137.06890769999973,None,137.06890769999973,None,137.06890769999973,None,137.06890769999973,None,137.06890769999973,None,137.06890769999973,None,137.06890769999973,None,a,1,0.3848103999998784,137.06890769999973,None,,,,,,,,,,,,,8,001,2022_Sep_29_1642,Flanker,2021.2.0,239.957767432602,
congruent-left.jpg,1,a,left_arrow.png,left_arrow.png,left_arrow.png,left_arrow.png,left_arrow.png,left_arrow.png,left_arrow.png,,,,,1,5,11,0,,,,,,,,,,,,,137.46904989999985,None,,,,,,,,,,,,,,,,,,,,,,,,,,,,,,138.48261329999968,None,138.48261329999968,None,138.48261329999968,None,138.48261329999968,None,138.48261329999968,None,138.48261329999968,None,138.48261329999968,None,a,1,0.4112867999997434,138.48261329999968,None,,,,,,,,,,,,,8,001,2022_Sep_29_1642,Flanker,2021.2.0,239.957767432602,
congruent-left.jpg,1,a,left_arrow.png,left_arrow.png,left_arrow.png,left_arrow.png,left_arrow.png,left_arrow.png,left_arrow.png,,,,,2,0,12,0,,,,,,,,,,,,,138.90806669999984,None,,,,,,,,,,,,,,,,,,,,,,,,,,,,,,139.9174595999998,None,139.9174595999998,None,139.9174595999998,None,139.9174595999998,None,139.9174595999998,None,139.9174595999998,None,139.9174595999998,None,a,1,0.3926308000000063,139.9174595999998,None,,,,,,,,,,,,,8,001,2022_Sep_29_1642,Flanker,2021.2.0,239.957767432602,
congruent-left.jpg,1,a,left_arrow.png,left_arrow.png,left_arrow.png,left_arrow.png,left_arrow.png,left_arrow.png,left_arrow.png,,,,,2,1,13,0,,,,,,,,,,,,,140.32622889999993,None,,,,,,,,,,,,,,,,,,,,,,,,,,,,,,141.33982399999968,None,141.33982399999968,None,141.33982399999968,None,141.33982399999968,None,141.33982399999968,None,141.33982399999968,None,141.33982399999968,None,a,1,0.3704635000003691,141.33982399999968,None,,,,,,,,,,,,,8,001,2022_Sep_29_1642,Flanker,2021.2.0,239.957767432602,
congruent-right.jpg,1,k,right_arrow.png,right_arrow.png,right_arrow.png,right_arrow.png,right_arrow.png,right_arrow.png,right_arrow.png,,,,,2,2,14,2,,,,,,,,,,,,,141.72353559999965,None,,,,,,,,,,,,,,,,,,,,,,,,,,,,,,142.73295449999978,None,142.73295449999978,None,142.73295449999978,None,142.73295449999978,None,142.73295449999978,None,142.73295449999978,None,142.73295449999978,None,k,1,0.401510899999721,142.73295449999978,None,,,,,,,,,,,,,8,001,2022_Sep_29_1642,Flanker,2021.2.0,239.957767432602,
neutral left,0,a,neutral.png,neutral.png,neutral.png,left_arrow.png,neutral.png,neutral.png,neutral.png,,,,,2,3,15,4,,,,,,,,,,,,,143.15013259999978,None,,,,,,,,,,,,,,,,,,,,,,,,,,,,,,144.1678164,None,144.1678164,None,144.1678164,None,144.1678164,None,144.1678164,None,144.1678164,None,144.1678164,None,a,1,0.48686259999976755,144.1678164,None,,,,,,,,,,,,,8,001,2022_Sep_29_1642,Flanker,2021.2.0,239.957767432602,
neutral left,0,a,neutral.png,neutral.png,neutral.png,left_arrow.png,neutral.png,neutral.png,neutral.png,,,,,2,4,16,4,,,,,,,,,,,,,144.66836299999977,None,,,,,,,,,,,,,,,,,,,,,,,,,,,,,,145.6778151999997,None,145.6778151999997,None,145.6778151999997,None,145.6778151999997,None,145.6778151999997,None,145.6778151999997,None,145.6778151999997,None,a,1,0.3850444000004245,145.6778151999997,None,,,,,,,,,,,,,8,001,2022_Sep_29_1642,Flanker,2021.2.0,239.957767432602,
incongruent-right.jpg,0,k,left_arrow.png,left_arrow.png,left_arrow.png,right_arrow.png,left_arrow.png,left_arrow.png,left_arrow.png,,,,,2,5,17,3,,,,,,,,,,,,,146.07838999999967,None,,,,,,,,,,,,,,,,,,,,,,,,,,,,,,147.09172109999963,None,147.09172109999963,None,147.09172109999963,None,147.09172109999963,None,147.09172109999963,None,147.09172109999963,None,147.09172109999963,None,k,1,0.4833958999997776,147.09172109999963,None,,,,,,,,,,,,,8,001,2022_Sep_29_1642,Flanker,2021.2.0,239.957767432602,
incongruent-right.jpg,0,k,left_arrow.png,left_arrow.png,left_arrow.png,right_arrow.png,left_arrow.png,left_arrow.png,left_arrow.png,,,,,3,0,18,3,,,,,,,,,,,,,147.58816290000004,None,,,,,,,,,,,,,,,,,,,,,,,,,,,,,,148.59748459999992,None,148.59748459999992,None,148.59748459999992,None,148.59748459999992,None,148.59748459999992,None,148.59748459999992,None,148.59748459999992,None,k,1,0.4499276999999893,148.59748459999992,None,,,,,,,,,,,,,8,001,2022_Sep_29_1642,Flanker,2021.2.0,239.957767432602,
congruent-right.jpg,1,k,right_arrow.png,right_arrow.png,right_arrow.png,right_arrow.png,right_arrow.png,right_arrow.png,right_arrow.png,,,,,3,1,19,2,,,,,,,,,,,,,149.0648443,None,,,,,,,,,,,,,,,,,,,,,,,,,,,,,,150.07821999999987,None,150.07821999999987,None,150.07821999999987,None,150.07821999999987,None,150.07821999999987,None,150.07821999999987,None,150.07821999999987,None,k,1,0.4892243999997845,150.07821999999987,None,,,,,,,,,,,,,8,001,2022_Sep_29_1642,Flanker,2021.2.0,239.957767432602,
incongruent-left.jpg,0,a,right_arrow.png,right_arrow.png,right_arrow.png,left_arrow.png,right_arrow.png,right_arrow.png,right_arrow.png,,,,,3,2,20,1,,,,,,,,,,,,,150.5787452999998,None,,,,,,,,,,,,,,,,,,,,,,,,,,,,,,151.58835699999963,None,151.58835699999963,None,151.58835699999963,None,151.58835699999963,None,151.58835699999963,None,151.58835699999963,None,151.58835699999963,None,a,1,0.4272769999997763,151.58835699999963,None,,,,,,,,,,,,,8,001,2022_Sep_29_1642,Flanker,2021.2.0,239.957767432602,
neutral left,0,a,neutral.png,neutral.png,neutral.png,left_arrow.png,neutral.png,neutral.png,neutral.png,,,,,3,3,21,4,,,,,,,,,,,,,152.03044679999994,None,,,,,,,,,,,,,,,,,,,,,,,,,,,,,,153.04385139999977,None,153.04385139999977,None,153.04385139999977,None,153.04385139999977,None,153.04385139999977,None,153.04385139999977,None,153.04385139999977,None,a,1,0.35595069999999396,153.04385139999977,None,,,,,,,,,,,,,8,001,2022_Sep_29_1642,Flanker,2021.2.0,239.957767432602,
incongruent-left.jpg,0,a,right_arrow.png,right_arrow.png,right_arrow.png,left_arrow.png,right_arrow.png,right_arrow.png,right_arrow.png,,,,,3,4,22,1,,,,,,,,,,,,,153.4109102999996,None,,,,,,,,,,,,,,,,,,,,,,,,,,,,,,154.42031829999996,None,154.42031829999996,None,154.42031829999996,None,154.42031829999996,None,154.42031829999996,None,154.42031829999996,None,154.42031829999996,None,a,1,0.4357278000002225,154.42031829999996,None,,,,,,,,,,,,,8,001,2022_Sep_29_1642,Flanker,2021.2.0,239.957767432602,
incongruent-left.jpg,0,a,right_arrow.png,right_arrow.png,right_arrow.png,left_arrow.png,right_arrow.png,right_arrow.png,right_arrow.png,,,,,3,5,23,1,,,,,,,,,,,,,154.87078569999994,None,,,,,,,,,,,,,,,,,,,,,,,,,,,,,,155.88034089999974,None,155.88034089999974,None,155.88034089999974,None,155.88034089999974,None,155.88034089999974,None,155.88034089999974,None,155.88034089999974,None,a,1,0.3918821000002026,155.88034089999974,None,,,,,,,,,,,,,8,001,2022_Sep_29_1642,Flanker,2021.2.0,239.957767432602,
congruent-left.jpg,1,a,left_arrow.png,left_arrow.png,left_arrow.png,left_arrow.png,left_arrow.png,left_arrow.png,left_arrow.png,,,,,4,0,24,0,,,,,,,,,,,,,156.28893309999967,None,,,,,,,,,,,,,,,,,,,,,,,,,,,,,,157.3026921999999,None,157.3026921999999,None,157.3026921999999,None,157.3026921999999,None,157.3026921999999,None,157.3026921999999,None,157.3026921999999,None,a,1,0.3857062000001861,157.3026921999999,None,,,,,,,,,,,,,8,001,2022_Sep_29_1642,Flanker,2021.2.0,239.957767432602,
congruent-left.jpg,1,a,left_arrow.png,left_arrow.png,left_arrow.png,left_arrow.png,left_arrow.png,left_arrow.png,left_arrow.png,,,,,4,1,25,0,,,,,,,,,,,,,157.70296159999998,None,,,,,,,,,,,,,,,,,,,,,,,,,,,,,,158.72070699999995,None,158.72070699999995,None,158.72070699999995,None,158.72070699999995,None,158.72070699999995,None,158.72070699999995,None,158.72070699999995,None,a,1,0.33586419999983264,158.72070699999995,None,,,,,,,,,,,,,8,001,2022_Sep_29_1642,Flanker,2021.2.0,239.957767432602,
neutral left,0,a,neutral.png,neutral.png,neutral.png,left_arrow.png,neutral.png,neutral.png,neutral.png,,,,,4,2,26,4,,,,,,,,,,,,,159.07106739999972,None,,,,,,,,,,,,,,,,,,,,,,,,,,,,,,160.08902399999988,None,160.08902399999988,None,160.08902399999988,None,160.08902399999988,None,160.08902399999988,None,160.08902399999988,None,160.08902399999988,None,a,1,0.3837705000000824,160.08902399999988,None,,,,,,,,,,,,,8,001,2022_Sep_29_1642,Flanker,2021.2.0,239.957767432602,
neutral right,0,k,neutral.png,neutral.png,neutral.png,right_arrow.png,neutral.png,neutral.png,neutral.png,,,,,4,3,27,5,,,,,,,,,,,,,160.4892305999997,None,,,,,,,,,,,,,,,,,,,,,,,,,,,,,,161.4986482999998,None,161.4986482999998,None,161.4986482999998,None,161.4986482999998,None,161.4986482999998,None,161.4986482999998,None,161.4986482999998,None,k,1,0.36632049999980154,161.4986482999998,None,,,,,,,,,,,,,8,001,2022_Sep_29_1642,Flanker,2021.2.0,239.957767432602,
neutral right,0,k,neutral.png,neutral.png,neutral.png,right_arrow.png,neutral.png,neutral.png,neutral.png,,,,,4,4,28,5,,,,,,,,,,,,,161.8823613999998,None,,,,,,,,,,,,,,,,,,,,,,,,,,,,,,162.89190989999997,None,162.89190989999997,None,162.89190989999997,None,162.89190989999997,None,162.89190989999997,None,162.89190989999997,None,162.89190989999997,None,k,1,0.33329490000005535,162.89190989999997,None,,,,,,,,,,,,,8,001,2022_Sep_29_1642,Flanker,2021.2.0,239.957767432602,
congruent-right.jpg,1,k,right_arrow.png,right_arrow.png,right_arrow.png,right_arrow.png,right_arrow.png,right_arrow.png,right_arrow.png,,,,,4,5,29,2,,,,,,,,,,,,,163.24213559999998,None,,,,,,,,,,,,,,,,,,,,,,,,,,,,,,164.2558557999996,None,164.2558557999996,None,164.2558557999996,None,164.2558557999996,None,164.2558557999996,None,164.2558557999996,None,164.2558557999996,None,k,1,0.4174848999996357,164.2558557999996,None,,,,,,,,,,,,,8,001,2022_Sep_29_1642,Flanker,2021.2.0,239.957767432602,
neutral right,0,k,neutral.png,neutral.png,neutral.png,right_arrow.png,neutral.png,neutral.png,neutral.png,,,,,5,0,30,5,,,,,,,,,,,,,164.68958380000004,None,,,,,,,,,,,,,,,,,,,,,,,,,,,,,,165.70330109999986,None,165.70330109999986,None,165.70330109999986,None,165.70330109999986,None,165.70330109999986,None,165.70330109999986,None,165.70330109999986,None,k,1,0.37821260000009715,165.70330109999986,None,,,,,,,,,,,,,8,001,2022_Sep_29_1642,Flanker,2021.2.0,239.957767432602,
congruent-left.jpg,1,a,left_arrow.png,left_arrow.png,left_arrow.png,left_arrow.png,left_arrow.png,left_arrow.png,left_arrow.png,,,,,5,1,31,0,,,,,,,,,,,,,166.0952116999997,None,,,,,,,,,,,,,,,,,,,,,,,,,,,,,,167.1089806,None,167.1089806,None,167.1089806,None,167.1089806,None,167.1089806,None,167.1089806,None,167.1089806,None,a,1,0.40473140000040075,167.1089806,None,,,,,,,,,,,,,8,001,2022_Sep_29_1642,Flanker,2021.2.0,239.957767432602,
congruent-right.jpg,1,k,right_arrow.png,right_arrow.png,right_arrow.png,right_arrow.png,right_arrow.png,right_arrow.png,right_arrow.png,,,,,5,2,32,2,,,,,,,,,,,,,167.52592219999997,None,,,,,,,,,,,,,,,,,,,,,,,,,,,,,,168.54372160000003,None,168.54372160000003,None,168.54372160000003,None,168.54372160000003,None,168.54372160000003,None,168.54372160000003,None,168.54372160000003,None,k,1,0.4181791000000885,168.54372160000003,None,,,,,,,,,,,,,8,001,2022_Sep_29_1642,Flanker,2021.2.0,239.957767432602,
incongruent-right.jpg,0,k,left_arrow.png,left_arrow.png,left_arrow.png,right_arrow.png,left_arrow.png,left_arrow.png,left_arrow.png,,,,,5,3,33,3,,,,,,,,,,,,,168.97752779999973,None,,,,,,,,,,,,,,,,,,,,,,,,,,,,,,169.98678089999976,None,169.98678089999976,None,169.98678089999976,None,169.98678089999976,None,169.98678089999976,None,169.98678089999976,None,169.98678089999976,None,k,1,0.5513533000003008,169.98678089999976,None,,,,,,,,,,,,,8,001,2022_Sep_29_1642,Flanker,2021.2.0,239.957767432602,
incongruent-left.jpg,0,a,right_arrow.png,right_arrow.png,right_arrow.png,left_arrow.png,right_arrow.png,right_arrow.png,right_arrow.png,,,,,5,4,34,1,,,,,,,,,,,,,170.55405029999974,None,,,,,,,,,,,,,,,,,,,,,,,,,,,,,,171.56775759999982,None,171.56775759999982,None,171.56775759999982,None,171.56775759999982,None,171.56775759999982,None,171.56775759999982,None,171.56775759999982,None,a,1,0.4585237999999663,171.56775759999982,None,,,,,,,,,,,,,8,001,2022_Sep_29_1642,Flanker,2021.2.0,239.957767432602,
incongruent-right.jpg,0,k,left_arrow.png,left_arrow.png,left_arrow.png,right_arrow.png,left_arrow.png,left_arrow.png,left_arrow.png,,,,,5,5,35,3,,,,,,,,,,,,,172.0430739999997,None,,,,,,,,,,,,,,,,,,,,,,,,,,,,,,173.05265139999983,None,173.05265139999983,None,173.05265139999983,None,173.05265139999983,None,173.05265139999983,None,173.05265139999983,None,173.05265139999983,None,a,0,0.44581239999979516,173.05265139999983,None,,,,,,,,,,,,,8,001,2022_Sep_29_1642,Flanker,2021.2.0,239.957767432602,
congruent-left.jpg,1,a,left_arrow.png,left_arrow.png,left_arrow.png,left_arrow.png,left_arrow.png,left_arrow.png,left_arrow.png,,,,,6,0,36,0,,,,,,,,,,,,,173.51160339999979,None,,,,,,,,,,,,,,,,,,,,,,,,,,,,,,174.52101689999972,None,174.52101689999972,None,174.52101689999972,None,174.52101689999972,None,174.52101689999972,None,174.52101689999972,None,174.52101689999972,None,a,1,0.40200620000041454,174.52101689999972,None,,,,,,,,,,,,,8,001,2022_Sep_29_1642,Flanker,2021.2.0,239.957767432602,
incongruent-left.jpg,0,a,right_arrow.png,right_arrow.png,right_arrow.png,left_arrow.png,right_arrow.png,right_arrow.png,right_arrow.png,,,,,6,1,37,1,,,,,,,,,,,,,174.93811319999986,None,,,,,,,,,,,,,,,,,,,,,,,,,,,,,,175.9473825,None,175.9473825,None,175.9473825,None,175.9473825,None,175.9473825,None,175.9473825,None,175.9473825,None,a,1,0.4234912000001714,175.9473825,None,,,,,,,,,,,,,8,001,2022_Sep_29_1642,Flanker,2021.2.0,239.957767432602,
incongruent-left.jpg,0,a,right_arrow.png,right_arrow.png,right_arrow.png,left_arrow.png,right_arrow.png,right_arrow.png,right_arrow.png,,,,,6,2,38,1,,,,,,,,,,,,,176.38968929999965,None,,,,,,,,,,,,,,,,,,,,,,,,,,,,,,177.40312799999992,None,177.40312799999992,None,177.40312799999992,None,177.40312799999992,None,177.40312799999992,None,177.40312799999992,None,177.40312799999992,None,a,1,0.40818709999985003,177.40312799999992,None,,,,,,,,,,,,,8,001,2022_Sep_29_1642,Flanker,2021.2.0,239.957767432602,
incongruent-right.jpg,0,k,left_arrow.png,left_arrow.png,left_arrow.png,right_arrow.png,left_arrow.png,left_arrow.png,left_arrow.png,,,,,6,3,39,3,,,,,,,,,,,,,177.8287507,None,,,,,,,,,,,,,,,,,,,,,,,,,,,,,,178.8421988,None,178.8421988,None,178.8421988,None,178.8421988,None,178.8421988,None,178.8421988,None,178.8421988,None,k,1,0.5051072000001113,178.8421988,None,,,,,,,,,,,,,8,001,2022_Sep_29_1642,Flanker,2021.2.0,239.957767432602,
congruent-right.jpg,1,k,right_arrow.png,right_arrow.png,right_arrow.png,right_arrow.png,right_arrow.png,right_arrow.png,right_arrow.png,,,,,6,4,40,2,,,,,,,,,,,,,179.35945539999966,None,,,,,,,,,,,,,,,,,,,,,,,,,,,,,,180.37287779999997,None,180.37287779999997,None,180.37287779999997,None,180.37287779999997,None,180.37287779999997,None,180.37287779999997,None,180.37287779999997,None,k,1,0.47874810000030266,180.37287779999997,None,,,,,,,,,,,,,8,001,2022_Sep_29_1642,Flanker,2021.2.0,239.957767432602,
neutral left,0,a,neutral.png,neutral.png,neutral.png,left_arrow.png,neutral.png,neutral.png,neutral.png,,,,,6,5,41,4,,,,,,,,,,,,,180.86508639999965,None,,,,,,,,,,,,,,,,,,,,,,,,,,,,,,181.87475499999982,None,181.87475499999982,None,181.87475499999982,None,181.87475499999982,None,181.87475499999982,None,181.87475499999982,None,181.87475499999982,None,a,1,0.44905270000026576,181.87475499999982,None,,,,,,,,,,,,,8,001,2022_Sep_29_1642,Flanker,2021.2.0,239.957767432602,
congruent-right.jpg,1,k,right_arrow.png,right_arrow.png,right_arrow.png,right_arrow.png,right_arrow.png,right_arrow.png,right_arrow.png,,,,,7,0,42,2,,,,,,,,,,,,,182.34175949999963,None,,,,,,,,,,,,,,,,,,,,,,,,,,,,,,183.3552307,None,183.3552307,None,183.3552307,None,183.3552307,None,183.3552307,None,183.3552307,None,183.3552307,None,k,1,0.4407806999997774,183.3552307,None,,,,,,,,,,,,,8,001,2022_Sep_29_1642,Flanker,2021.2.0,239.957767432602,
incongruent-right.jpg,0,k,left_arrow.png,left_arrow.png,left_arrow.png,right_arrow.png,left_arrow.png,left_arrow.png,left_arrow.png,,,,,7,1,43,3,,,,,,,,,,,,,183.81418729999996,None,,,,,,,,,,,,,,,,,,,,,,,,,,,,,,184.82344369999964,None,184.82344369999964,None,184.82344369999964,None,184.82344369999964,None,184.82344369999964,None,184.82344369999964,None,184.82344369999964,None,k,1,0.44461539999974775,184.82344369999964,None,,,,,,,,,,,,,8,001,2022_Sep_29_1642,Flanker,2021.2.0,239.957767432602,
neutral left,0,a,neutral.png,neutral.png,neutral.png,left_arrow.png,neutral.png,neutral.png,neutral.png,,,,,7,2,44,4,,,,,,,,,,,,,185.28216780000002,None,,,,,,,,,,,,,,,,,,,,,,,,,,,,,,186.29180619999988,None,186.29180619999988,None,186.29180619999988,None,186.29180619999988,None,186.29180619999988,None,186.29180619999988,None,186.29180619999988,None,a,1,0.40843119999999544,186.29180619999988,None,,,,,,,,,,,,,8,001,2022_Sep_29_1642,Flanker,2021.2.0,239.957767432602,
incongruent-right.jpg,0,k,left_arrow.png,left_arrow.png,left_arrow.png,right_arrow.png,left_arrow.png,left_arrow.png,left_arrow.png,,,,,7,3,45,3,,,,,,,,,,,,,186.71694979999984,None,,,,,,,,,,,,,,,,,,,,,,,,,,,,,,187.73081639999964,None,187.73081639999964,None,187.73081639999964,None,187.73081639999964,None,187.73081639999964,None,187.73081639999964,None,187.73081639999964,None,k,1,0.5376062999998794,187.73081639999964,None,,,,,,,,,,,,,8,001,2022_Sep_29_1642,Flanker,2021.2.0,239.957767432602,
congruent-left.jpg,1,a,left_arrow.png,left_arrow.png,left_arrow.png,left_arrow.png,left_arrow.png,left_arrow.png,left_arrow.png,,,,,7,4,46,0,,,,,,,,,,,,,188.28118229999973,None,,,,,,,,,,,,,,,,,,,,,,,,,,,,,,189.29049889999987,None,189.29049889999987,None,189.29049889999987,None,189.29049889999987,None,189.29049889999987,None,189.29049889999987,None,189.29049889999987,None,a,1,0.4421480999999403,189.29049889999987,None,,,,,,,,,,,,,8,001,2022_Sep_29_1642,Flanker,2021.2.0,239.957767432602,
congruent-right.jpg,1,k,right_arrow.png,right_arrow.png,right_arrow.png,right_arrow.png,right_arrow.png,right_arrow.png,right_arrow.png,,,,,7,5,47,2,,,,,,,,,,,,,189.74958809999998,None,,,,,,,,,,,,,,,,,,,,,,,,,,,,,,190.76331359999995,None,190.76331359999995,None,190.76331359999995,None,190.76331359999995,None,190.76331359999995,None,190.76331359999995,None,190.76331359999995,None,k,1,0.40948279999975057,190.76331359999995,None,,,,,,,,,,,,,8,001,2022_Sep_29_1642,Flanker,2021.2.0,239.957767432602,
,,,,,,,,,,,,,,,,,,,,,,,,,,,,,,,,,,,,,,,,,,,,,,,,,,,,,,,,,,,,,,,,,,,,,,,,,,,,,,,,191.20066389999965,None,space,20.79932409999992,191.20066389999965,None,,,,,,,8,001,2022_Sep_29_1642,Flanker,2021.2.0,239.957767432602,
incongruent-right.jpg,0,k,left_arrow.png,left_arrow.png,left_arrow.png,right_arrow.png,left_arrow.png,left_arrow.png,left_arrow.png,,,,,,,,,0,0,0,3,,,,,,,,,212.02325419999988,None,,,,,,,,,,,,,,,,,,,,,,,,,,,,,,213.0283872,None,213.0283872,None,213.0283872,None,213.0283872,None,213.0283872,None,213.0283872,None,213.0283872,None,k,1,0.4676730999999563,213.0283872,None,,,,,,,,,,,,,8,001,2022_Sep_29_1642,Flanker,2021.2.0,239.957767432602,
incongruent-left.jpg,0,a,right_arrow.png,right_arrow.png,right_arrow.png,left_arrow.png,right_arrow.png,right_arrow.png,right_arrow.png,,,,,,,,,0,1,1,1,,,,,,,,,213.51215289999982,None,,,,,,,,,,,,,,,,,,,,,,,,,,,,,,214.5299098999999,None,214.5299098999999,None,214.5299098999999,None,214.5299098999999,None,214.5299098999999,None,214.5299098999999,None,214.5299098999999,None,a,1,0.47023380000018733,214.5299098999999,None,,,,,,,,,,,,,8,001,2022_Sep_29_1642,Flanker,2021.2.0,239.957767432602,
neutral left,0,a,neutral.png,neutral.png,neutral.png,left_arrow.png,neutral.png,neutral.png,neutral.png,,,,,,,,,0,2,2,4,,,,,,,,,215.01383569999962,None,,,,,,,,,,,,,,,,,,,,,,,,,,,,,,216.02324529999987,None,216.02324529999987,None,216.02324529999987,None,216.02324529999987,None,216.02324529999987,None,216.02324529999987,None,216.02324529999987,None,a,1,0.3769430000002103,216.02324529999987,None,,,,,,,,,,,,,8,001,2022_Sep_29_1642,Flanker,2021.2.0,239.957767432602,
congruent-right.jpg,1,k,right_arrow.png,right_arrow.png,right_arrow.png,right_arrow.png,right_arrow.png,right_arrow.png,right_arrow.png,,,,,,,,,0,3,3,2,,,,,,,,,216.4150209999998,None,,,,,,,,,,,,,,,,,,,,,,,,,,,,,,217.4288787999999,None,217.4288787999999,None,217.4288787999999,None,217.4288787999999,None,217.4288787999999,None,217.4288787999999,None,217.4288787999999,None,k,1,0.3794840999998996,217.4288787999999,None,,,,,,,,,,,,,8,001,2022_Sep_29_1642,Flanker,2021.2.0,239.957767432602,
congruent-left.jpg,1,a,left_arrow.png,left_arrow.png,left_arrow.png,left_arrow.png,left_arrow.png,left_arrow.png,left_arrow.png,,,,,,,,,0,4,4,0,,,,,,,,,217.82068679999975,None,,,,,,,,,,,,,,,,,,,,,,,,,,,,,,218.8302867999996,None,218.8302867999996,None,218.8302867999996,None,218.8302867999996,None,218.8302867999996,None,218.8302867999996,None,218.8302867999996,None,a,1,0.4182614999999714,218.8302867999996,None,,,,,,,,,,,,,8,001,2022_Sep_29_1642,Flanker,2021.2.0,239.957767432602,
neutral right,0,k,neutral.png,neutral.png,neutral.png,right_arrow.png,neutral.png,neutral.png,neutral.png,,,,,,,,,0,5,5,5,,,,,,,,,219.26386759999968,None,,,,,,,,,,,,,,,,,,,,,,,,,,,,,,220.2735402999997,None,220.2735402999997,None,220.2735402999997,None,220.2735402999997,None,220.2735402999997,None,220.2735402999997,None,220.2735402999997,None,k,1,0.5112426000000596,220.2735402999997,None,,,,,,,,,,,,,8,001,2022_Sep_29_1642,Flanker,2021.2.0,239.957767432602,
congruent-right.jpg,1,k,right_arrow.png,right_arrow.png,right_arrow.png,right_arrow.png,right_arrow.png,right_arrow.png,right_arrow.png,,,,,,,,,1,0,6,2,,,,,,,,,220.79912669999976,None,,,,,,,,,,,,,,,,,,,,,,,,,,,,,,221.80830789999982,None,221.80830789999982,None,221.80830789999982,None,221.80830789999982,None,221.80830789999982,None,221.80830789999982,None,221.80830789999982,None,k,1,0.4086523999999372,221.80830789999982,None,,,,,,,,,,,,,8,001,2022_Sep_29_1642,Flanker,2021.2.0,239.957767432602,
incongruent-left.jpg,0,a,right_arrow.png,right_arrow.png,right_arrow.png,left_arrow.png,right_arrow.png,right_arrow.png,right_arrow.png,,,,,,,,,1,1,7,1,,,,,,,,,222.2336938999997,None,,,,,,,,,,,,,,,,,,,,,,,,,,,,,,223.2476274999999,None,223.2476274999999,None,223.2476274999999,None,223.2476274999999,None,223.2476274999999,None,223.2476274999999,None,223.2476274999999,None,a,1,0.44991479999998774,223.2476274999999,None,,,,,,,,,,,,,8,001,2022_Sep_29_1642,Flanker,2021.2.0,239.957767432602,
incongruent-right.jpg,0,k,left_arrow.png,left_arrow.png,left_arrow.png,right_arrow.png,left_arrow.png,left_arrow.png,left_arrow.png,,,,,,,,,1,2,8,3,,,,,,,,,223.7144387999997,None,,,,,,,,,,,,,,,,,,,,,,,,,,,,,,224.72408210000003,None,224.72408210000003,None,224.72408210000003,None,224.72408210000003,None,224.72408210000003,None,224.72408210000003,None,224.72408210000003,None,k,1,0.4452694999999949,224.72408210000003,None,,,,,,,,,,,,,8,001,2022_Sep_29_1642,Flanker,2021.2.0,239.957767432602,
congruent-left.jpg,1,a,left_arrow.png,left_arrow.png,left_arrow.png,left_arrow.png,left_arrow.png,left_arrow.png,left_arrow.png,,,,,,,,,1,3,9,0,,,,,,,,,225.1826385999998,None,,,,,,,,,,,,,,,,,,,,,,,,,,,,,,226.19232859999966,None,226.19232859999966,None,226.19232859999966,None,226.19232859999966,None,226.19232859999966,None,226.19232859999966,None,226.19232859999966,None,a,1,0.4812093000000459,226.19232859999966,None,,,,,,,,,,,,,8,001,2022_Sep_29_1642,Flanker,2021.2.0,239.957767432602,
congruent-left.jpg,1,a,left_arrow.png,left_arrow.png,left_arrow.png,left_arrow.png,left_arrow.png,left_arrow.png,left_arrow.png,,,,,,,,,1,4,10,0,,,,,,,,,226.68422439999995,None,,,,,,,,,,,,,,,,,,,,,,,,,,,,,,227.6936437999998,None,227.6936437999998,None,227.6936437999998,None,227.6936437999998,None,227.6936437999998,None,227.6936437999998,None,227.6936437999998,None,a,1,0.34806849999995393,227.6936437999998,None,,,,,,,,,,,,,8,001,2022_Sep_29_1642,Flanker,2021.2.0,239.957767432602,
incongruent-right.jpg,0,k,left_arrow.png,left_arrow.png,left_arrow.png,right_arrow.png,left_arrow.png,left_arrow.png,left_arrow.png,,,,,,,,,1,5,11,3,,,,,,,,,228.06094110000004,None,,,,,,,,,,,,,,,,,,,,,,,,,,,,,,229.07013909999978,None,229.07013909999978,None,229.07013909999978,None,229.07013909999978,None,229.07013909999978,None,229.07013909999978,None,229.07013909999978,None,k,1,0.5001772999999048,229.07013909999978,None,,,,,,,,,,,,,8,001,2022_Sep_29_1642,Flanker,2021.2.0,239.957767432602,
neutral left,0,a,neutral.png,neutral.png,neutral.png,left_arrow.png,neutral.png,neutral.png,neutral.png,,,,,,,,,2,0,12,4,,,,,,,,,229.5876933999998,None,,,,,,,,,,,,,,,,,,,,,,,,,,,,,,230.59691109999994,None,230.59691109999994,None,230.59691109999994,None,230.59691109999994,None,230.59691109999994,None,230.59691109999994,None,230.59691109999994,None,a,1,0.3574954999999136,230.59691109999994,None,,,,,,,,,,,,,8,001,2022_Sep_29_1642,Flanker,2021.2.0,239.957767432602,
congruent-right.jpg,1,k,right_arrow.png,right_arrow.png,right_arrow.png,right_arrow.png,right_arrow.png,right_arrow.png,right_arrow.png,,,,,,,,,2,1,13,2,,,,,,,,,230.9722327999998,None,,,,,,,,,,,,,,,,,,,,,,,,,,,,,,231.9815319999998,None,231.9815319999998,None,231.9815319999998,None,231.9815319999998,None,231.9815319999998,None,231.9815319999998,None,231.9815319999998,None,k,1,0.44479480000018157,231.9815319999998,None,,,,,,,,,,,,,8,001,2022_Sep_29_1642,Flanker,2021.2.0,239.957767432602,
neutral right,0,k,neutral.png,neutral.png,neutral.png,right_arrow.png,neutral.png,neutral.png,neutral.png,,,,,,,,,2,2,14,5,,,,,,,,,232.4403159999997,None,,,,,,,,,,,,,,,,,,,,,,,,,,,,,,233.45387379999966,None,233.45387379999966,None,233.45387379999966,None,233.45387379999966,None,233.45387379999966,None,233.45387379999966,None,233.45387379999966,None,k,1,0.42063150000012683,233.45387379999966,None,,,,,,,,,,,,,8,001,2022_Sep_29_1642,Flanker,2021.2.0,239.957767432602,
incongruent-left.jpg,0,a,right_arrow.png,right_arrow.png,right_arrow.png,left_arrow.png,right_arrow.png,right_arrow.png,right_arrow.png,,,,,,,,,2,3,15,1,,,,,,,,,233.88775749999968,None,,,,,,,,,,,,,,,,,,,,,,,,,,,,,,234.8971606,None,234.8971606,None,234.8971606,None,234.8971606,None,234.8971606,None,234.8971606,None,234.8971606,None,a,1,0.44985059999999066,234.8971606,None,,,,,,,,,,,,,8,001,2022_Sep_29_1642,Flanker,2021.2.0,239.957767432602,
incongruent-right.jpg,0,k,left_arrow.png,left_arrow.png,left_arrow.png,right_arrow.png,left_arrow.png,left_arrow.png,left_arrow.png,,,,,,,,,2,4,16,3,,,,,,,,,235.3645345,None,,,,,,,,,,,,,,,,,,,,,,,,,,,,,,236.37788599999976,None,236.37788599999976,None,236.37788599999976,None,236.37788599999976,None,236.37788599999976,None,236.37788599999976,None,236.37788599999976,None,k,1,0.46500609999975495,236.37788599999976,None,,,,,,,,,,,,,8,001,2022_Sep_29_1642,Flanker,2021.2.0,239.957767432602,
incongruent-right.jpg,0,k,left_arrow.png,left_arrow.png,left_arrow.png,right_arrow.png,left_arrow.png,left_arrow.png,left_arrow.png,,,,,,,,,2,5,17,3,,,,,,,,,236.86165519999986,None,,,,,,,,,,,,,,,,,,,,,,,,,,,,,,237.87549969999964,None,237.87549969999964,None,237.87549969999964,None,237.87549969999964,None,237.87549969999964,None,237.87549969999964,None,237.87549969999964,None,k,1,0.4795825999999579,237.87549969999964,None,,,,,,,,,,,,,8,001,2022_Sep_29_1642,Flanker,2021.2.0,239.957767432602,
neutral left,0,a,neutral.png,neutral.png,neutral.png,left_arrow.png,neutral.png,neutral.png,neutral.png,,,,,,,,,3,0,18,4,,,,,,,,,238.36758889999965,None,,,,,,,,,,,,,,,,,,,,,,,,,,,,,,239.37710739999966,None,239.37710739999966,None,239.37710739999966,None,239.37710739999966,None,239.37710739999966,None,239.37710739999966,None,239.37710739999966,None,a,1,0.41819589999977325,239.37710739999966,None,,,,,,,,,,,,,8,001,2022_Sep_29_1642,Flanker,2021.2.0,239.957767432602,
congruent-right.jpg,1,k,right_arrow.png,right_arrow.png,right_arrow.png,right_arrow.png,right_arrow.png,right_arrow.png,right_arrow.png,,,,,,,,,3,1,19,2,,,,,,,,,239.81065880000006,None,,,,,,,,,,,,,,,,,,,,,,,,,,,,,,240.82422169999973,None,240.82422169999973,None,240.82422169999973,None,240.82422169999973,None,240.82422169999973,None,240.82422169999973,None,240.82422169999973,None,k,1,0.5793242999998256,240.82422169999973,None,,,,,,,,,,,,,8,001,2022_Sep_29_1642,Flanker,2021.2.0,239.957767432602,
incongruent-left.jpg,0,a,right_arrow.png,right_arrow.png,right_arrow.png,left_arrow.png,right_arrow.png,right_arrow.png,right_arrow.png,,,,,,,,,3,2,20,1,,,,,,,,,241.41691029999993,None,,,,,,,,,,,,,,,,,,,,,,,,,,,,,,242.43005989999983,None,242.43005989999983,None,242.43005989999983,None,242.43005989999983,None,242.43005989999983,None,242.43005989999983,None,242.43005989999983,None,a,1,0.4216217000002871,242.43005989999983,None,,,,,,,,,,,,,8,001,2022_Sep_29_1642,Flanker,2021.2.0,239.957767432602,
incongruent-right.jpg,0,k,left_arrow.png,left_arrow.png,left_arrow.png,right_arrow.png,left_arrow.png,left_arrow.png,left_arrow.png,,,,,,,,,3,3,21,3,,,,,,,,,242.86384389999967,None,,,,,,,,,,,,,,,,,,,,,,,,,,,,,,243.8777,None,243.8777,None,243.8777,None,243.8777,None,243.8777,None,243.8777,None,243.8777,None,k,1,0.5022309999999379,243.8777,None,,,,,,,,,,,,,8,001,2022_Sep_29_1642,Flanker,2021.2.0,239.957767432602,
congruent-left.jpg,1,a,left_arrow.png,left_arrow.png,left_arrow.png,left_arrow.png,left_arrow.png,left_arrow.png,left_arrow.png,,,,,,,,,3,4,22,0,,,,,,,,,244.39461269999993,None,,,,,,,,,,,,,,,,,,,,,,,,,,,,,,245.40437529999963,None,245.40437529999963,None,245.40437529999963,None,245.40437529999963,None,245.40437529999963,None,245.40437529999963,None,245.40437529999963,None,a,1,0.4797066999999515,245.40437529999963,None,,,,,,,,,,,,,8,001,2022_Sep_29_1642,Flanker,2021.2.0,239.957767432602,
neutral right,0,k,neutral.png,neutral.png,neutral.png,right_arrow.png,neutral.png,neutral.png,neutral.png,,,,,,,,,3,5,23,5,,,,,,,,,245.8962174999997,None,,,,,,,,,,,,,,,,,,,,,,,,,,,,,,246.9097816999997,None,246.9097816999997,None,246.9097816999997,None,246.9097816999997,None,246.9097816999997,None,246.9097816999997,None,246.9097816999997,None,k,1,0.5185381000001144,246.9097816999997,None,,,,,,,,,,,,,8,001,2022_Sep_29_1642,Flanker,2021.2.0,239.957767432602,
congruent-right.jpg,1,k,right_arrow.png,right_arrow.png,right_arrow.png,right_arrow.png,right_arrow.png,right_arrow.png,right_arrow.png,,,,,,,,,4,0,24,2,,,,,,,,,247.44368189999977,None,,,,,,,,,,,,,,,,,,,,,,,,,,,,,,248.45756439999968,None,248.45756439999968,None,248.45756439999968,None,248.45756439999968,None,248.45756439999968,None,248.45756439999968,None,248.45756439999968,None,k,1,0.41092159999971045,248.45756439999968,None,,,,,,,,,,,,,8,001,2022_Sep_29_1642,Flanker,2021.2.0,239.957767432602,
congruent-right.jpg,1,k,right_arrow.png,right_arrow.png,right_arrow.png,right_arrow.png,right_arrow.png,right_arrow.png,right_arrow.png,,,,,,,,,4,1,25,2,,,,,,,,,248.8826898999996,None,,,,,,,,,,,,,,,,,,,,,,,,,,,,,,249.89233509999985,None,249.89233509999985,None,249.89233509999985,None,249.89233509999985,None,249.89233509999985,None,249.89233509999985,None,249.89233509999985,None,k,1,0.4883448000000499,249.89233509999985,None,,,,,,,,,,,,,8,001,2022_Sep_29_1642,Flanker,2021.2.0,239.957767432602,
neutral left,0,a,neutral.png,neutral.png,neutral.png,left_arrow.png,neutral.png,neutral.png,neutral.png,,,,,,,,,4,2,26,4,,,,,,,,,250.3929865,None,,,,,,,,,,,,,,,,,,,,,,,,,,,,,,251.40619819999984,None,251.40619819999984,None,251.40619819999984,None,251.40619819999984,None,251.40619819999984,None,251.40619819999984,None,251.40619819999984,None,a,1,0.5588309999998273,251.40619819999984,None,,,,,,,,,,,,,8,001,2022_Sep_29_1642,Flanker,2021.2.0,239.957767432602,
congruent-right.jpg,1,k,right_arrow.png,right_arrow.png,right_arrow.png,right_arrow.png,right_arrow.png,right_arrow.png,right_arrow.png,,,,,,,,,4,3,27,2,,,,,,,,,251.98182039999983,None,,,,,,,,,,,,,,,,,,,,,,,,,,,,,,252.99121149999974,None,252.99121149999974,None,252.99121149999974,None,252.99121149999974,None,252.99121149999974,None,252.99121149999974,None,252.99121149999974,None,k,1,0.4059151000001293,252.99121149999974,None,,,,,,,,,,,,,8,001,2022_Sep_29_1642,Flanker,2021.2.0,239.957767432602,
neutral left,0,a,neutral.png,neutral.png,neutral.png,left_arrow.png,neutral.png,neutral.png,neutral.png,,,,,,,,,4,4,28,4,,,,,,,,,253.40862530000004,None,,,,,,,,,,,,,,,,,,,,,,,,,,,,,,254.42190849999997,None,254.42190849999997,None,254.42190849999997,None,254.42190849999997,None,254.42190849999997,None,254.42190849999997,None,254.42190849999997,None,a,1,0.5274031999997533,254.42190849999997,None,,,,,,,,,,,,,8,001,2022_Sep_29_1642,Flanker,2021.2.0,239.957767432602,
congruent-left.jpg,1,a,left_arrow.png,left_arrow.png,left_arrow.png,left_arrow.png,left_arrow.png,left_arrow.png,left_arrow.png,,,,,,,,,4,5,29,0,,,,,,,,,254.9641948999997,None,,,,,,,,,,,,,,,,,,,,,,,,,,,,,,255.97773370000004,None,255.97773370000004,None,255.97773370000004,None,255.97773370000004,None,255.97773370000004,None,255.97773370000004,None,255.97773370000004,None,a,1,0.4677707000000737,255.97773370000004,None,,,,,,,,,,,,,8,001,2022_Sep_29_1642,Flanker,2021.2.0,239.957767432602,
neutral left,0,a,neutral.png,neutral.png,neutral.png,left_arrow.png,neutral.png,neutral.png,neutral.png,,,,,,,,,5,0,30,4,,,,,,,,,256.4616225999998,None,,,,,,,,,,,,,,,,,,,,,,,,,,,,,,257.4754834999999,None,257.4754834999999,None,257.4754834999999,None,257.4754834999999,None,257.4754834999999,None,257.4754834999999,None,257.4754834999999,None,a,1,0.4422156000000541,257.4754834999999,None,,,,,,,,,,,,,8,001,2022_Sep_29_1642,Flanker,2021.2.0,239.957767432602,
neutral left,0,a,neutral.png,neutral.png,neutral.png,left_arrow.png,neutral.png,neutral.png,neutral.png,,,,,,,,,5,1,31,4,,,,,,,,,257.93417199999976,None,,,,,,,,,,,,,,,,,,,,,,,,,,,,,,258.94367569999986,None,258.94367569999986,None,258.94367569999986,None,258.94367569999986,None,258.94367569999986,None,258.94367569999986,None,258.94367569999986,None,a,1,0.41421660000014526,258.94367569999986,None,,,,,,,,,,,,,8,001,2022_Sep_29_1642,Flanker,2021.2.0,239.957767432602,
incongruent-left.jpg,0,a,right_arrow.png,right_arrow.png,right_arrow.png,left_arrow.png,right_arrow.png,right_arrow.png,right_arrow.png,,,,,,,,,5,2,32,1,,,,,,,,,259.36887469999965,None,,,,,,,,,,,,,,,,,,,,,,,,,,,,,,260.38237379999964,None,260.38237379999964,None,260.38237379999964,None,260.38237379999964,None,260.38237379999964,None,260.38237379999964,None,260.38237379999964,None,a,1,0.4000474999998005,260.38237379999964,None,,,,,,,,,,,,,8,001,2022_Sep_29_1642,Flanker,2021.2.0,239.957767432602,
neutral right,0,k,neutral.png,neutral.png,neutral.png,right_arrow.png,neutral.png,neutral.png,neutral.png,,,,,,,,,5,3,33,5,,,,,,,,,260.7995553999999,None,,,,,,,,,,,,,,,,,,,,,,,,,,,,,,261.8088923999999,None,261.8088923999999,None,261.8088923999999,None,261.8088923999999,None,261.8088923999999,None,261.8088923999999,None,261.8088923999999,None,k,1,0.5734048999997867,261.8088923999999,None,,,,,,,,,,,,,8,001,2022_Sep_29_1642,Flanker,2021.2.0,239.957767432602,
congruent-right.jpg,1,k,right_arrow.png,right_arrow.png,right_arrow.png,right_arrow.png,right_arrow.png,right_arrow.png,right_arrow.png,,,,,,,,,5,4,34,2,,,,,,,,,262.4014994999998,None,,,,,,,,,,,,,,,,,,,,,,,,,,,,,,263.4105854999998,None,263.4105854999998,None,263.4105854999998,None,263.4105854999998,None,263.4105854999998,None,263.4105854999998,None,263.4105854999998,None,k,1,0.41989139999986946,263.4105854999998,None,,,,,,,,,,,,,8,001,2022_Sep_29_1642,Flanker,2021.2.0,239.957767432602,
incongruent-left.jpg,0,a,right_arrow.png,right_arrow.png,right_arrow.png,left_arrow.png,right_arrow.png,right_arrow.png,right_arrow.png,,,,,,,,,5,5,35,1,,,,,,,,,263.8443803,None,,,,,,,,,,,,,,,,,,,,,,,,,,,,,,264.85798879999993,None,264.85798879999993,None,264.85798879999993,None,264.85798879999993,None,264.85798879999993,None,264.85798879999993,None,264.85798879999993,None,a,1,0.6687083000001621,264.85798879999993,None,,,,,,,,,,,,,8,001,2022_Sep_29_1642,Flanker,2021.2.0,239.957767432602,
congruent-left.jpg,1,a,left_arrow.png,left_arrow.png,left_arrow.png,left_arrow.png,left_arrow.png,left_arrow.png,left_arrow.png,,,,,,,,,6,0,36,0,,,,,,,,,265.5423974,None,,,,,,,,,,,,,,,,,,,,,,,,,,,,,,266.5555749,None,266.5555749,None,266.5555749,None,266.5555749,None,266.5555749,None,266.5555749,None,266.5555749,None,a,1,0.4273534000003565,266.5555749,None,,,,,,,,,,,,,8,001,2022_Sep_29_1642,Flanker,2021.2.0,239.957767432602,
neutral left,0,a,neutral.png,neutral.png,neutral.png,left_arrow.png,neutral.png,neutral.png,neutral.png,,,,,,,,,6,1,37,4,,,,,,,,,266.9979175999997,None,,,,,,,,,,,,,,,,,,,,,,,,,,,,,,268.0070931999999,None,268.0070931999999,None,268.0070931999999,None,268.0070931999999,None,268.0070931999999,None,268.0070931999999,None,268.0070931999999,None,a,1,0.5040592000000288,268.0070931999999,None,,,,,,,,,,,,,8,001,2022_Sep_29_1642,Flanker,2021.2.0,239.957767432602,
neutral right,0,k,neutral.png,neutral.png,neutral.png,right_arrow.png,neutral.png,neutral.png,neutral.png,,,,,,,,,6,2,38,5,,,,,,,,,268.52438600000005,None,,,,,,,,,,,,,,,,,,,,,,,,,,,,,,269.5381159999997,None,269.5381159999997,None,269.5381159999997,None,269.5381159999997,None,269.5381159999997,None,269.5381159999997,None,269.5381159999997,None,k,1,0.6372472000002745,269.5381159999997,None,,,,,,,,,,,,,8,001,2022_Sep_29_1642,Flanker,2021.2.0,239.957767432602,
incongruent-right.jpg,0,k,left_arrow.png,left_arrow.png,left_arrow.png,right_arrow.png,left_arrow.png,left_arrow.png,left_arrow.png,,,,,,,,,6,3,39,3,,,,,,,,,270.18863329999976,None,,,,,,,,,,,,,,,,,,,,,,,,,,,,,,271.20214369999985,None,271.20214369999985,None,271.20214369999985,None,271.20214369999985,None,271.20214369999985,None,271.20214369999985,None,271.20214369999985,None,k,1,0.48539000000027954,271.20214369999985,None,,,,,,,,,,,,,8,001,2022_Sep_29_1642,Flanker,2021.2.0,239.957767432602,
neutral right,0,k,neutral.png,neutral.png,neutral.png,right_arrow.png,neutral.png,neutral.png,neutral.png,,,,,,,,,6,4,40,5,,,,,,,,,271.7027487999999,None,,,,,,,,,,,,,,,,,,,,,,,,,,,,,,272.71646009999995,None,272.71646009999995,None,272.71646009999995,None,272.71646009999995,None,272.71646009999995,None,272.71646009999995,None,272.71646009999995,None,k,1,0.5712985999998637,272.71646009999995,None,,,,,,,,,,,,,8,001,2022_Sep_29_1642,Flanker,2021.2.0,239.957767432602,
neutral right,0,k,neutral.png,neutral.png,neutral.png,right_arrow.png,neutral.png,neutral.png,neutral.png,,,,,,,,,6,5,41,5,,,,,,,,,273.3002041,None,,,,,,,,,,,,,,,,,,,,,,,,,,,,,,274.30979929999967,None,274.30979929999967,None,274.30979929999967,None,274.30979929999967,None,274.30979929999967,None,274.30979929999967,None,274.30979929999967,None,k,1,0.4664993000001232,274.30979929999967,None,,,,,,,,,,,,,8,001,2022_Sep_29_1642,Flanker,2021.2.0,239.957767432602,
incongruent-left.jpg,0,a,right_arrow.png,right_arrow.png,right_arrow.png,left_arrow.png,right_arrow.png,right_arrow.png,right_arrow.png,,,,,,,,,7,0,42,1,,,,,,,,,274.79345749999993,None,,,,,,,,,,,,,,,,,,,,,,,,,,,,,,275.80702199999996,None,275.80702199999996,None,275.80702199999996,None,275.80702199999996,None,275.80702199999996,None,275.80702199999996,None,275.80702199999996,None,a,1,0.6414712000000691,275.80702199999996,None,,,,,,,,,,,,,8,001,2022_Sep_29_1642,Flanker,2021.2.0,239.957767432602,
incongruent-right.jpg,0,k,left_arrow.png,left_arrow.png,left_arrow.png,right_arrow.png,left_arrow.png,left_arrow.png,left_arrow.png,,,,,,,,,7,1,43,3,,,,,,,,,276.46606109999993,None,,,,,,,,,,,,,,,,,,,,,,,,,,,,,,277.47989129999996,None,277.47989129999996,None,277.47989129999996,None,277.47989129999996,None,277.47989129999996,None,277.47989129999996,None,277.47989129999996,None,k,1,0.5924770000001445,277.47989129999996,None,,,,,,,,,,,,,8,001,2022_Sep_29_1642,Flanker,2021.2.0,239.957767432602,
neutral right,0,k,neutral.png,neutral.png,neutral.png,right_arrow.png,neutral.png,neutral.png,neutral.png,,,,,,,,,7,2,44,5,,,,,,,,,278.0890033999999,None,,,,,,,,,,,,,,,,,,,,,,,,,,,,,,279.0979969,None,279.0979969,None,279.0979969,None,279.0979969,None,279.0979969,None,279.0979969,None,279.0979969,None,k,1,0.42257740000013655,279.0979969,None,,,,,,,,,,,,,8,001,2022_Sep_29_1642,Flanker,2021.2.0,239.957767432602,
incongruent-left.jpg,0,a,right_arrow.png,right_arrow.png,right_arrow.png,left_arrow.png,right_arrow.png,right_arrow.png,right_arrow.png,,,,,,,,,7,3,45,1,,,,,,,,,279.5401459999998,None,,,,,,,,,,,,,,,,,,,,,,,,,,,,,,280.5540286999999,None,280.5540286999999,None,280.5540286999999,None,280.5540286999999,None,280.5540286999999,None,280.5540286999999,None,280.5540286999999,None,a,1,0.5910710999996809,280.5540286999999,None,,,,,,,,,,,,,8,001,2022_Sep_29_1642,Flanker,2021.2.0,239.957767432602,
congruent-left.jpg,1,a,left_arrow.png,left_arrow.png,left_arrow.png,left_arrow.png,left_arrow.png,left_arrow.png,left_arrow.png,,,,,,,,,7,4,46,0,,,,,,,,,281.16275019999966,None,,,,,,,,,,,,,,,,,,,,,,,,,,,,,,282.17208089999986,None,282.17208089999986,None,282.17208089999986,None,282.17208089999986,None,282.17208089999986,None,282.17208089999986,None,282.17208089999986,None,a,1,0.6769231999996919,282.17208089999986,None,,,,,,,,,,,,,8,001,2022_Sep_29_1642,Flanker,2021.2.0,239.957767432602,
congruent-left.jpg,1,a,left_arrow.png,left_arrow.png,left_arrow.png,left_arrow.png,left_arrow.png,left_arrow.png,left_arrow.png,,,,,,,,,7,5,47,0,,,,,,,,,282.86448870000004,None,,,,,,,,,,,,,,,,,,,,,,,,,,,,,,283.87396739999986,None,283.87396739999986,None,283.87396739999986,None,283.87396739999986,None,283.87396739999986,None,283.87396739999986,None,283.87396739999986,None,a,1,0.8793193000001338,283.87396739999986,None,,,,,,,,,,,,,8,001,2022_Sep_29_1642,Flanker,2021.2.0,239.957767432602,
,,,,,,,,,,,,,,,,,,,,,,,,,,,,,,,,,,,,,,,,,,,,,,,,,,,,,,,,,,,,,,,,,,,,,,,,,,,,,,,,284.7790243999998,None,space,32.570609200000035,284.7790243999998,None,,,,,,,8,001,2022_Sep_29_1642,Flanker,2021.2.0,239.957767432602,
neutral right,0,k,neutral.png,neutral.png,neutral.png,right_arrow.png,neutral.png,neutral.png,neutral.png,,,,,,,,,,,,,0,0,0,5,,,,,317.3718408,None,,,,,,,,,,,,,,,,,,,,,,,,,,,,,,318.3812235999999,None,318.3812235999999,None,318.3812235999999,None,318.3812235999999,None,318.3812235999999,None,318.3812235999999,None,318.3812235999999,None,k,1,0.45657649999975547,318.3812235999999,None,,,,,,,,,,,,,8,001,2022_Sep_29_1642,Flanker,2021.2.0,239.957767432602,
congruent-right.jpg,1,k,right_arrow.png,right_arrow.png,right_arrow.png,right_arrow.png,right_arrow.png,right_arrow.png,right_arrow.png,,,,,,,,,,,,,0,1,1,2,,,,,318.85671479999974,None,,,,,,,,,,,,,,,,,,,,,,,,,,,,,,319.8748263999996,None,319.8748263999996,None,319.8748263999996,None,319.8748263999996,None,319.8748263999996,None,319.8748263999996,None,319.8748263999996,None,k,1,0.43517449999990276,319.8748263999996,None,,,,,,,,,,,,,8,001,2022_Sep_29_1642,Flanker,2021.2.0,239.957767432602,
incongruent-left.jpg,0,a,right_arrow.png,right_arrow.png,right_arrow.png,left_arrow.png,right_arrow.png,right_arrow.png,right_arrow.png,,,,,,,,,,,,,0,2,2,1,,,,,320.32500709999977,None,,,,,,,,,,,,,,,,,,,,,,,,,,,,,,321.33461850000003,None,321.33461850000003,None,321.33461850000003,None,321.33461850000003,None,321.33461850000003,None,321.33461850000003,None,321.33461850000003,None,a,1,0.4075687999998081,321.33461850000003,None,,,,,,,,,,,,,8,001,2022_Sep_29_1642,Flanker,2021.2.0,239.957767432602,
incongruent-left.jpg,0,a,right_arrow.png,right_arrow.png,right_arrow.png,left_arrow.png,right_arrow.png,right_arrow.png,right_arrow.png,,,,,,,,,,,,,0,3,3,1,,,,,321.7600395999998,None,,,,,,,,,,,,,,,,,,,,,,,,,,,,,,322.76937739999994,None,322.76937739999994,None,322.76937739999994,None,322.76937739999994,None,322.76937739999994,None,322.76937739999994,None,322.76937739999994,None,a,1,0.4129817000002731,322.76937739999994,None,,,,,,,,,,,,,8,001,2022_Sep_29_1642,Flanker,2021.2.0,239.957767432602,
neutral left,0,a,neutral.png,neutral.png,neutral.png,left_arrow.png,neutral.png,neutral.png,neutral.png,,,,,,,,,,,,,0,4,4,4,,,,,323.1949952,None,,,,,,,,,,,,,,,,,,,,,,,,,,,,,,324.2124107999998,None,324.2124107999998,None,324.2124107999998,None,324.2124107999998,None,324.2124107999998,None,324.2124107999998,None,324.2124107999998,None,a,1,0.35419309999997495,324.2124107999998,None,,,,,,,,,,,,,8,001,2022_Sep_29_1642,Flanker,2021.2.0,239.957767432602,
neutral right,0,k,neutral.png,neutral.png,neutral.png,right_arrow.png,neutral.png,neutral.png,neutral.png,,,,,,,,,,,,,0,5,5,5,,,,,324.5794504999999,None,,,,,,,,,,,,,,,,,,,,,,,,,,,,,,325.5888299999997,None,325.5888299999997,None,325.5888299999997,None,325.5888299999997,None,325.5888299999997,None,325.5888299999997,None,325.5888299999997,None,k,1,0.3939156000001276,325.5888299999997,None,,,,,,,,,,,,,8,001,2022_Sep_29_1642,Flanker,2021.2.0,239.957767432602,
neutral right,0,k,neutral.png,neutral.png,neutral.png,right_arrow.png,neutral.png,neutral.png,neutral.png,,,,,,,,,,,,,1,0,6,5,,,,,325.9976115999998,None,,,,,,,,,,,,,,,,,,,,,,,,,,,,,,327.00732229999994,None,327.00732229999994,None,327.00732229999994,None,327.00732229999994,None,327.00732229999994,None,327.00732229999994,None,327.00732229999994,None,k,1,0.38364769999998316,327.00732229999994,None,,,,,,,,,,,,,8,001,2022_Sep_29_1642,Flanker,2021.2.0,239.957767432602,
neutral right,0,k,neutral.png,neutral.png,neutral.png,right_arrow.png,neutral.png,neutral.png,neutral.png,,,,,,,,,,,,,1,1,7,5,,,,,327.40751009999985,None,,,,,,,,,,,,,,,,,,,,,,,,,,,,,,328.42130169999973,None,328.42130169999973,None,328.42130169999973,None,328.42130169999973,None,328.42130169999973,None,328.42130169999973,None,328.42130169999973,None,k,1,0.34581470000011905,328.42130169999973,None,,,,,,,,,,,,,8,001,2022_Sep_29_1642,Flanker,2021.2.0,239.957767432602,
incongruent-right.jpg,0,k,left_arrow.png,left_arrow.png,left_arrow.png,right_arrow.png,left_arrow.png,left_arrow.png,left_arrow.png,,,,,,,,,,,,,1,2,8,3,,,,,328.7797197,None,,,,,,,,,,,,,,,,,,,,,,,,,,,,,,329.78911419999986,None,329.78911419999986,None,329.78911419999986,None,329.78911419999986,None,329.78911419999986,None,329.78911419999986,None,329.78911419999986,None,k,1,0.4182114999998703,329.78911419999986,None,,,,,,,,,,,,,8,001,2022_Sep_29_1642,Flanker,2021.2.0,239.957767432602,
incongruent-left.jpg,0,a,right_arrow.png,right_arrow.png,right_arrow.png,left_arrow.png,right_arrow.png,right_arrow.png,right_arrow.png,,,,,,,,,,,,,1,3,9,1,,,,,330.21918719999985,None,,,,,,,,,,,,,,,,,,,,,,,,,,,,,,331.2283683999999,None,331.2283683999999,None,331.2283683999999,None,331.2283683999999,None,331.2283683999999,None,331.2283683999999,None,331.2283683999999,None,a,1,0.4031515000001491,331.2283683999999,None,,,,,,,,,,,,,8,001,2022_Sep_29_1642,Flanker,2021.2.0,239.957767432602,
incongruent-right.jpg,0,k,left_arrow.png,left_arrow.png,left_arrow.png,right_arrow.png,left_arrow.png,left_arrow.png,left_arrow.png,,,,,,,,,,,,,1,4,10,3,,,,,331.64525209999965,None,,,,,,,,,,,,,,,,,,,,,,,,,,,,,,332.65912039999967,None,332.65912039999967,None,332.65912039999967,None,332.65912039999967,None,332.65912039999967,None,332.65912039999967,None,332.65912039999967,None,k,1,0.4445920000002843,332.65912039999967,None,,,,,,,,,,,,,8,001,2022_Sep_29_1642,Flanker,2021.2.0,239.957767432602,
congruent-right.jpg,1,k,right_arrow.png,right_arrow.png,right_arrow.png,right_arrow.png,right_arrow.png,right_arrow.png,right_arrow.png,,,,,,,,,,,,,1,5,11,2,,,,,333.1179096999999,None,,,,,,,,,,,,,,,,,,,,,,,,,,,,,,334.13154269999995,None,334.13154269999995,None,334.13154269999995,None,334.13154269999995,None,334.13154269999995,None,334.13154269999995,None,334.13154269999995,None,k,1,0.4043909999995776,334.13154269999995,None,,,,,,,,,,,,,8,001,2022_Sep_29_1642,Flanker,2021.2.0,239.957767432602,
incongruent-left.jpg,0,a,right_arrow.png,right_arrow.png,right_arrow.png,left_arrow.png,right_arrow.png,right_arrow.png,right_arrow.png,,,,,,,,,,,,,2,0,12,1,,,,,334.5483101,None,,,,,,,,,,,,,,,,,,,,,,,,,,,,,,335.5621575,None,335.5621575,None,335.5621575,None,335.5621575,None,335.5621575,None,335.5621575,None,335.5621575,None,a,1,0.42191870000033305,335.5621575,None,,,,,,,,,,,,,8,001,2022_Sep_29_1642,Flanker,2021.2.0,239.957767432602,
incongruent-right.jpg,0,k,left_arrow.png,left_arrow.png,left_arrow.png,right_arrow.png,left_arrow.png,left_arrow.png,left_arrow.png,,,,,,,,,,,,,2,1,13,3,,,,,335.9961174,None,,,,,,,,,,,,,,,,,,,,,,,,,,,,,,337.00958390000005,None,337.00958390000005,None,337.00958390000005,None,337.00958390000005,None,337.00958390000005,None,337.00958390000005,None,337.00958390000005,None,k,1,0.4466754000000037,337.00958390000005,None,,,,,,,,,,,,,8,001,2022_Sep_29_1642,Flanker,2021.2.0,239.957767432602,
neutral right,0,k,neutral.png,neutral.png,neutral.png,right_arrow.png,neutral.png,neutral.png,neutral.png,,,,,,,,,,,,,2,2,14,5,,,,,337.46806279999964,None,,,,,,,,,,,,,,,,,,,,,,,,,,,,,,338.47774149999987,None,338.47774149999987,None,338.47774149999987,None,338.47774149999987,None,338.47774149999987,None,338.47774149999987,None,338.47774149999987,None,k,1,0.4187289999999848,338.47774149999987,None,,,,,,,,,,,,,8,001,2022_Sep_29_1642,Flanker,2021.2.0,239.957767432602,
neutral left,0,a,neutral.png,neutral.png,neutral.png,left_arrow.png,neutral.png,neutral.png,neutral.png,,,,,,,,,,,,,2,3,15,4,,,,,338.91127179999967,None,,,,,,,,,,,,,,,,,,,,,,,,,,,,,,339.92088349999995,None,339.92088349999995,None,339.92088349999995,None,339.92088349999995,None,339.92088349999995,None,339.92088349999995,None,339.92088349999995,None,a,1,0.4320663999997123,339.92088349999995,None,,,,,,,,,,,,,8,001,2022_Sep_29_1642,Flanker,2021.2.0,239.957767432602,
neutral left,0,a,neutral.png,neutral.png,neutral.png,left_arrow.png,neutral.png,neutral.png,neutral.png,,,,,,,,,,,,,2,4,16,4,,,,,340.37115700000004,None,,,,,,,,,,,,,,,,,,,,,,,,,,,,,,341.3847920999997,None,341.3847920999997,None,341.3847920999997,None,341.3847920999997,None,341.3847920999997,None,341.3847920999997,None,341.3847920999997,None,a,1,0.3840981999996984,341.3847920999997,None,,,,,,,,,,,,,8,001,2022_Sep_29_1642,Flanker,2021.2.0,239.957767432602,
congruent-left.jpg,1,a,left_arrow.png,left_arrow.png,left_arrow.png,left_arrow.png,left_arrow.png,left_arrow.png,left_arrow.png,,,,,,,,,,,,,2,5,17,0,,,,,341.7851317999998,None,,,,,,,,,,,,,,,,,,,,,,,,,,,,,,342.79896229999986,None,342.79896229999986,None,342.79896229999986,None,342.79896229999986,None,342.79896229999986,None,342.79896229999986,None,342.79896229999986,None,a,1,0.4501431999997294,342.79896229999986,None,,,,,,,,,,,,,8,001,2022_Sep_29_1642,Flanker,2021.2.0,239.957767432602,
congruent-left.jpg,1,a,left_arrow.png,left_arrow.png,left_arrow.png,left_arrow.png,left_arrow.png,left_arrow.png,left_arrow.png,,,,,,,,,,,,,3,0,18,0,,,,,343.2658621999999,None,,,,,,,,,,,,,,,,,,,,,,,,,,,,,,344.2710855,None,344.2710855,None,344.2710855,None,344.2710855,None,344.2710855,None,344.2710855,None,344.2710855,None,a,1,0.3861672999996699,344.2710855,None,,,,,,,,,,,,,8,001,2022_Sep_29_1642,Flanker,2021.2.0,239.957767432602,
congruent-right.jpg,1,k,right_arrow.png,right_arrow.png,right_arrow.png,right_arrow.png,right_arrow.png,right_arrow.png,right_arrow.png,,,,,,,,,,,,,3,1,19,2,,,,,344.67154200000004,None,,,,,,,,,,,,,,,,,,,,,,,,,,,,,,345.68536689999974,None,345.68536689999974,None,345.68536689999974,None,345.68536689999974,None,345.68536689999974,None,345.68536689999974,None,345.68536689999974,None,k,1,0.5480796000001646,345.68536689999974,None,,,,,,,,,,,,,8,001,2022_Sep_29_1642,Flanker,2021.2.0,239.957767432602,
neutral left,0,a,neutral.png,neutral.png,neutral.png,left_arrow.png,neutral.png,neutral.png,neutral.png,,,,,,,,,,,,,3,2,20,4,,,,,346.25245369999993,None,,,,,,,,,,,,,,,,,,,,,,,,,,,,,,347.27037440000004,None,347.27037440000004,None,347.27037440000004,None,347.27037440000004,None,347.27037440000004,None,347.27037440000004,None,347.27037440000004,None,a,1,0.41127810000034515,347.27037440000004,None,,,,,,,,,,,,,8,001,2022_Sep_29_1642,Flanker,2021.2.0,239.957767432602,
neutral left,0,a,neutral.png,neutral.png,neutral.png,left_arrow.png,neutral.png,neutral.png,neutral.png,,,,,,,,,,,,,3,3,21,4,,,,,347.695565,None,,,,,,,,,,,,,,,,,,,,,,,,,,,,,,348.7052314999996,None,348.7052314999996,None,348.7052314999996,None,348.7052314999996,None,348.7052314999996,None,348.7052314999996,None,348.7052314999996,None,a,1,0.4086244000000079,348.7052314999996,None,,,,,,,,,,,,,8,001,2022_Sep_29_1642,Flanker,2021.2.0,239.957767432602,
congruent-left.jpg,1,a,left_arrow.png,left_arrow.png,left_arrow.png,left_arrow.png,left_arrow.png,left_arrow.png,left_arrow.png,,,,,,,,,,,,,3,4,22,0,,,,,349.1306701999997,None,,,,,,,,,,,,,,,,,,,,,,,,,,,,,,350.14399159999994,None,350.14399159999994,None,350.14399159999994,None,350.14399159999994,None,350.14399159999994,None,350.14399159999994,None,350.14399159999994,None,a,1,0.5060779999998886,350.14399159999994,None,,,,,,,,,,,,,8,001,2022_Sep_29_1642,Flanker,2021.2.0,239.957767432602,
neutral left,0,a,neutral.png,neutral.png,neutral.png,left_arrow.png,neutral.png,neutral.png,neutral.png,,,,,,,,,,,,,3,5,23,4,,,,,350.669934,None,,,,,,,,,,,,,,,,,,,,,,,,,,,,,,351.6831239999997,None,351.6831239999997,None,351.6831239999997,None,351.6831239999997,None,351.6831239999997,None,351.6831239999997,None,351.6831239999997,None,a,1,0.39909850000003644,351.6831239999997,None,,,,,,,,,,,,,8,001,2022_Sep_29_1642,Flanker,2021.2.0,239.957767432602,
incongruent-left.jpg,0,a,right_arrow.png,right_arrow.png,right_arrow.png,left_arrow.png,right_arrow.png,right_arrow.png,right_arrow.png,,,,,,,,,,,,,4,0,24,1,,,,,352.10060299999986,None,,,,,,,,,,,,,,,,,,,,,,,,,,,,,,353.11387109999987,None,353.11387109999987,None,353.11387109999987,None,353.11387109999987,None,353.11387109999987,None,353.11387109999987,None,353.11387109999987,None,a,1,0.49663349999991624,353.11387109999987,None,,,,,,,,,,,,,8,001,2022_Sep_29_1642,Flanker,2021.2.0,239.957767432602,
incongruent-right.jpg,0,k,left_arrow.png,left_arrow.png,left_arrow.png,right_arrow.png,left_arrow.png,left_arrow.png,left_arrow.png,,,,,,,,,,,,,4,1,25,3,,,,,353.62266679999993,None,,,,,,,,,,,,,,,,,,,,,,,,,,,,,,354.6365857999999,None,354.6365857999999,None,354.6365857999999,None,354.6365857999999,None,354.6365857999999,None,354.6365857999999,None,354.6365857999999,None,k,1,0.47807560000001104,354.6365857999999,None,,,,,,,,,,,,,8,001,2022_Sep_29_1642,Flanker,2021.2.0,239.957767432602,
congruent-right.jpg,1,k,right_arrow.png,right_arrow.png,right_arrow.png,right_arrow.png,right_arrow.png,right_arrow.png,right_arrow.png,,,,,,,,,,,,,4,2,26,2,,,,,355.12842649999993,None,,,,,,,,,,,,,,,,,,,,,,,,,,,,,,356.1422542,None,356.1422542,None,356.1422542,None,356.1422542,None,356.1422542,None,356.1422542,None,356.1422542,None,k,1,0.4365913999999975,356.1422542,None,,,,,,,,,,,,,8,001,2022_Sep_29_1642,Flanker,2021.2.0,239.957767432602,
congruent-right.jpg,1,k,right_arrow.png,right_arrow.png,right_arrow.png,right_arrow.png,right_arrow.png,right_arrow.png,right_arrow.png,,,,,,,,,,,,,4,3,27,2,,,,,356.5926255999998,None,,,,,,,,,,,,,,,,,,,,,,,,,,,,,,357.60213959999965,None,357.60213959999965,None,357.60213959999965,None,357.60213959999965,None,357.60213959999965,None,357.60213959999965,None,357.60213959999965,None,k,1,0.8009165999997094,357.60213959999965,None,,,,,,,,,,,,,8,001,2022_Sep_29_1642,Flanker,2021.2.0,239.957767432602,
neutral left,0,a,neutral.png,neutral.png,neutral.png,left_arrow.png,neutral.png,neutral.png,neutral.png,,,,,,,,,,,,,4,4,28,4,,,,,358.4194717999999,None,,,,,,,,,,,,,,,,,,,,,,,,,,,,,,359.4288013999999,None,359.4288013999999,None,359.4288013999999,None,359.4288013999999,None,359.4288013999999,None,359.4288013999999,None,359.4288013999999,None,a,1,0.43847490000007383,359.4288013999999,None,,,,,,,,,,,,,8,001,2022_Sep_29_1642,Flanker,2021.2.0,239.957767432602,
incongruent-right.jpg,0,k,left_arrow.png,left_arrow.png,left_arrow.png,right_arrow.png,left_arrow.png,left_arrow.png,left_arrow.png,,,,,,,,,,,,,4,5,29,3,,,,,359.8793631999997,None,,,,,,,,,,,,,,,,,,,,,,,,,,,,,,360.88907169999993,None,360.88907169999993,None,360.88907169999993,None,360.88907169999993,None,360.88907169999993,None,360.88907169999993,None,360.88907169999993,None,k,1,0.4263829999999871,360.88907169999993,None,,,,,,,,,,,,,8,001,2022_Sep_29_1642,Flanker,2021.2.0,239.957767432602,
congruent-left.jpg,1,a,left_arrow.png,left_arrow.png,left_arrow.png,left_arrow.png,left_arrow.png,left_arrow.png,left_arrow.png,,,,,,,,,,,,,5,0,30,0,,,,,361.33082449999984,None,,,,,,,,,,,,,,,,,,,,,,,,,,,,,,362.3447361999997,None,362.3447361999997,None,362.3447361999997,None,362.3447361999997,None,362.3447361999997,None,362.3447361999997,None,362.3447361999997,None,a,1,0.44295199999987744,362.3447361999997,None,,,,,,,,,,,,,8,001,2022_Sep_29_1642,Flanker,2021.2.0,239.957767432602,
congruent-left.jpg,1,a,left_arrow.png,left_arrow.png,left_arrow.png,left_arrow.png,left_arrow.png,left_arrow.png,left_arrow.png,,,,,,,,,,,,,5,1,31,0,,,,,362.8036723,None,,,,,,,,,,,,,,,,,,,,,,,,,,,,,,363.8167709999998,None,363.8167709999998,None,363.8167709999998,None,363.8167709999998,None,363.8167709999998,None,363.8167709999998,None,363.8167709999998,None,a,1,0.41905329999963215,363.8167709999998,None,,,,,,,,,,,,,8,001,2022_Sep_29_1642,Flanker,2021.2.0,239.957767432602,
incongruent-left.jpg,0,a,right_arrow.png,right_arrow.png,right_arrow.png,left_arrow.png,right_arrow.png,right_arrow.png,right_arrow.png,,,,,,,,,,,,,5,2,32,1,,,,,364.2505781,None,,,,,,,,,,,,,,,,,,,,,,,,,,,,,,365.26025630000004,None,365.26025630000004,None,365.26025630000004,None,365.26025630000004,None,365.26025630000004,None,365.26025630000004,None,365.26025630000004,None,a,1,0.4317795000001752,365.26025630000004,None,,,,,,,,,,,,,8,001,2022_Sep_29_1642,Flanker,2021.2.0,239.957767432602,
neutral right,0,k,neutral.png,neutral.png,neutral.png,right_arrow.png,neutral.png,neutral.png,neutral.png,,,,,,,,,,,,,5,3,33,5,,,,,365.71044919999986,None,,,,,,,,,,,,,,,,,,,,,,,,,,,,,,366.72403269999995,None,366.72403269999995,None,366.72403269999995,None,366.72403269999995,None,366.72403269999995,None,366.72403269999995,None,366.72403269999995,None,k,1,0.4401988999998139,366.72403269999995,None,,,,,,,,,,,,,8,001,2022_Sep_29_1642,Flanker,2021.2.0,239.957767432602,
incongruent-left.jpg,0,a,right_arrow.png,right_arrow.png,right_arrow.png,left_arrow.png,right_arrow.png,right_arrow.png,right_arrow.png,,,,,,,,,,,,,5,4,34,1,,,,,367.1830627999998,None,,,,,,,,,,,,,,,,,,,,,,,,,,,,,,368.19670229999974,None,368.19670229999974,None,368.19670229999974,None,368.19670229999974,None,368.19670229999974,None,368.19670229999974,None,368.19670229999974,None,a,1,0.40810549999969226,368.19670229999974,None,,,,,,,,,,,,,8,001,2022_Sep_29_1642,Flanker,2021.2.0,239.957767432602,
neutral left,0,a,neutral.png,neutral.png,neutral.png,left_arrow.png,neutral.png,neutral.png,neutral.png,,,,,,,,,,,,,5,5,35,4,,,,,368.6218537999998,None,,,,,,,,,,,,,,,,,,,,,,,,,,,,,,369.63541989999976,None,369.63541989999976,None,369.63541989999976,None,369.63541989999976,None,369.63541989999976,None,369.63541989999976,None,369.63541989999976,None,a,1,0.40118480000001,369.63541989999976,None,,,,,,,,,,,,,8,001,2022_Sep_29_1642,Flanker,2021.2.0,239.957767432602,
neutral right,0,k,neutral.png,neutral.png,neutral.png,right_arrow.png,neutral.png,neutral.png,neutral.png,,,,,,,,,,,,,6,0,36,5,,,,,370.05255999999963,None,,,,,,,,,,,,,,,,,,,,,,,,,,,,,,371.0622196999998,None,371.0622196999998,None,371.0622196999998,None,371.0622196999998,None,371.0622196999998,None,371.0622196999998,None,371.0622196999998,None,k,1,0.383083500000339,371.0622196999998,None,,,,,,,,,,,,,8,001,2022_Sep_29_1642,Flanker,2021.2.0,239.957767432602,
incongruent-right.jpg,0,k,left_arrow.png,left_arrow.png,left_arrow.png,right_arrow.png,left_arrow.png,left_arrow.png,left_arrow.png,,,,,,,,,,,,,6,1,37,3,,,,,371.4623620999996,None,,,,,,,,,,,,,,,,,,,,,,,,,,,,,,372.47593089999964,None,372.47593089999964,None,372.47593089999964,None,372.47593089999964,None,372.47593089999964,None,372.47593089999964,None,372.47593089999964,None,k,1,0.46506970000018555,372.47593089999964,None,,,,,,,,,,,,,8,001,2022_Sep_29_1642,Flanker,2021.2.0,239.957767432602,
congruent-left.jpg,1,a,left_arrow.png,left_arrow.png,left_arrow.png,left_arrow.png,left_arrow.png,left_arrow.png,left_arrow.png,,,,,,,,,,,,,6,2,38,0,,,,,372.9597758,None,,,,,,,,,,,,,,,,,,,,,,,,,,,,,,373.9691914,None,373.9691914,None,373.9691914,None,373.9691914,None,373.9691914,None,373.9691914,None,373.9691914,None,a,1,0.5800466999999117,373.9691914,None,,,,,,,,,,,,,8,001,2022_Sep_29_1642,Flanker,2021.2.0,239.957767432602,
congruent-right.jpg,1,k,right_arrow.png,right_arrow.png,right_arrow.png,right_arrow.png,right_arrow.png,right_arrow.png,right_arrow.png,,,,,,,,,,,,,6,3,39,2,,,,,374.5614711999997,None,,,,,,,,,,,,,,,,,,,,,,,,,,,,,,375.5750442999997,None,375.5750442999997,None,375.5750442999997,None,375.5750442999997,None,375.5750442999997,None,375.5750442999997,None,375.5750442999997,None,k,1,0.3903781000003619,375.5750442999997,None,,,,,,,,,,,,,8,001,2022_Sep_29_1642,Flanker,2021.2.0,239.957767432602,
incongruent-right.jpg,0,k,left_arrow.png,left_arrow.png,left_arrow.png,right_arrow.png,left_arrow.png,left_arrow.png,left_arrow.png,,,,,,,,,,,,,6,4,40,3,,,,,375.98381709999967,None,,,,,,,,,,,,,,,,,,,,,,,,,,,,,,376.99321999999984,None,376.99321999999984,None,376.99321999999984,None,376.99321999999984,None,376.99321999999984,None,376.99321999999984,None,376.99321999999984,None,k,1,0.44442350000008446,376.99321999999984,None,,,,,,,,,,,,,8,001,2022_Sep_29_1642,Flanker,2021.2.0,239.957767432602,
congruent-right.jpg,1,k,right_arrow.png,right_arrow.png,right_arrow.png,right_arrow.png,right_arrow.png,right_arrow.png,right_arrow.png,,,,,,,,,,,,,6,5,41,2,,,,,377.4521023999996,None,,,,,,,,,,,,,,,,,,,,,,,,,,,,,,378.4656407999996,None,378.4656407999996,None,378.4656407999996,None,378.4656407999996,None,378.4656407999996,None,378.4656407999996,None,378.4656407999996,None,k,1,0.40413139999964187,378.4656407999996,None,,,,,,,,,,,,,8,001,2022_Sep_29_1642,Flanker,2021.2.0,239.957767432602,
neutral right,0,k,neutral.png,neutral.png,neutral.png,right_arrow.png,neutral.png,neutral.png,neutral.png,,,,,,,,,,,,,7,0,42,5,,,,,378.88270509999984,None,,,,,,,,,,,,,,,,,,,,,,,,,,,,,,379.93070929999976,None,379.93070929999976,None,379.93070929999976,None,379.93070929999976,None,379.93070929999976,None,379.93070929999976,None,379.93070929999976,None,k,1,0.3792945000000145,379.93070929999976,None,,,,,,,,,,,,,8,001,2022_Sep_29_1642,Flanker,2021.2.0,239.957767432602,
incongruent-right.jpg,0,k,left_arrow.png,left_arrow.png,left_arrow.png,right_arrow.png,left_arrow.png,left_arrow.png,left_arrow.png,,,,,,,,,,,,,7,1,43,3,,,,,380.32175400000006,None,,,,,,,,,,,,,,,,,,,,,,,,,,,,,,381.3352968999998,None,381.3352968999998,None,381.3352968999998,None,381.3352968999998,None,381.3352968999998,None,381.3352968999998,None,381.3352968999998,None,k,1,0.4308661000000029,381.3352968999998,None,,,,,,,,,,,,,8,001,2022_Sep_29_1642,Flanker,2021.2.0,239.957767432602,
congruent-right.jpg,1,k,right_arrow.png,right_arrow.png,right_arrow.png,right_arrow.png,right_arrow.png,right_arrow.png,right_arrow.png,,,,,,,,,,,,,7,2,44,2,,,,,381.7777149999997,None,,,,,,,,,,,,,,,,,,,,,,,,,,,,,,382.78688220000004,None,382.78688220000004,None,382.78688220000004,None,382.78688220000004,None,382.78688220000004,None,382.78688220000004,None,382.78688220000004,None,k,1,0.47579110000015135,382.78688220000004,None,,,,,,,,,,,,,8,001,2022_Sep_29_1642,Flanker,2021.2.0,239.957767432602,
incongruent-left.jpg,0,a,right_arrow.png,right_arrow.png,right_arrow.png,left_arrow.png,right_arrow.png,right_arrow.png,right_arrow.png,,,,,,,,,,,,,7,3,45,1,,,,,383.2792850999999,None,,,,,,,,,,,,,,,,,,,,,,,,,,,,,,384.28870149999966,None,384.28870149999966,None,384.28870149999966,None,384.28870149999966,None,384.28870149999966,None,384.28870149999966,None,384.28870149999966,None,a,1,0.5582761999999093,384.28870149999966,None,,,,,,,,,,,,,8,001,2022_Sep_29_1642,Flanker,2021.2.0,239.957767432602,
congruent-left.jpg,1,a,left_arrow.png,left_arrow.png,left_arrow.png,left_arrow.png,left_arrow.png,left_arrow.png,left_arrow.png,,,,,,,,,,,,,7,4,46,0,,,,,384.86433339999985,None,,,,,,,,,,,,,,,,,,,,,,,,,,,,,,385.87759529999994,None,385.87759529999994,None,385.87759529999994,None,385.87759529999994,None,385.87759529999994,None,385.87759529999994,None,385.87759529999994,None,a,1,0.9936311999999816,385.87759529999994,None,,,,,,,,,,,,,8,001,2022_Sep_29_1642,Flanker,2021.2.0,239.957767432602,
congruent-left.jpg,1,a,left_arrow.png,left_arrow.png,left_arrow.png,left_arrow.png,left_arrow.png,left_arrow.png,left_arrow.png,,,,,,,,,,,,,7,5,47,0,,,,,386.8872723999998,None,,,,,,,,,,,,,,,,,,,,,,,,,,,,,,387.90078649999987,None,387.90078649999987,None,387.90078649999987,None,387.90078649999987,None,387.90078649999987,None,387.90078649999987,None,387.90078649999987,None,a,1,0.4342604000003121,387.90078649999987,None,,,,,,,,,,,,,8,001,2022_Sep_29_1642,Flanker,2021.2.0,239.957767432602,
,,,,,,,,,,,,,,,,,,,,,,,,,,,,,,,,,,,,,,,,,,,,,,,,,,,,,,,,,,,,,,,,,,,,,,,,,,,,,,,,388.3635958,None,space,7.612468499999977,388.3635958,None,,,,,,,8,001,2022_Sep_29_1642,Flanker,2021.2.0,239.957767432602,
,,,,,,,,,,,,,,,,,,,,,,,,,,,,,,,,,,,,,,,,,,,,,,,,,,,,,,,,,,,,,,,,,,,,,,,,,,,,,,,,,,,,,,395.9883104999999,None,space,4.316357400000015,395.9883104999999,None,8,001,2022_Sep_29_1642,Flanker,2021.2.0,239.957767432602,
