images,congruentcy,corrAns,arrow_1,arrow_2,arrow_3,target,arrow_5,arrow_6,arrow_7,practice.thisRepN,practice.thisTrialN,practice.thisN,practice.thisIndex,trials.thisRepN,trials.thisTrialN,trials.thisN,trials.thisIndex,trials_2.thisRepN,trials_2.thisTrialN,trials_2.thisN,trials_2.thisIndex,trials_3.thisRepN,trials_3.thisTrialN,trials_3.thisN,trials_3.thisIndex,instr_text.started,instr_text.stopped,instr_resp.keys,instr_resp.rt,polygon.started,polygon.stopped,arrow1_.started,arrow1_.stopped,arrow2_.started,arrow2_.stopped,arrow3_.started,arrow3_.stopped,target_p.started,target_p.stopped,arrow5_.started,arrow5_.stopped,arrow6_.started,arrow6_.stopped,arrow7_.started,arrow7_.stopped,key_resp_P.keys,key_resp_P.corr,key_resp_P.rt,key_resp_P.started,key_resp_P.stopped,text_2.started,text_2.stopped,text_3.started,text_3.stopped,text_4.started,text_4.stopped,key_resp_2.keys,key_resp_2.rt,key_resp_2.started,key_resp_2.stopped,arrow1.started,arrow1.stopped,arrow2.started,arrow2.stopped,arrow3.started,arrow3.stopped,target_t.started,target_t.stopped,arrow5.started,arrow5.stopped,arrow6.started,arrow6.stopped,arrow7.started,arrow7.stopped,key_resp.keys,key_resp.corr,key_resp.rt,key_resp.started,key_resp.stopped,text_5.started,text_5.stopped,key_resp_3.keys,key_resp_3.rt,key_resp_3.started,key_resp_3.stopped,text_6.started,text_6.stopped,key_resp_4.keys,key_resp_4.rt,key_resp_4.started,key_resp_4.stopped,participant,session,date,expName,psychopyVersion,frameRate,
,,,,,,,,,,,,,,,,,,,,,,,,,,15.783025299999991,None,space,52.8094045,,,,,,,,,,,,,,,,,,,,,,,,,,,,,,,,,,,,,,,,,,,,,,,,,,,,,,,,,,,,,,,9,001,2022_Oct_03_1306,Flanker,2021.2.0,239.68859657528722,
congruent-right.jpg,1,k,right_arrow.png,right_arrow.png,right_arrow.png,right_arrow.png,right_arrow.png,right_arrow.png,right_arrow.png,0,0,0,2,,,,,,,,,,,,,,,,,68.65180090000001,None,69.66114010000001,None,69.66114010000001,None,69.66114010000001,None,69.66114010000001,None,69.66114010000001,None,69.66114010000001,None,69.66114010000001,None,k,1,0.8753611000000205,69.66114010000001,None,70.5577644,None,,,,,,,,,,,,,,,,,,,,,,,,,,,,,,,,,,,,,,,,9,001,2022_Oct_03_1306,Flanker,2021.2.0,239.68859657528722,
congruent-right.jpg,1,k,right_arrow.png,right_arrow.png,right_arrow.png,right_arrow.png,right_arrow.png,right_arrow.png,right_arrow.png,0,1,1,2,,,,,,,,,,,,,,,,,72.05492620000001,None,73.06436479999996,None,73.06436479999996,None,73.06436479999996,None,73.06436479999996,None,73.06436479999996,None,73.06436479999996,None,73.06436479999996,None,k,1,0.48855109999999513,73.06436479999996,None,73.56509319999998,None,,,,,,,,,,,,,,,,,,,,,,,,,,,,,,,,,,,,,,,,9,001,2022_Oct_03_1306,Flanker,2021.2.0,239.68859657528722,
congruent-right.jpg,1,k,right_arrow.png,right_arrow.png,right_arrow.png,right_arrow.png,right_arrow.png,right_arrow.png,right_arrow.png,0,2,2,2,,,,,,,,,,,,,,,,,75.07066689999999,None,76.08005449999996,None,76.08005449999996,None,76.08005449999996,None,76.08005449999996,None,76.08005449999996,None,76.08005449999996,None,76.08005449999996,None,k,1,0.40928199999996195,76.08005449999996,None,76.5055997,None,,,,,,,,,,,,,,,,,,,,,,,,,,,,,,,,,,,,,,,,9,001,2022_Oct_03_1306,Flanker,2021.2.0,239.68859657528722,
neutral right,0,k,neutral.png,neutral.png,neutral.png,right_arrow.png,neutral.png,neutral.png,neutral.png,0,3,3,5,,,,,,,,,,,,,,,,,78.00707990000001,None,79.02899329999997,None,79.02899329999997,None,79.02899329999997,None,79.02899329999997,None,79.02899329999997,None,79.02899329999997,None,79.02899329999997,None,k,1,0.4209079999999972,79.02899329999997,None,79.46300099999996,None,,,,,,,,,,,,,,,,,,,,,,,,,,,,,,,,,,,,,,,,9,001,2022_Oct_03_1306,Flanker,2021.2.0,239.68859657528722,
congruent-right.jpg,1,k,right_arrow.png,right_arrow.png,right_arrow.png,right_arrow.png,right_arrow.png,right_arrow.png,right_arrow.png,0,4,4,2,,,,,,,,,,,,,,,,,80.9687126,None,81.97379309999997,None,81.97379309999997,None,81.97379309999997,None,81.97379309999997,None,81.97379309999997,None,81.97379309999997,None,81.97379309999997,None,k,1,0.4283674000000133,81.97379309999997,None,82.41593849999998,None,,,,,,,,,,,,,,,,,,,,,,,,,,,,,,,,,,,,,,,,9,001,2022_Oct_03_1306,Flanker,2021.2.0,239.68859657528722,
incongruent-left.jpg,0,a,right_arrow.png,right_arrow.png,right_arrow.png,left_arrow.png,right_arrow.png,right_arrow.png,right_arrow.png,0,5,5,1,,,,,,,,,,,,,,,,,83.91765379999998,None,84.9394509,None,84.9394509,None,84.9394509,None,84.9394509,None,84.9394509,None,84.9394509,None,84.9394509,None,k,0,0.42308420000000524,84.9394509,None,85.38592639999996,None,,,,,,,,,,,,,,,,,,,,,,,,,,,,,,,,,,,,,,,,9,001,2022_Oct_03_1306,Flanker,2021.2.0,239.68859657528722,
incongruent-left.jpg,0,a,right_arrow.png,right_arrow.png,right_arrow.png,left_arrow.png,right_arrow.png,right_arrow.png,right_arrow.png,1,0,6,1,,,,,,,,,,,,,,,,,86.88320279999999,None,87.89695030000001,None,87.89695030000001,None,87.89695030000001,None,87.89695030000001,None,87.89695030000001,None,87.89695030000001,None,87.89695030000001,None,a,1,1.8581764000000476,87.89695030000001,None,89.77369249999998,None,,,,,,,,,,,,,,,,,,,,,,,,,,,,,,,,,,,,,,,,9,001,2022_Oct_03_1306,Flanker,2021.2.0,239.68859657528722,
incongruent-right.jpg,0,k,left_arrow.png,left_arrow.png,left_arrow.png,right_arrow.png,left_arrow.png,left_arrow.png,left_arrow.png,1,1,7,3,,,,,,,,,,,,,,,,,91.27947569999998,None,92.288905,None,92.288905,None,92.288905,None,92.288905,None,92.288905,None,92.288905,None,92.288905,None,k,1,0.7146916000000374,92.288905,None,93.0232282,None,,,,,,,,,,,,,,,,,,,,,,,,,,,,,,,,,,,,,,,,9,001,2022_Oct_03_1306,Flanker,2021.2.0,239.68859657528722,
congruent-left.jpg,1,a,left_arrow.png,left_arrow.png,left_arrow.png,left_arrow.png,left_arrow.png,left_arrow.png,left_arrow.png,1,2,8,0,,,,,,,,,,,,,,,,,94.52891419999997,None,95.53837019999997,None,95.53837019999997,None,95.53837019999997,None,95.53837019999997,None,95.53837019999997,None,95.53837019999997,None,95.53837019999997,None,a,1,1.1137026000000105,95.53837019999997,None,96.66437669999999,None,,,,,,,,,,,,,,,,,,,,,,,,,,,,,,,,,,,,,,,,9,001,2022_Oct_03_1306,Flanker,2021.2.0,239.68859657528722,
congruent-left.jpg,1,a,left_arrow.png,left_arrow.png,left_arrow.png,left_arrow.png,left_arrow.png,left_arrow.png,left_arrow.png,1,3,9,0,,,,,,,,,,,,,,,,,98.16594939999999,None,99.17551900000001,None,99.17551900000001,None,99.17551900000001,None,99.17551900000001,None,99.17551900000001,None,99.17551900000001,None,99.17551900000001,None,a,1,0.6050476000000344,99.17551900000001,None,99.7929163,None,,,,,,,,,,,,,,,,,,,,,,,,,,,,,,,,,,,,,,,,9,001,2022_Oct_03_1306,Flanker,2021.2.0,239.68859657528722,
incongruent-right.jpg,0,k,left_arrow.png,left_arrow.png,left_arrow.png,right_arrow.png,left_arrow.png,left_arrow.png,left_arrow.png,1,4,10,3,,,,,,,,,,,,,,,,,101.29449790000001,None,102.30382149999997,None,102.30382149999997,None,102.30382149999997,None,102.30382149999997,None,102.30382149999997,None,102.30382149999997,None,102.30382149999997,None,k,1,0.5172665000000052,102.30382149999997,None,102.83773199999996,None,,,,,,,,,,,,,,,,,,,,,,,,,,,,,,,,,,,,,,,,9,001,2022_Oct_03_1306,Flanker,2021.2.0,239.68859657528722,
incongruent-right.jpg,0,k,left_arrow.png,left_arrow.png,left_arrow.png,right_arrow.png,left_arrow.png,left_arrow.png,left_arrow.png,1,5,11,3,,,,,,,,,,,,,,,,,104.34347629999996,None,105.35289669999997,None,105.35289669999997,None,105.35289669999997,None,105.35289669999997,None,105.35289669999997,None,105.35289669999997,None,105.35289669999997,None,k,1,0.6524943999999664,105.35289669999997,None,106.020284,None,,,,,,,,,,,,,,,,,,,,,,,,,,,,,,,,,,,,,,,,9,001,2022_Oct_03_1306,Flanker,2021.2.0,239.68859657528722,
incongruent-left.jpg,0,a,right_arrow.png,right_arrow.png,right_arrow.png,left_arrow.png,right_arrow.png,right_arrow.png,right_arrow.png,2,0,12,1,,,,,,,,,,,,,,,,,107.52611630000001,None,108.5312677,None,108.5312677,None,108.5312677,None,108.5312677,None,108.5312677,None,108.5312677,None,108.5312677,None,a,1,0.45850659999996424,108.5312677,None,109.00677869999998,None,,,,,,,,,,,,,,,,,,,,,,,,,,,,,,,,,,,,,,,,9,001,2022_Oct_03_1306,Flanker,2021.2.0,239.68859657528722,
neutral left,0,a,neutral.png,neutral.png,neutral.png,left_arrow.png,neutral.png,neutral.png,neutral.png,2,1,13,4,,,,,,,,,,,,,,,,,110.50837989999997,None,111.51763869999996,None,111.51763869999996,None,111.51763869999996,None,111.51763869999996,None,111.51763869999996,None,111.51763869999996,None,111.51763869999996,None,a,1,0.5685824000000252,111.51763869999996,None,112.10162299999996,None,,,,,,,,,,,,,,,,,,,,,,,,,,,,,,,,,,,,,,,,9,001,2022_Oct_03_1306,Flanker,2021.2.0,239.68859657528722,
neutral right,0,k,neutral.png,neutral.png,neutral.png,right_arrow.png,neutral.png,neutral.png,neutral.png,2,2,14,5,,,,,,,,,,,,,,,,,113.6033084,None,114.6127219,None,114.6127219,None,114.6127219,None,114.6127219,None,114.6127219,None,114.6127219,None,114.6127219,None,k,1,0.3861895000000004,114.6127219,None,115.01323919999999,None,,,,,,,,,,,,,,,,,,,,,,,,,,,,,,,,,,,,,,,,9,001,2022_Oct_03_1306,Flanker,2021.2.0,239.68859657528722,
congruent-left.jpg,1,a,left_arrow.png,left_arrow.png,left_arrow.png,left_arrow.png,left_arrow.png,left_arrow.png,left_arrow.png,2,3,15,0,,,,,,,,,,,,,,,,,116.51469349999996,None,117.52838209999999,None,117.52838209999999,None,117.52838209999999,None,117.52838209999999,None,117.52838209999999,None,117.52838209999999,None,117.52838209999999,None,a,1,0.4306309000000397,117.52838209999999,None,117.9704403,None,,,,,,,,,,,,,,,,,,,,,,,,,,,,,,,,,,,,,,,,9,001,2022_Oct_03_1306,Flanker,2021.2.0,239.68859657528722,
neutral left,0,a,neutral.png,neutral.png,neutral.png,left_arrow.png,neutral.png,neutral.png,neutral.png,2,4,16,4,,,,,,,,,,,,,,,,,119.47615250000001,None,120.48146129999998,None,120.48146129999998,None,120.48146129999998,None,120.48146129999998,None,120.48146129999998,None,120.48146129999998,None,120.48146129999998,None,a,1,0.39794689999996535,120.48146129999998,None,120.89848169999999,None,,,,,,,,,,,,,,,,,,,,,,,,,,,,,,,,,,,,,,,,9,001,2022_Oct_03_1306,Flanker,2021.2.0,239.68859657528722,
incongruent-right.jpg,0,k,left_arrow.png,left_arrow.png,left_arrow.png,right_arrow.png,left_arrow.png,left_arrow.png,left_arrow.png,2,5,17,3,,,,,,,,,,,,,,,,,122.40432479999998,None,123.41371399999997,None,123.41371399999997,None,123.41371399999997,None,123.41371399999997,None,123.41371399999997,None,123.41371399999997,None,123.41371399999997,None,k,1,0.45824460000000045,123.41371399999997,None,123.8892333,None,,,,,,,,,,,,,,,,,,,,,,,,,,,,,,,,,,,,,,,,9,001,2022_Oct_03_1306,Flanker,2021.2.0,239.68859657528722,
neutral left,0,a,neutral.png,neutral.png,neutral.png,left_arrow.png,neutral.png,neutral.png,neutral.png,3,0,18,4,,,,,,,,,,,,,,,,,125.39070470000001,None,126.40021939999997,None,126.40021939999997,None,126.40021939999997,None,126.40021939999997,None,126.40021939999997,None,126.40021939999997,None,126.40021939999997,None,a,1,0.40015529999999444,126.40021939999997,None,126.8173726,None,,,,,,,,,,,,,,,,,,,,,,,,,,,,,,,,,,,,,,,,9,001,2022_Oct_03_1306,Flanker,2021.2.0,239.68859657528722,
neutral left,0,a,neutral.png,neutral.png,neutral.png,left_arrow.png,neutral.png,neutral.png,neutral.png,3,1,19,4,,,,,,,,,,,,,,,,,128.31876799999998,None,129.3283771,None,129.3283771,None,129.3283771,None,129.3283771,None,129.3283771,None,129.3283771,None,129.3283771,None,a,1,0.4163989999999558,129.3283771,None,129.762202,None,,,,,,,,,,,,,,,,,,,,,,,,,,,,,,,,,,,,,,,,9,001,2022_Oct_03_1306,Flanker,2021.2.0,239.68859657528722,
incongruent-left.jpg,0,a,right_arrow.png,right_arrow.png,right_arrow.png,left_arrow.png,right_arrow.png,right_arrow.png,right_arrow.png,3,2,20,1,,,,,,,,,,,,,,,,,131.2677387,None,132.2772847,None,132.2772847,None,132.2772847,None,132.2772847,None,132.2772847,None,132.2772847,None,132.2772847,None,a,1,0.4677170999999589,132.2772847,None,132.76102709999998,None,,,,,,,,,,,,,,,,,,,,,,,,,,,,,,,,,,,,,,,,9,001,2022_Oct_03_1306,Flanker,2021.2.0,239.68859657528722,
congruent-left.jpg,1,a,left_arrow.png,left_arrow.png,left_arrow.png,left_arrow.png,left_arrow.png,left_arrow.png,left_arrow.png,3,3,21,0,,,,,,,,,,,,,,,,,134.26274259999997,None,135.27638439999998,None,135.27638439999998,None,135.27638439999998,None,135.27638439999998,None,135.27638439999998,None,135.27638439999998,None,135.27638439999998,None,a,1,0.41305219999998144,135.27638439999998,None,135.7017523,None,,,,,,,,,,,,,,,,,,,,,,,,,,,,,,,,,,,,,,,,9,001,2022_Oct_03_1306,Flanker,2021.2.0,239.68859657528722,
neutral right,0,k,neutral.png,neutral.png,neutral.png,right_arrow.png,neutral.png,neutral.png,neutral.png,3,4,22,5,,,,,,,,,,,,,,,,,137.2075848,None,138.21287259999997,None,138.21287259999997,None,138.21287259999997,None,138.21287259999997,None,138.21287259999997,None,138.21287259999997,None,138.21287259999997,None,k,1,0.4209528000000091,138.21287259999997,None,138.64656079999997,None,,,,,,,,,,,,,,,,,,,,,,,,,,,,,,,,,,,,,,,,9,001,2022_Oct_03_1306,Flanker,2021.2.0,239.68859657528722,
neutral right,0,k,neutral.png,neutral.png,neutral.png,right_arrow.png,neutral.png,neutral.png,neutral.png,3,5,23,5,,,,,,,,,,,,,,,,,140.14815190000002,None,141.1533966,None,141.1533966,None,141.1533966,None,141.1533966,None,141.1533966,None,141.1533966,None,141.1533966,None,k,1,0.5048717999999894,141.1533966,None,141.6706754,None,,,,,,,,,,,,,,,,,,,,,,,,,,,,,,,,,,,,,,,,9,001,2022_Oct_03_1306,Flanker,2021.2.0,239.68859657528722,
,,,,,,,,,,,,,,,,,,,,,,,,,,,,,,,,,,,,,,,,,,,,,,,,,,,,,143.19289019999997,None,145.1784907,None,space,5.521079099999952,145.1784907,None,,,,,,,,,,,,,,,,,,,,,,,,,,,,,,,,9,001,2022_Oct_03_1306,Flanker,2021.2.0,239.68859657528722,
neutral left,0,a,neutral.png,neutral.png,neutral.png,left_arrow.png,neutral.png,neutral.png,neutral.png,,,,,0,0,0,4,,,,,,,,,,,,,150.72188589999996,None,,,,,,,,,,,,,,,,,,,,,,,,,,,,,,151.7269452,None,151.7269452,None,151.7269452,None,151.7269452,None,151.7269452,None,151.7269452,None,151.7269452,None,a,1,0.4927291999999852,151.7269452,None,,,,,,,,,,,,,9,001,2022_Oct_03_1306,Flanker,2021.2.0,239.68859657528722,
incongruent-left.jpg,0,a,right_arrow.png,right_arrow.png,right_arrow.png,left_arrow.png,right_arrow.png,right_arrow.png,right_arrow.png,,,,,0,1,1,1,,,,,,,,,,,,,152.23588569999998,None,,,,,,,,,,,,,,,,,,,,,,,,,,,,,,153.2494044,None,153.2494044,None,153.2494044,None,153.2494044,None,153.2494044,None,153.2494044,None,153.2494044,None,a,1,0.8105298999999491,153.2494044,None,,,,,,,,,,,,,9,001,2022_Oct_03_1306,Flanker,2021.2.0,239.68859657528722,
incongruent-left.jpg,0,a,right_arrow.png,right_arrow.png,right_arrow.png,left_arrow.png,right_arrow.png,right_arrow.png,right_arrow.png,,,,,0,2,2,1,,,,,,,,,,,,,154.0752799,None,,,,,,,,,,,,,,,,,,,,,,,,,,,,,,155.08483179999996,None,155.08483179999996,None,155.08483179999996,None,155.08483179999996,None,155.08483179999996,None,155.08483179999996,None,155.08483179999996,None,a,1,0.6633112000000096,155.08483179999996,None,,,,,,,,,,,,,9,001,2022_Oct_03_1306,Flanker,2021.2.0,239.68859657528722,
incongruent-right.jpg,0,k,left_arrow.png,left_arrow.png,left_arrow.png,right_arrow.png,left_arrow.png,left_arrow.png,left_arrow.png,,,,,0,3,3,3,,,,,,,,,,,,,155.7607552,None,,,,,,,,,,,,,,,,,,,,,,,,,,,,,,156.77395709999996,None,156.77395709999996,None,156.77395709999996,None,156.77395709999996,None,156.77395709999996,None,156.77395709999996,None,156.77395709999996,None,k,1,0.5984339999999975,156.77395709999996,None,,,,,,,,,,,,,9,001,2022_Oct_03_1306,Flanker,2021.2.0,239.68859657528722,
neutral left,0,a,neutral.png,neutral.png,neutral.png,left_arrow.png,neutral.png,neutral.png,neutral.png,,,,,0,4,4,4,,,,,,,,,,,,,157.3912881,None,,,,,,,,,,,,,,,,,,,,,,,,,,,,,,158.40485819999998,None,158.40485819999998,None,158.40485819999998,None,158.40485819999998,None,158.40485819999998,None,158.40485819999998,None,158.40485819999998,None,a,1,0.463733599999955,158.40485819999998,None,,,,,,,,,,,,,9,001,2022_Oct_03_1306,Flanker,2021.2.0,239.68859657528722,
incongruent-left.jpg,0,a,right_arrow.png,right_arrow.png,right_arrow.png,left_arrow.png,right_arrow.png,right_arrow.png,right_arrow.png,,,,,0,5,5,1,,,,,,,,,,,,,158.8803772,None,,,,,,,,,,,,,,,,,,,,,,,,,,,,,,159.8901674,None,159.8901674,None,159.8901674,None,159.8901674,None,159.8901674,None,159.8901674,None,159.8901674,None,a,1,0.570634699999971,159.8901674,None,,,,,,,,,,,,,9,001,2022_Oct_03_1306,Flanker,2021.2.0,239.68859657528722,
neutral left,0,a,neutral.png,neutral.png,neutral.png,left_arrow.png,neutral.png,neutral.png,neutral.png,,,,,1,0,6,4,,,,,,,,,,,,,160.47372239999999,None,,,,,,,,,,,,,,,,,,,,,,,,,,,,,,161.4831239,None,161.4831239,None,161.4831239,None,161.4831239,None,161.4831239,None,161.4831239,None,161.4831239,None,a,1,0.48188290000001643,161.4831239,None,,,,,,,,,,,,,9,001,2022_Oct_03_1306,Flanker,2021.2.0,239.68859657528722,
incongruent-right.jpg,0,k,left_arrow.png,left_arrow.png,left_arrow.png,right_arrow.png,left_arrow.png,left_arrow.png,left_arrow.png,,,,,1,1,7,3,,,,,,,,,,,,,161.98409699999996,None,,,,,,,,,,,,,,,,,,,,,,,,,,,,,,162.99320919999997,None,162.99320919999997,None,162.99320919999997,None,162.99320919999997,None,162.99320919999997,None,162.99320919999997,None,162.99320919999997,None,k,1,0.484154999999987,162.99320919999997,None,,,,,,,,,,,,,9,001,2022_Oct_03_1306,Flanker,2021.2.0,239.68859657528722,
neutral right,0,k,neutral.png,neutral.png,neutral.png,right_arrow.png,neutral.png,neutral.png,neutral.png,,,,,1,2,8,5,,,,,,,,,,,,,163.49378739999997,None,,,,,,,,,,,,,,,,,,,,,,,,,,,,,,164.5075716,None,164.5075716,None,164.5075716,None,164.5075716,None,164.5075716,None,164.5075716,None,164.5075716,None,k,1,0.4179909000000066,164.5075716,None,,,,,,,,,,,,,9,001,2022_Oct_03_1306,Flanker,2021.2.0,239.68859657528722,
congruent-right.jpg,1,k,right_arrow.png,right_arrow.png,right_arrow.png,right_arrow.png,right_arrow.png,right_arrow.png,right_arrow.png,,,,,1,3,9,2,,,,,,,,,,,,,164.9411821,None,,,,,,,,,,,,,,,,,,,,,,,,,,,,,,165.9545412,None,165.9545412,None,165.9545412,None,165.9545412,None,165.9545412,None,165.9545412,None,165.9545412,None,k,1,0.6111084000000346,165.9545412,None,,,,,,,,,,,,,9,001,2022_Oct_03_1306,Flanker,2021.2.0,239.68859657528722,
congruent-right.jpg,1,k,right_arrow.png,right_arrow.png,right_arrow.png,right_arrow.png,right_arrow.png,right_arrow.png,right_arrow.png,,,,,1,4,10,2,,,,,,,,,,,,,166.5802016,None,,,,,,,,,,,,,,,,,,,,,,,,,,,,,,167.5898148,None,167.5898148,None,167.5898148,None,167.5898148,None,167.5898148,None,167.5898148,None,167.5898148,None,k,1,0.8480746999999837,167.5898148,None,,,,,,,,,,,,,9,001,2022_Oct_03_1306,Flanker,2021.2.0,239.68859657528722,
neutral right,0,k,neutral.png,neutral.png,neutral.png,right_arrow.png,neutral.png,neutral.png,neutral.png,,,,,1,5,11,5,,,,,,,,,,,,,168.4572086,None,,,,,,,,,,,,,,,,,,,,,,,,,,,,,,169.4710283,None,169.4710283,None,169.4710283,None,169.4710283,None,169.4710283,None,169.4710283,None,169.4710283,None,k,1,0.4233772999999701,169.4710283,None,,,,,,,,,,,,,9,001,2022_Oct_03_1306,Flanker,2021.2.0,239.68859657528722,
incongruent-left.jpg,0,a,right_arrow.png,right_arrow.png,right_arrow.png,left_arrow.png,right_arrow.png,right_arrow.png,right_arrow.png,,,,,2,0,12,1,,,,,,,,,,,,,169.9132161,None,,,,,,,,,,,,,,,,,,,,,,,,,,,,,,170.92232329999996,None,170.92232329999996,None,170.92232329999996,None,170.92232329999996,None,170.92232329999996,None,170.92232329999996,None,170.92232329999996,None,a,1,0.43599629999999934,170.92232329999996,None,,,,,,,,,,,,,9,001,2022_Oct_03_1306,Flanker,2021.2.0,239.68859657528722,
congruent-right.jpg,1,k,right_arrow.png,right_arrow.png,right_arrow.png,right_arrow.png,right_arrow.png,right_arrow.png,right_arrow.png,,,,,2,1,13,2,,,,,,,,,,,,,171.3728069,None,,,,,,,,,,,,,,,,,,,,,,,,,,,,,,172.38651899999996,None,172.38651899999996,None,172.38651899999996,None,172.38651899999996,None,172.38651899999996,None,172.38651899999996,None,172.38651899999996,None,k,1,0.47603939999999056,172.38651899999996,None,,,,,,,,,,,,,9,001,2022_Oct_03_1306,Flanker,2021.2.0,239.68859657528722,
congruent-left.jpg,1,a,left_arrow.png,left_arrow.png,left_arrow.png,left_arrow.png,left_arrow.png,left_arrow.png,left_arrow.png,,,,,2,2,14,0,,,,,,,,,,,,,172.87863249999998,None,,,,,,,,,,,,,,,,,,,,,,,,,,,,,,173.8924119,None,173.8924119,None,173.8924119,None,173.8924119,None,173.8924119,None,173.8924119,None,173.8924119,None,a,1,0.4183305999999902,173.8924119,None,,,,,,,,,,,,,9,001,2022_Oct_03_1306,Flanker,2021.2.0,239.68859657528722,
neutral left,0,a,neutral.png,neutral.png,neutral.png,left_arrow.png,neutral.png,neutral.png,neutral.png,,,,,2,3,15,4,,,,,,,,,,,,,174.32597219999997,None,,,,,,,,,,,,,,,,,,,,,,,,,,,,,,175.33533699999998,None,175.33533699999998,None,175.33533699999998,None,175.33533699999998,None,175.33533699999998,None,175.33533699999998,None,175.33533699999998,None,a,1,0.5837032000000022,175.33533699999998,None,,,,,,,,,,,,,9,001,2022_Oct_03_1306,Flanker,2021.2.0,239.68859657528722,
incongruent-left.jpg,0,a,right_arrow.png,right_arrow.png,right_arrow.png,left_arrow.png,right_arrow.png,right_arrow.png,right_arrow.png,,,,,2,4,16,1,,,,,,,,,,,,,175.9359688,None,,,,,,,,,,,,,,,,,,,,,,,,,,,,,,176.94539149999997,None,176.94539149999997,None,176.94539149999997,None,176.94539149999997,None,176.94539149999997,None,176.94539149999997,None,176.94539149999997,None,a,1,0.5337571000000025,176.94539149999997,None,,,,,,,,,,,,,9,001,2022_Oct_03_1306,Flanker,2021.2.0,239.68859657528722,
congruent-left.jpg,1,a,left_arrow.png,left_arrow.png,left_arrow.png,left_arrow.png,left_arrow.png,left_arrow.png,left_arrow.png,,,,,2,5,17,0,,,,,,,,,,,,,177.49594150000001,None,,,,,,,,,,,,,,,,,,,,,,,,,,,,,,178.5098271,None,178.5098271,None,178.5098271,None,178.5098271,None,178.5098271,None,178.5098271,None,178.5098271,None,a,1,0.41752769999999373,178.5098271,None,,,,,,,,,,,,,9,001,2022_Oct_03_1306,Flanker,2021.2.0,239.68859657528722,
incongruent-right.jpg,0,k,left_arrow.png,left_arrow.png,left_arrow.png,right_arrow.png,left_arrow.png,left_arrow.png,left_arrow.png,,,,,3,0,18,3,,,,,,,,,,,,,178.94334329999998,None,,,,,,,,,,,,,,,,,,,,,,,,,,,,,,179.95704819999997,None,179.95704819999997,None,179.95704819999997,None,179.95704819999997,None,179.95704819999997,None,179.95704819999997,None,179.95704819999997,None,k,1,0.46675089999996544,179.95704819999997,None,,,,,,,,,,,,,9,001,2022_Oct_03_1306,Flanker,2021.2.0,239.68859657528722,
incongruent-left.jpg,0,a,right_arrow.png,right_arrow.png,right_arrow.png,left_arrow.png,right_arrow.png,right_arrow.png,right_arrow.png,,,,,3,1,19,1,,,,,,,,,,,,,180.44077019999997,None,,,,,,,,,,,,,,,,,,,,,,,,,,,,,,181.45434739999996,None,181.45434739999996,None,181.45434739999996,None,181.45434739999996,None,181.45434739999996,None,181.45434739999996,None,181.45434739999996,None,a,1,0.6014496999999892,181.45434739999996,None,,,,,,,,,,,,,9,001,2022_Oct_03_1306,Flanker,2021.2.0,239.68859657528722,
congruent-left.jpg,1,a,left_arrow.png,left_arrow.png,left_arrow.png,left_arrow.png,left_arrow.png,left_arrow.png,left_arrow.png,,,,,3,2,20,0,,,,,,,,,,,,,182.0716294,None,,,,,,,,,,,,,,,,,,,,,,,,,,,,,,183.0810416,None,183.0810416,None,183.0810416,None,183.0810416,None,183.0810416,None,183.0810416,None,183.0810416,None,a,1,0.6469415000000254,183.0810416,None,,,,,,,,,,,,,9,001,2022_Oct_03_1306,Flanker,2021.2.0,239.68859657528722,
incongruent-left.jpg,0,a,right_arrow.png,right_arrow.png,right_arrow.png,left_arrow.png,right_arrow.png,right_arrow.png,right_arrow.png,,,,,3,3,21,1,,,,,,,,,,,,,183.74018189999998,None,,,,,,,,,,,,,,,,,,,,,,,,,,,,,,184.7538604,None,184.7538604,None,184.7538604,None,184.7538604,None,184.7538604,None,184.7538604,None,184.7538604,None,a,1,0.4783527000000163,184.7538604,None,,,,,,,,,,,,,9,001,2022_Oct_03_1306,Flanker,2021.2.0,239.68859657528722,
congruent-right.jpg,1,k,right_arrow.png,right_arrow.png,right_arrow.png,right_arrow.png,right_arrow.png,right_arrow.png,right_arrow.png,,,,,3,4,22,2,,,,,,,,,,,,,185.24585329999996,None,,,,,,,,,,,,,,,,,,,,,,,,,,,,,,186.25942529999998,None,186.25942529999998,None,186.25942529999998,None,186.25942529999998,None,186.25942529999998,None,186.25942529999998,None,186.25942529999998,None,k,1,0.48500199999995175,186.25942529999998,None,,,,,,,,,,,,,9,001,2022_Oct_03_1306,Flanker,2021.2.0,239.68859657528722,
congruent-left.jpg,1,a,left_arrow.png,left_arrow.png,left_arrow.png,left_arrow.png,left_arrow.png,left_arrow.png,left_arrow.png,,,,,3,5,23,0,,,,,,,,,,,,,186.76003989999998,None,,,,,,,,,,,,,,,,,,,,,,,,,,,,,,187.76959389999996,None,187.76959389999996,None,187.76959389999996,None,187.76959389999996,None,187.76959389999996,None,187.76959389999996,None,187.76959389999996,None,a,1,0.4470122000000174,187.76959389999996,None,,,,,,,,,,,,,9,001,2022_Oct_03_1306,Flanker,2021.2.0,239.68859657528722,
neutral right,0,k,neutral.png,neutral.png,neutral.png,right_arrow.png,neutral.png,neutral.png,neutral.png,,,,,4,0,24,5,,,,,,,,,,,,,188.22852949999998,None,,,,,,,,,,,,,,,,,,,,,,,,,,,,,,189.23758679999997,None,189.23758679999997,None,189.23758679999997,None,189.23758679999997,None,189.23758679999997,None,189.23758679999997,None,189.23758679999997,None,k,1,0.4512141000000156,189.23758679999997,None,,,,,,,,,,,,,9,001,2022_Oct_03_1306,Flanker,2021.2.0,239.68859657528722,
neutral left,0,a,neutral.png,neutral.png,neutral.png,left_arrow.png,neutral.png,neutral.png,neutral.png,,,,,4,1,25,4,,,,,,,,,,,,,189.7047614,None,,,,,,,,,,,,,,,,,,,,,,,,,,,,,,190.7100461,None,190.7100461,None,190.7100461,None,190.7100461,None,190.7100461,None,190.7100461,None,190.7100461,None,a,1,0.34693759999998974,190.7100461,None,,,,,,,,,,,,,9,001,2022_Oct_03_1306,Flanker,2021.2.0,239.68859657528722,
congruent-right.jpg,1,k,right_arrow.png,right_arrow.png,right_arrow.png,right_arrow.png,right_arrow.png,right_arrow.png,right_arrow.png,,,,,4,2,26,2,,,,,,,,,,,,,191.06867289999997,None,,,,,,,,,,,,,,,,,,,,,,,,,,,,,,192.08230529999997,None,192.08230529999997,None,192.08230529999997,None,192.08230529999997,None,192.08230529999997,None,192.08230529999997,None,192.08230529999997,None,k,1,0.5029047999999534,192.08230529999997,None,,,,,,,,,,,,,9,001,2022_Oct_03_1306,Flanker,2021.2.0,239.68859657528722,
congruent-left.jpg,1,a,left_arrow.png,left_arrow.png,left_arrow.png,left_arrow.png,left_arrow.png,left_arrow.png,left_arrow.png,,,,,4,3,27,0,,,,,,,,,,,,,192.59948349999996,None,,,,,,,,,,,,,,,,,,,,,,,,,,,,,,193.60898600000002,None,193.60898600000002,None,193.60898600000002,None,193.60898600000002,None,193.60898600000002,None,193.60898600000002,None,193.60898600000002,None,a,1,0.31238270000000057,193.60898600000002,None,,,,,,,,,,,,,9,001,2022_Oct_03_1306,Flanker,2021.2.0,239.68859657528722,
neutral right,0,k,neutral.png,neutral.png,neutral.png,right_arrow.png,neutral.png,neutral.png,neutral.png,,,,,4,4,28,5,,,,,,,,,,,,,193.93430239999998,None,,,,,,,,,,,,,,,,,,,,,,,,,,,,,,194.9478845,None,194.9478845,None,194.9478845,None,194.9478845,None,194.9478845,None,194.9478845,None,194.9478845,None,k,1,0.37368090000001075,194.9478845,None,,,,,,,,,,,,,9,001,2022_Oct_03_1306,Flanker,2021.2.0,239.68859657528722,
congruent-left.jpg,1,a,left_arrow.png,left_arrow.png,left_arrow.png,left_arrow.png,left_arrow.png,left_arrow.png,left_arrow.png,,,,,4,5,29,0,,,,,,,,,,,,,195.3398684,None,,,,,,,,,,,,,,,,,,,,,,,,,,,,,,196.34929979999998,None,196.34929979999998,None,196.34929979999998,None,196.34929979999998,None,196.34929979999998,None,196.34929979999998,None,196.34929979999998,None,a,1,0.34845660000002,196.34929979999998,None,,,,,,,,,,,,,9,001,2022_Oct_03_1306,Flanker,2021.2.0,239.68859657528722,
neutral left,0,a,neutral.png,neutral.png,neutral.png,left_arrow.png,neutral.png,neutral.png,neutral.png,,,,,5,0,30,4,,,,,,,,,,,,,196.71636610000002,None,,,,,,,,,,,,,,,,,,,,,,,,,,,,,,197.73407809999998,None,197.73407809999998,None,197.73407809999998,None,197.73407809999998,None,197.73407809999998,None,197.73407809999998,None,197.73407809999998,None,a,1,0.37186539999999013,197.73407809999998,None,,,,,,,,,,,,,9,001,2022_Oct_03_1306,Flanker,2021.2.0,239.68859657528722,
incongruent-right.jpg,0,k,left_arrow.png,left_arrow.png,left_arrow.png,right_arrow.png,left_arrow.png,left_arrow.png,left_arrow.png,,,,,5,1,31,3,,,,,,,,,,,,,198.117813,None,,,,,,,,,,,,,,,,,,,,,,,,,,,,,,199.1313953,None,199.1313953,None,199.1313953,None,199.1313953,None,199.1313953,None,199.1313953,None,199.1313953,None,k,1,0.4707980999999677,199.1313953,None,,,,,,,,,,,,,9,001,2022_Oct_03_1306,Flanker,2021.2.0,239.68859657528722,
congruent-right.jpg,1,k,right_arrow.png,right_arrow.png,right_arrow.png,right_arrow.png,right_arrow.png,right_arrow.png,right_arrow.png,,,,,5,2,32,2,,,,,,,,,,,,,199.61530799999997,None,,,,,,,,,,,,,,,,,,,,,,,,,,,,,,200.6246934,None,200.6246934,None,200.6246934,None,200.6246934,None,200.6246934,None,200.6246934,None,200.6246934,None,k,1,0.45781399999998484,200.6246934,None,,,,,,,,,,,,,9,001,2022_Oct_03_1306,Flanker,2021.2.0,239.68859657528722,
neutral right,0,k,neutral.png,neutral.png,neutral.png,right_arrow.png,neutral.png,neutral.png,neutral.png,,,,,5,3,33,5,,,,,,,,,,,,,201.1004909,None,,,,,,,,,,,,,,,,,,,,,,,,,,,,,,202.11371409999998,None,202.11371409999998,None,202.11371409999998,None,202.11371409999998,None,202.11371409999998,None,202.11371409999998,None,202.11371409999998,None,k,1,0.46484119999996665,202.11371409999998,None,,,,,,,,,,,,,9,001,2022_Oct_03_1306,Flanker,2021.2.0,239.68859657528722,
incongruent-left.jpg,0,a,right_arrow.png,right_arrow.png,right_arrow.png,left_arrow.png,right_arrow.png,right_arrow.png,right_arrow.png,,,,,5,4,34,1,,,,,,,,,,,,,202.5976099,None,,,,,,,,,,,,,,,,,,,,,,,,,,,,,,203.61531629999996,None,203.61531629999996,None,203.61531629999996,None,203.61531629999996,None,203.61531629999996,None,203.61531629999996,None,203.61531629999996,None,a,1,0.6035064000000148,203.61531629999996,None,,,,,,,,,,,,,9,001,2022_Oct_03_1306,Flanker,2021.2.0,239.68859657528722,
neutral right,0,k,neutral.png,neutral.png,neutral.png,right_arrow.png,neutral.png,neutral.png,neutral.png,,,,,5,5,35,5,,,,,,,,,,,,,204.2326658,None,,,,,,,,,,,,,,,,,,,,,,,,,,,,,,205.2462208,None,205.2462208,None,205.2462208,None,205.2462208,None,205.2462208,None,205.2462208,None,205.2462208,None,k,1,0.42082099999998945,205.2462208,None,,,,,,,,,,,,,9,001,2022_Oct_03_1306,Flanker,2021.2.0,239.68859657528722,
incongruent-right.jpg,0,k,left_arrow.png,left_arrow.png,left_arrow.png,right_arrow.png,left_arrow.png,left_arrow.png,left_arrow.png,,,,,6,0,36,3,,,,,,,,,,,,,205.6800369,None,,,,,,,,,,,,,,,,,,,,,,,,,,,,,,206.6895078,None,206.6895078,None,206.6895078,None,206.6895078,None,206.6895078,None,206.6895078,None,206.6895078,None,k,1,0.5537085999999931,206.6895078,None,,,,,,,,,,,,,9,001,2022_Oct_03_1306,Flanker,2021.2.0,239.68859657528722,
incongruent-right.jpg,0,k,left_arrow.png,left_arrow.png,left_arrow.png,right_arrow.png,left_arrow.png,left_arrow.png,left_arrow.png,,,,,6,1,37,3,,,,,,,,,,,,,207.25671549999998,None,,,,,,,,,,,,,,,,,,,,,,,,,,,,,,208.27458839999997,None,208.27458839999997,None,208.27458839999997,None,208.27458839999997,None,208.27458839999997,None,208.27458839999997,None,208.27458839999997,None,k,1,0.5688598999999499,208.27458839999997,None,,,,,,,,,,,,,9,001,2022_Oct_03_1306,Flanker,2021.2.0,239.68859657528722,
congruent-right.jpg,1,k,right_arrow.png,right_arrow.png,right_arrow.png,right_arrow.png,right_arrow.png,right_arrow.png,right_arrow.png,,,,,6,2,38,2,,,,,,,,,,,,,208.85840409999997,None,,,,,,,,,,,,,,,,,,,,,,,,,,,,,,209.8719843,None,209.8719843,None,209.8719843,None,209.8719843,None,209.8719843,None,209.8719843,None,209.8719843,None,k,1,0.7957269000000338,209.8719843,None,,,,,,,,,,,,,9,001,2022_Oct_03_1306,Flanker,2021.2.0,239.68859657528722,
incongruent-right.jpg,0,k,left_arrow.png,left_arrow.png,left_arrow.png,right_arrow.png,left_arrow.png,left_arrow.png,left_arrow.png,,,,,6,3,39,3,,,,,,,,,,,,,210.6811437,None,,,,,,,,,,,,,,,,,,,,,,,,,,,,,,211.6947328,None,211.6947328,None,211.6947328,None,211.6947328,None,211.6947328,None,211.6947328,None,211.6947328,None,k,1,0.6851881999999705,211.6947328,None,,,,,,,,,,,,,9,001,2022_Oct_03_1306,Flanker,2021.2.0,239.68859657528722,
incongruent-right.jpg,0,k,left_arrow.png,left_arrow.png,left_arrow.png,right_arrow.png,left_arrow.png,left_arrow.png,left_arrow.png,,,,,6,4,40,3,,,,,,,,,,,,,212.3955338,None,,,,,,,,,,,,,,,,,,,,,,,,,,,,,,213.40500550000002,None,213.40500550000002,None,213.40500550000002,None,213.40500550000002,None,213.40500550000002,None,213.40500550000002,None,213.40500550000002,None,k,1,0.6071278000000007,213.40500550000002,None,,,,,,,,,,,,,9,001,2022_Oct_03_1306,Flanker,2021.2.0,239.68859657528722,
neutral right,0,k,neutral.png,neutral.png,neutral.png,right_arrow.png,neutral.png,neutral.png,neutral.png,,,,,6,5,41,5,,,,,,,,,,,,,214.0306804,None,,,,,,,,,,,,,,,,,,,,,,,,,,,,,,215.04009099999996,None,215.04009099999996,None,215.04009099999996,None,215.04009099999996,None,215.04009099999996,None,215.04009099999996,None,215.04009099999996,None,k,1,0.46824770000000626,215.04009099999996,None,,,,,,,,,,,,,9,001,2022_Oct_03_1306,Flanker,2021.2.0,239.68859657528722,
neutral right,0,k,neutral.png,neutral.png,neutral.png,right_arrow.png,neutral.png,neutral.png,neutral.png,,,,,7,0,42,5,,,,,,,,,,,,,215.5237752,None,,,,,,,,,,,,,,,,,,,,,,,,,,,,,,216.5291285,None,216.5291285,None,216.5291285,None,216.5291285,None,216.5291285,None,216.5291285,None,216.5291285,None,k,1,0.6594821999999567,216.5291285,None,,,,,,,,,,,,,9,001,2022_Oct_03_1306,Flanker,2021.2.0,239.68859657528722,
neutral left,0,a,neutral.png,neutral.png,neutral.png,left_arrow.png,neutral.png,neutral.png,neutral.png,,,,,7,1,43,4,,,,,,,,,,,,,217.20476279999997,None,,,,,,,,,,,,,,,,,,,,,,,,,,,,,,218.2100779,None,218.2100779,None,218.2100779,None,218.2100779,None,218.2100779,None,218.2100779,None,218.2100779,None,a,1,0.48285000000004175,218.2100779,None,,,,,,,,,,,,,9,001,2022_Oct_03_1306,Flanker,2021.2.0,239.68859657528722,
congruent-left.jpg,1,a,left_arrow.png,left_arrow.png,left_arrow.png,left_arrow.png,left_arrow.png,left_arrow.png,left_arrow.png,,,,,7,2,44,0,,,,,,,,,,,,,218.7105153,None,,,,,,,,,,,,,,,,,,,,,,,,,,,,,,219.7199084,None,219.7199084,None,219.7199084,None,219.7199084,None,219.7199084,None,219.7199084,None,219.7199084,None,a,1,0.46905279999998584,219.7199084,None,,,,,,,,,,,,,9,001,2022_Oct_03_1306,Flanker,2021.2.0,239.68859657528722,
neutral left,0,a,neutral.png,neutral.png,neutral.png,left_arrow.png,neutral.png,neutral.png,neutral.png,,,,,7,3,45,4,,,,,,,,,,,,,220.19974179999997,None,,,,,,,,,,,,,,,,,,,,,,,,,,,,,,221.2177041,None,221.2177041,None,221.2177041,None,221.2177041,None,221.2177041,None,221.2177041,None,221.2177041,None,a,1,0.4514667999999915,221.2177041,None,,,,,,,,,,,,,9,001,2022_Oct_03_1306,Flanker,2021.2.0,239.68859657528722,
congruent-left.jpg,1,a,left_arrow.png,left_arrow.png,left_arrow.png,left_arrow.png,left_arrow.png,left_arrow.png,left_arrow.png,,,,,7,4,46,0,,,,,,,,,,,,,221.68455289999997,None,,,,,,,,,,,,,,,,,,,,,,,,,,,,,,222.69829199999998,None,222.69829199999998,None,222.69829199999998,None,222.69829199999998,None,222.69829199999998,None,222.69829199999998,None,222.69829199999998,None,a,1,0.7071259999999597,222.69829199999998,None,,,,,,,,,,,,,9,001,2022_Oct_03_1306,Flanker,2021.2.0,239.68859657528722,
congruent-right.jpg,1,k,right_arrow.png,right_arrow.png,right_arrow.png,right_arrow.png,right_arrow.png,right_arrow.png,right_arrow.png,,,,,7,5,47,2,,,,,,,,,,,,,223.423835,None,,,,,,,,,,,,,,,,,,,,,,,,,,,,,,224.4376213,None,224.4376213,None,224.4376213,None,224.4376213,None,224.4376213,None,224.4376213,None,224.4376213,None,k,1,0.4880143999999973,224.4376213,None,,,,,,,,,,,,,9,001,2022_Oct_03_1306,Flanker,2021.2.0,239.68859657528722,
,,,,,,,,,,,,,,,,,,,,,,,,,,,,,,,,,,,,,,,,,,,,,,,,,,,,,,,,,,,,,,,,,,,,,,,,,,,,,,,,224.9504485,None,space,11.016682099999969,224.9504485,None,,,,,,,9,001,2022_Oct_03_1306,Flanker,2021.2.0,239.68859657528722,
neutral left,0,a,neutral.png,neutral.png,neutral.png,left_arrow.png,neutral.png,neutral.png,neutral.png,,,,,,,,,0,0,0,4,,,,,,,,,235.98725709999997,None,,,,,,,,,,,,,,,,,,,,,,,,,,,,,,236.99670700000001,None,236.99670700000001,None,236.99670700000001,None,236.99670700000001,None,236.99670700000001,None,236.99670700000001,None,236.99670700000001,None,a,1,0.506627500000036,236.99670700000001,None,,,,,,,,,,,,,9,001,2022_Oct_03_1306,Flanker,2021.2.0,239.68859657528722,
incongruent-left.jpg,0,a,right_arrow.png,right_arrow.png,right_arrow.png,left_arrow.png,right_arrow.png,right_arrow.png,right_arrow.png,,,,,,,,,0,1,1,1,,,,,,,,,237.522218,None,,,,,,,,,,,,,,,,,,,,,,,,,,,,,,238.5398723,None,238.5398723,None,238.5398723,None,238.5398723,None,238.5398723,None,238.5398723,None,238.5398723,None,a,1,0.4756810000000087,238.5398723,None,,,,,,,,,,,,,9,001,2022_Oct_03_1306,Flanker,2021.2.0,239.68859657528722,
congruent-right.jpg,1,k,right_arrow.png,right_arrow.png,right_arrow.png,right_arrow.png,right_arrow.png,right_arrow.png,right_arrow.png,,,,,,,,,0,2,2,2,,,,,,,,,239.0323285,None,,,,,,,,,,,,,,,,,,,,,,,,,,,,,,240.0416249,None,240.0416249,None,240.0416249,None,240.0416249,None,240.0416249,None,240.0416249,None,240.0416249,None,k,1,0.5341470000000186,240.0416249,None,,,,,,,,,,,,,9,001,2022_Oct_03_1306,Flanker,2021.2.0,239.68859657528722,
incongruent-right.jpg,0,k,left_arrow.png,left_arrow.png,left_arrow.png,right_arrow.png,left_arrow.png,left_arrow.png,left_arrow.png,,,,,,,,,0,3,3,3,,,,,,,,,240.5920756,None,,,,,,,,,,,,,,,,,,,,,,,,,,,,,,241.6056547,None,241.6056547,None,241.6056547,None,241.6056547,None,241.6056547,None,241.6056547,None,241.6056547,None,k,1,0.490333000000021,241.6056547,None,,,,,,,,,,,,,9,001,2022_Oct_03_1306,Flanker,2021.2.0,239.68859657528722,
neutral left,0,a,neutral.png,neutral.png,neutral.png,left_arrow.png,neutral.png,neutral.png,neutral.png,,,,,,,,,0,4,4,4,,,,,,,,,242.11450739999998,None,,,,,,,,,,,,,,,,,,,,,,,,,,,,,,243.12808330000001,None,243.12808330000001,None,243.12808330000001,None,243.12808330000001,None,243.12808330000001,None,243.12808330000001,None,243.12808330000001,None,a,1,0.38422389999999496,243.12808330000001,None,,,,,,,,,,,,,9,001,2022_Oct_03_1306,Flanker,2021.2.0,239.68859657528722,
congruent-right.jpg,1,k,right_arrow.png,right_arrow.png,right_arrow.png,right_arrow.png,right_arrow.png,right_arrow.png,right_arrow.png,,,,,,,,,0,5,5,2,,,,,,,,,243.52858169999996,None,,,,,,,,,,,,,,,,,,,,,,,,,,,,,,244.54206,None,244.54206,None,244.54206,None,244.54206,None,244.54206,None,244.54206,None,244.54206,None,k,1,0.7783665000000042,244.54206,None,,,,,,,,,,,,,9,001,2022_Oct_03_1306,Flanker,2021.2.0,239.68859657528722,
neutral left,0,a,neutral.png,neutral.png,neutral.png,left_arrow.png,neutral.png,neutral.png,neutral.png,,,,,,,,,1,0,6,4,,,,,,,,,245.3345736,None,,,,,,,,,,,,,,,,,,,,,,,,,,,,,,246.3481635,None,246.3481635,None,246.3481635,None,246.3481635,None,246.3481635,None,246.3481635,None,246.3481635,None,a,1,0.4444397000000322,246.3481635,None,,,,,,,,,,,,,9,001,2022_Oct_03_1306,Flanker,2021.2.0,239.68859657528722,
neutral left,0,a,neutral.png,neutral.png,neutral.png,left_arrow.png,neutral.png,neutral.png,neutral.png,,,,,,,,,1,1,7,4,,,,,,,,,246.80707710000001,None,,,,,,,,,,,,,,,,,,,,,,,,,,,,,,247.8205511,None,247.8205511,None,247.8205511,None,247.8205511,None,247.8205511,None,247.8205511,None,247.8205511,None,k,0,0.37222029999998085,247.8205511,None,,,,,,,,,,,,,9,001,2022_Oct_03_1306,Flanker,2021.2.0,239.68859657528722,
neutral left,0,a,neutral.png,neutral.png,neutral.png,left_arrow.png,neutral.png,neutral.png,neutral.png,,,,,,,,,1,2,8,4,,,,,,,,,248.2043567,None,,,,,,,,,,,,,,,,,,,,,,,,,,,,,,249.22218679999997,None,249.22218679999997,None,249.22218679999997,None,249.22218679999997,None,249.22218679999997,None,249.22218679999997,None,249.22218679999997,None,a,1,0.49896830000000136,249.22218679999997,None,,,,,,,,,,,,,9,001,2022_Oct_03_1306,Flanker,2021.2.0,239.68859657528722,
neutral right,0,k,neutral.png,neutral.png,neutral.png,right_arrow.png,neutral.png,neutral.png,neutral.png,,,,,,,,,1,3,9,5,,,,,,,,,249.73934079999998,None,,,,,,,,,,,,,,,,,,,,,,,,,,,,,,250.74449269999997,None,250.74449269999997,None,250.74449269999997,None,250.74449269999997,None,250.74449269999997,None,250.74449269999997,None,250.74449269999997,None,k,1,0.528722700000003,250.74449269999997,None,,,,,,,,,,,,,9,001,2022_Oct_03_1306,Flanker,2021.2.0,239.68859657528722,
incongruent-right.jpg,0,k,left_arrow.png,left_arrow.png,left_arrow.png,right_arrow.png,left_arrow.png,left_arrow.png,left_arrow.png,,,,,,,,,1,4,10,3,,,,,,,,,251.2867514,None,,,,,,,,,,,,,,,,,,,,,,,,,,,,,,252.2963491,None,252.2963491,None,252.2963491,None,252.2963491,None,252.2963491,None,252.2963491,None,252.2963491,None,k,1,0.4970730000000003,252.2963491,None,,,,,,,,,,,,,9,001,2022_Oct_03_1306,Flanker,2021.2.0,239.68859657528722,
congruent-right.jpg,1,k,right_arrow.png,right_arrow.png,right_arrow.png,right_arrow.png,right_arrow.png,right_arrow.png,right_arrow.png,,,,,,,,,1,5,11,2,,,,,,,,,252.8053188,None,,,,,,,,,,,,,,,,,,,,,,,,,,,,,,253.81442779999998,None,253.81442779999998,None,253.81442779999998,None,253.81442779999998,None,253.81442779999998,None,253.81442779999998,None,253.81442779999998,None,k,1,0.45122559999998657,253.81442779999998,None,,,,,,,,,,,,,9,001,2022_Oct_03_1306,Flanker,2021.2.0,239.68859657528722,
neutral left,0,a,neutral.png,neutral.png,neutral.png,left_arrow.png,neutral.png,neutral.png,neutral.png,,,,,,,,,2,0,12,4,,,,,,,,,254.28167889999997,None,,,,,,,,,,,,,,,,,,,,,,,,,,,,,,255.29528499999998,None,255.29528499999998,None,255.29528499999998,None,255.29528499999998,None,255.29528499999998,None,255.29528499999998,None,255.29528499999998,None,a,1,0.3945246000000111,255.29528499999998,None,,,,,,,,,,,,,9,001,2022_Oct_03_1306,Flanker,2021.2.0,239.68859657528722,
incongruent-right.jpg,0,k,left_arrow.png,left_arrow.png,left_arrow.png,right_arrow.png,left_arrow.png,left_arrow.png,left_arrow.png,,,,,,,,,2,1,13,3,,,,,,,,,255.7039138,None,,,,,,,,,,,,,,,,,,,,,,,,,,,,,,256.7135156,None,256.7135156,None,256.7135156,None,256.7135156,None,256.7135156,None,256.7135156,None,256.7135156,None,k,1,0.4565254999999979,256.7135156,None,,,,,,,,,,,,,9,001,2022_Oct_03_1306,Flanker,2021.2.0,239.68859657528722,
neutral right,0,k,neutral.png,neutral.png,neutral.png,right_arrow.png,neutral.png,neutral.png,neutral.png,,,,,,,,,2,2,14,5,,,,,,,,,257.1806146,None,,,,,,,,,,,,,,,,,,,,,,,,,,,,,,258.194183,None,258.194183,None,258.194183,None,258.194183,None,258.194183,None,258.194183,None,258.194183,None,k,1,0.42402179999999134,258.194183,None,,,,,,,,,,,,,9,001,2022_Oct_03_1306,Flanker,2021.2.0,239.68859657528722,
incongruent-left.jpg,0,a,right_arrow.png,right_arrow.png,right_arrow.png,left_arrow.png,right_arrow.png,right_arrow.png,right_arrow.png,,,,,,,,,2,3,15,1,,,,,,,,,258.6362707,None,,,,,,,,,,,,,,,,,,,,,,,,,,,,,,259.64560339999997,None,259.64560339999997,None,259.64560339999997,None,259.64560339999997,None,259.64560339999997,None,259.64560339999997,None,259.64560339999997,None,a,1,0.44486690000002227,259.64560339999997,None,,,,,,,,,,,,,9,001,2022_Oct_03_1306,Flanker,2021.2.0,239.68859657528722,
neutral right,0,k,neutral.png,neutral.png,neutral.png,right_arrow.png,neutral.png,neutral.png,neutral.png,,,,,,,,,2,4,16,5,,,,,,,,,260.1085965,None,,,,,,,,,,,,,,,,,,,,,,,,,,,,,,261.11798239999996,None,261.11798239999996,None,261.11798239999996,None,261.11798239999996,None,261.11798239999996,None,261.11798239999996,None,261.11798239999996,None,k,1,0.40463670000002594,261.11798239999996,None,,,,,,,,,,,,,9,001,2022_Oct_03_1306,Flanker,2021.2.0,239.68859657528722,
neutral right,0,k,neutral.png,neutral.png,neutral.png,right_arrow.png,neutral.png,neutral.png,neutral.png,,,,,,,,,2,5,17,5,,,,,,,,,261.5350982,None,,,,,,,,,,,,,,,,,,,,,,,,,,,,,,262.5488076,None,262.5488076,None,262.5488076,None,262.5488076,None,262.5488076,None,262.5488076,None,262.5488076,None,k,1,0.42999660000003814,262.5488076,None,,,,,,,,,,,,,9,001,2022_Oct_03_1306,Flanker,2021.2.0,239.68859657528722,
incongruent-right.jpg,0,k,left_arrow.png,left_arrow.png,left_arrow.png,right_arrow.png,left_arrow.png,left_arrow.png,left_arrow.png,,,,,,,,,3,0,18,3,,,,,,,,,262.9909541,None,,,,,,,,,,,,,,,,,,,,,,,,,,,,,,264.0085123,None,264.0085123,None,264.0085123,None,264.0085123,None,264.0085123,None,264.0085123,None,264.0085123,None,k,1,0.5466677000000004,264.0085123,None,,,,,,,,,,,,,9,001,2022_Oct_03_1306,Flanker,2021.2.0,239.68859657528722,
incongruent-right.jpg,0,k,left_arrow.png,left_arrow.png,left_arrow.png,right_arrow.png,left_arrow.png,left_arrow.png,left_arrow.png,,,,,,,,,3,1,19,3,,,,,,,,,264.57178619999996,None,,,,,,,,,,,,,,,,,,,,,,,,,,,,,,265.5852188,None,265.5852188,None,265.5852188,None,265.5852188,None,265.5852188,None,265.5852188,None,265.5852188,None,k,1,0.554181299999982,265.5852188,None,,,,,,,,,,,,,9,001,2022_Oct_03_1306,Flanker,2021.2.0,239.68859657528722,
congruent-left.jpg,1,a,left_arrow.png,left_arrow.png,left_arrow.png,left_arrow.png,left_arrow.png,left_arrow.png,left_arrow.png,,,,,,,,,3,2,20,0,,,,,,,,,266.15265569999997,None,,,,,,,,,,,,,,,,,,,,,,,,,,,,,,267.1619986,None,267.1619986,None,267.1619986,None,267.1619986,None,267.1619986,None,267.1619986,None,267.1619986,None,a,1,0.44947030000002997,267.1619986,None,,,,,,,,,,,,,9,001,2022_Oct_03_1306,Flanker,2021.2.0,239.68859657528722,
incongruent-left.jpg,0,a,right_arrow.png,right_arrow.png,right_arrow.png,left_arrow.png,right_arrow.png,right_arrow.png,right_arrow.png,,,,,,,,,3,3,21,1,,,,,,,,,267.629587,None,,,,,,,,,,,,,,,,,,,,,,,,,,,,,,268.6343351,None,268.6343351,None,268.6343351,None,268.6343351,None,268.6343351,None,268.6343351,None,268.6343351,None,a,1,0.4093427000000247,268.6343351,None,,,,,,,,,,,,,9,001,2022_Oct_03_1306,Flanker,2021.2.0,239.68859657528722,
congruent-right.jpg,1,k,right_arrow.png,right_arrow.png,right_arrow.png,right_arrow.png,right_arrow.png,right_arrow.png,right_arrow.png,,,,,,,,,3,4,22,2,,,,,,,,,269.059981,None,,,,,,,,,,,,,,,,,,,,,,,,,,,,,,270.0734672,None,270.0734672,None,270.0734672,None,270.0734672,None,270.0734672,None,270.0734672,None,270.0734672,None,k,1,0.41836870000003046,270.0734672,None,,,,,,,,,,,,,9,001,2022_Oct_03_1306,Flanker,2021.2.0,239.68859657528722,
neutral right,0,k,neutral.png,neutral.png,neutral.png,right_arrow.png,neutral.png,neutral.png,neutral.png,,,,,,,,,3,5,23,5,,,,,,,,,270.5073403,None,,,,,,,,,,,,,,,,,,,,,,,,,,,,,,271.51652659999996,None,271.51652659999996,None,271.51652659999996,None,271.51652659999996,None,271.51652659999996,None,271.51652659999996,None,271.51652659999996,None,k,1,0.3834742000000233,271.51652659999996,None,,,,,,,,,,,,,9,001,2022_Oct_03_1306,Flanker,2021.2.0,239.68859657528722,
incongruent-left.jpg,0,a,right_arrow.png,right_arrow.png,right_arrow.png,left_arrow.png,right_arrow.png,right_arrow.png,right_arrow.png,,,,,,,,,4,0,24,1,,,,,,,,,271.9169556,None,,,,,,,,,,,,,,,,,,,,,,,,,,,,,,272.9265008,None,272.9265008,None,272.9265008,None,272.9265008,None,272.9265008,None,272.9265008,None,272.9265008,None,a,1,0.3900830999999698,272.9265008,None,,,,,,,,,,,,,9,001,2022_Oct_03_1306,Flanker,2021.2.0,239.68859657528722,
congruent-right.jpg,1,k,right_arrow.png,right_arrow.png,right_arrow.png,right_arrow.png,right_arrow.png,right_arrow.png,right_arrow.png,,,,,,,,,4,1,25,2,,,,,,,,,273.3352513,None,,,,,,,,,,,,,,,,,,,,,,,,,,,,,,274.3530134,None,274.3530134,None,274.3530134,None,274.3530134,None,274.3530134,None,274.3530134,None,274.3530134,None,k,1,0.42747429999997166,274.3530134,None,,,,,,,,,,,,,9,001,2022_Oct_03_1306,Flanker,2021.2.0,239.68859657528722,
neutral right,0,k,neutral.png,neutral.png,neutral.png,right_arrow.png,neutral.png,neutral.png,neutral.png,,,,,,,,,4,2,26,5,,,,,,,,,274.7949825,None,,,,,,,,,,,,,,,,,,,,,,,,,,,,,,275.8087069,None,275.8087069,None,275.8087069,None,275.8087069,None,275.8087069,None,275.8087069,None,275.8087069,None,k,1,0.4759396000000038,275.8087069,None,,,,,,,,,,,,,9,001,2022_Oct_03_1306,Flanker,2021.2.0,239.68859657528722,
congruent-left.jpg,1,a,left_arrow.png,left_arrow.png,left_arrow.png,left_arrow.png,left_arrow.png,left_arrow.png,left_arrow.png,,,,,,,,,4,3,27,0,,,,,,,,,276.3007766,None,,,,,,,,,,,,,,,,,,,,,,,,,,,,,,277.3184926,None,277.3184926,None,277.3184926,None,277.3184926,None,277.3184926,None,277.3184926,None,277.3184926,None,a,1,0.44648580000000493,277.3184926,None,,,,,,,,,,,,,9,001,2022_Oct_03_1306,Flanker,2021.2.0,239.68859657528722,
congruent-left.jpg,1,a,left_arrow.png,left_arrow.png,left_arrow.png,left_arrow.png,left_arrow.png,left_arrow.png,left_arrow.png,,,,,,,,,4,4,28,0,,,,,,,,,277.7816547,None,,,,,,,,,,,,,,,,,,,,,,,,,,,,,,278.79105369999996,None,278.79105369999996,None,278.79105369999996,None,278.79105369999996,None,278.79105369999996,None,278.79105369999996,None,278.79105369999996,None,a,1,0.4781250000000341,278.79105369999996,None,,,,,,,,,,,,,9,001,2022_Oct_03_1306,Flanker,2021.2.0,239.68859657528722,
congruent-left.jpg,1,a,left_arrow.png,left_arrow.png,left_arrow.png,left_arrow.png,left_arrow.png,left_arrow.png,left_arrow.png,,,,,,,,,4,5,29,0,,,,,,,,,279.2832999,None,,,,,,,,,,,,,,,,,,,,,,,,,,,,,,280.29689759999997,None,280.29689759999997,None,280.29689759999997,None,280.29689759999997,None,280.29689759999997,None,280.29689759999997,None,280.29689759999997,None,a,1,0.44435800000002246,280.29689759999997,None,,,,,,,,,,,,,9,001,2022_Oct_03_1306,Flanker,2021.2.0,239.68859657528722,
congruent-left.jpg,1,a,left_arrow.png,left_arrow.png,left_arrow.png,left_arrow.png,left_arrow.png,left_arrow.png,left_arrow.png,,,,,,,,,5,0,30,0,,,,,,,,,280.7557237,None,,,,,,,,,,,,,,,,,,,,,,,,,,,,,,281.7650312,None,281.7650312,None,281.7650312,None,281.7650312,None,281.7650312,None,281.7650312,None,281.7650312,None,a,1,0.38442350000002534,281.7650312,None,,,,,,,,,,,,,9,001,2022_Oct_03_1306,Flanker,2021.2.0,239.68859657528722,
congruent-left.jpg,1,a,left_arrow.png,left_arrow.png,left_arrow.png,left_arrow.png,left_arrow.png,left_arrow.png,left_arrow.png,,,,,,,,,5,1,31,0,,,,,,,,,282.1655935,None,,,,,,,,,,,,,,,,,,,,,,,,,,,,,,283.1749449,None,283.1749449,None,283.1749449,None,283.1749449,None,283.1749449,None,283.1749449,None,283.1749449,None,a,1,0.4068923000000382,283.1749449,None,,,,,,,,,,,,,9,001,2022_Oct_03_1306,Flanker,2021.2.0,239.68859657528722,
incongruent-right.jpg,0,k,left_arrow.png,left_arrow.png,left_arrow.png,right_arrow.png,left_arrow.png,left_arrow.png,left_arrow.png,,,,,,,,,5,2,32,3,,,,,,,,,283.6003397,None,,,,,,,,,,,,,,,,,,,,,,,,,,,,,,284.60972979999997,None,284.60972979999997,None,284.60972979999997,None,284.60972979999997,None,284.60972979999997,None,284.60972979999997,None,284.60972979999997,None,k,1,0.46825430000001234,284.60972979999997,None,,,,,,,,,,,,,9,001,2022_Oct_03_1306,Flanker,2021.2.0,239.68859657528722,
incongruent-right.jpg,0,k,left_arrow.png,left_arrow.png,left_arrow.png,right_arrow.png,left_arrow.png,left_arrow.png,left_arrow.png,,,,,,,,,5,3,33,3,,,,,,,,,285.0935709,None,,,,,,,,,,,,,,,,,,,,,,,,,,,,,,286.1070424,None,286.1070424,None,286.1070424,None,286.1070424,None,286.1070424,None,286.1070424,None,286.1070424,None,k,1,0.5230177000000253,286.1070424,None,,,,,,,,,,,,,9,001,2022_Oct_03_1306,Flanker,2021.2.0,239.68859657528722,
congruent-right.jpg,1,k,right_arrow.png,right_arrow.png,right_arrow.png,right_arrow.png,right_arrow.png,right_arrow.png,right_arrow.png,,,,,,,,,5,4,34,2,,,,,,,,,286.64937729999997,None,,,,,,,,,,,,,,,,,,,,,,,,,,,,,,287.6671768,None,287.6671768,None,287.6671768,None,287.6671768,None,287.6671768,None,287.6671768,None,287.6671768,None,k,1,0.39532849999994824,287.6671768,None,,,,,,,,,,,,,9,001,2022_Oct_03_1306,Flanker,2021.2.0,239.68859657528722,
neutral left,0,a,neutral.png,neutral.png,neutral.png,left_arrow.png,neutral.png,neutral.png,neutral.png,,,,,,,,,5,5,35,4,,,,,,,,,288.0759827,None,,,,,,,,,,,,,,,,,,,,,,,,,,,,,,289.089476,None,289.089476,None,289.089476,None,289.089476,None,289.089476,None,289.089476,None,289.089476,None,a,1,0.40494580000000724,289.089476,None,,,,,,,,,,,,,9,001,2022_Oct_03_1306,Flanker,2021.2.0,239.68859657528722,
incongruent-left.jpg,0,a,right_arrow.png,right_arrow.png,right_arrow.png,left_arrow.png,right_arrow.png,right_arrow.png,right_arrow.png,,,,,,,,,6,0,36,1,,,,,,,,,289.5066493,None,,,,,,,,,,,,,,,,,,,,,,,,,,,,,,290.5159819,None,290.5159819,None,290.5159819,None,290.5159819,None,290.5159819,None,290.5159819,None,290.5159819,None,a,1,0.4748580000000402,290.5159819,None,,,,,,,,,,,,,9,001,2022_Oct_03_1306,Flanker,2021.2.0,239.68859657528722,
neutral left,0,a,neutral.png,neutral.png,neutral.png,left_arrow.png,neutral.png,neutral.png,neutral.png,,,,,,,,,6,1,37,4,,,,,,,,,291.0082772,None,,,,,,,,,,,,,,,,,,,,,,,,,,,,,,292.021906,None,292.021906,None,292.021906,None,292.021906,None,292.021906,None,292.021906,None,292.021906,None,a,1,0.369084799999996,292.021906,None,,,,,,,,,,,,,9,001,2022_Oct_03_1306,Flanker,2021.2.0,239.68859657528722,
neutral right,0,k,neutral.png,neutral.png,neutral.png,right_arrow.png,neutral.png,neutral.png,neutral.png,,,,,,,,,6,2,38,5,,,,,,,,,292.40549269999997,None,,,,,,,,,,,,,,,,,,,,,,,,,,,,,,293.4151156,None,293.4151156,None,293.4151156,None,293.4151156,None,293.4151156,None,293.4151156,None,293.4151156,None,k,1,0.4081191000000217,293.4151156,None,,,,,,,,,,,,,9,001,2022_Oct_03_1306,Flanker,2021.2.0,239.68859657528722,
incongruent-right.jpg,0,k,left_arrow.png,left_arrow.png,left_arrow.png,right_arrow.png,left_arrow.png,left_arrow.png,left_arrow.png,,,,,,,,,6,3,39,3,,,,,,,,,293.8404114,None,,,,,,,,,,,,,,,,,,,,,,,,,,,,,,294.8497422,None,294.8497422,None,294.8497422,None,294.8497422,None,294.8497422,None,294.8497422,None,294.8497422,None,k,1,0.4936407999999801,294.8497422,None,,,,,,,,,,,,,9,001,2022_Oct_03_1306,Flanker,2021.2.0,239.68859657528722,
incongruent-left.jpg,0,a,right_arrow.png,right_arrow.png,right_arrow.png,left_arrow.png,right_arrow.png,right_arrow.png,right_arrow.png,,,,,,,,,6,4,40,1,,,,,,,,,295.3586156,None,,,,,,,,,,,,,,,,,,,,,,,,,,,,,,296.36802209999996,None,296.36802209999996,None,296.36802209999996,None,296.36802209999996,None,296.36802209999996,None,296.36802209999996,None,296.36802209999996,None,a,1,0.5435687999999459,296.36802209999996,None,,,,,,,,,,,,,9,001,2022_Oct_03_1306,Flanker,2021.2.0,239.68859657528722,
congruent-right.jpg,1,k,right_arrow.png,right_arrow.png,right_arrow.png,right_arrow.png,right_arrow.png,right_arrow.png,right_arrow.png,,,,,,,,,6,5,41,2,,,,,,,,,296.9269321,None,,,,,,,,,,,,,,,,,,,,,,,,,,,,,,297.9405127,None,297.9405127,None,297.9405127,None,297.9405127,None,297.9405127,None,297.9405127,None,297.9405127,None,k,1,0.4592729000000304,297.9405127,None,,,,,,,,,,,,,9,001,2022_Oct_03_1306,Flanker,2021.2.0,239.68859657528722,
congruent-left.jpg,1,a,left_arrow.png,left_arrow.png,left_arrow.png,left_arrow.png,left_arrow.png,left_arrow.png,left_arrow.png,,,,,,,,,7,0,42,0,,,,,,,,,298.4160329,None,,,,,,,,,,,,,,,,,,,,,,,,,,,,,,299.4211871,None,299.4211871,None,299.4211871,None,299.4211871,None,299.4211871,None,299.4211871,None,299.4211871,None,a,1,0.6588004999999839,299.4211871,None,,,,,,,,,,,,,9,001,2022_Oct_03_1306,Flanker,2021.2.0,239.68859657528722,
congruent-right.jpg,1,k,right_arrow.png,right_arrow.png,right_arrow.png,right_arrow.png,right_arrow.png,right_arrow.png,right_arrow.png,,,,,,,,,7,1,43,2,,,,,,,,,300.09685079999997,None,,,,,,,,,,,,,,,,,,,,,,,,,,,,,,301.1106059,None,301.1106059,None,301.1106059,None,301.1106059,None,301.1106059,None,301.1106059,None,301.1106059,None,k,1,0.39375630000000683,301.1106059,None,,,,,,,,,,,,,9,001,2022_Oct_03_1306,Flanker,2021.2.0,239.68859657528722,
incongruent-left.jpg,0,a,right_arrow.png,right_arrow.png,right_arrow.png,left_arrow.png,right_arrow.png,right_arrow.png,right_arrow.png,,,,,,,,,7,2,44,1,,,,,,,,,301.5193225,None,,,,,,,,,,,,,,,,,,,,,,,,,,,,,,302.5329832,None,302.5329832,None,302.5329832,None,302.5329832,None,302.5329832,None,302.5329832,None,302.5329832,None,a,1,0.4114311000000157,302.5329832,None,,,,,,,,,,,,,9,001,2022_Oct_03_1306,Flanker,2021.2.0,239.68859657528722,
congruent-left.jpg,1,a,left_arrow.png,left_arrow.png,left_arrow.png,left_arrow.png,left_arrow.png,left_arrow.png,left_arrow.png,,,,,,,,,7,3,45,0,,,,,,,,,302.95840649999997,None,,,,,,,,,,,,,,,,,,,,,,,,,,,,,,303.9677703,None,303.9677703,None,303.9677703,None,303.9677703,None,303.9677703,None,303.9677703,None,303.9677703,None,a,1,0.4088378000000148,303.9677703,None,,,,,,,,,,,,,9,001,2022_Oct_03_1306,Flanker,2021.2.0,239.68859657528722,
incongruent-left.jpg,0,a,right_arrow.png,right_arrow.png,right_arrow.png,left_arrow.png,right_arrow.png,right_arrow.png,right_arrow.png,,,,,,,,,7,4,46,1,,,,,,,,,304.3932673,None,,,,,,,,,,,,,,,,,,,,,,,,,,,,,,305.4025827,None,305.4025827,None,305.4025827,None,305.4025827,None,305.4025827,None,305.4025827,None,305.4025827,None,a,1,0.5024192999999855,305.4025827,None,,,,,,,,,,,,,9,001,2022_Oct_03_1306,Flanker,2021.2.0,239.68859657528722,
neutral right,0,k,neutral.png,neutral.png,neutral.png,right_arrow.png,neutral.png,neutral.png,neutral.png,,,,,,,,,7,5,47,5,,,,,,,,,305.9196802,None,,,,,,,,,,,,,,,,,,,,,,,,,,,,,,306.9334027,None,306.9334027,None,306.9334027,None,306.9334027,None,306.9334027,None,306.9334027,None,306.9334027,None,k,1,0.6114914999999996,306.9334027,None,,,,,,,,,,,,,9,001,2022_Oct_03_1306,Flanker,2021.2.0,239.68859657528722,
,,,,,,,,,,,,,,,,,,,,,,,,,,,,,,,,,,,,,,,,,,,,,,,,,,,,,,,,,,,,,,,,,,,,,,,,,,,,,,,,307.5714508,None,space,8.726669700000002,307.5714508,None,,,,,,,9,001,2022_Oct_03_1306,Flanker,2021.2.0,239.68859657528722,
neutral right,0,k,neutral.png,neutral.png,neutral.png,right_arrow.png,neutral.png,neutral.png,neutral.png,,,,,,,,,,,,,0,0,0,5,,,,,316.3224452,None,,,,,,,,,,,,,,,,,,,,,,,,,,,,,,317.32771419999995,None,317.32771419999995,None,317.32771419999995,None,317.32771419999995,None,317.32771419999995,None,317.32771419999995,None,317.32771419999995,None,k,1,0.7146053999999822,317.32771419999995,None,,,,,,,,,,,,,9,001,2022_Oct_03_1306,Flanker,2021.2.0,239.68859657528722,
congruent-left.jpg,1,a,left_arrow.png,left_arrow.png,left_arrow.png,left_arrow.png,left_arrow.png,left_arrow.png,left_arrow.png,,,,,,,,,,,,,0,1,1,0,,,,,318.05341969999995,None,,,,,,,,,,,,,,,,,,,,,,,,,,,,,,319.07112259999997,None,319.07112259999997,None,319.07112259999997,None,319.07112259999997,None,319.07112259999997,None,319.07112259999997,None,319.07112259999997,None,a,1,0.42739829999993617,319.07112259999997,None,,,,,,,,,,,,,9,001,2022_Oct_03_1306,Flanker,2021.2.0,239.68859657528722,
incongruent-right.jpg,0,k,left_arrow.png,left_arrow.png,left_arrow.png,right_arrow.png,left_arrow.png,left_arrow.png,left_arrow.png,,,,,,,,,,,,,0,2,2,3,,,,,319.5085017,None,,,,,,,,,,,,,,,,,,,,,,,,,,,,,,320.5137466,None,320.5137466,None,320.5137466,None,320.5137466,None,320.5137466,None,320.5137466,None,320.5137466,None,k,1,0.5849981000000071,320.5137466,None,,,,,,,,,,,,,9,001,2022_Oct_03_1306,Flanker,2021.2.0,239.68859657528722,
neutral right,0,k,neutral.png,neutral.png,neutral.png,right_arrow.png,neutral.png,neutral.png,neutral.png,,,,,,,,,,,,,0,3,3,5,,,,,321.10602240000003,None,,,,,,,,,,,,,,,,,,,,,,,,,,,,,,322.1155404,None,322.1155404,None,322.1155404,None,322.1155404,None,322.1155404,None,322.1155404,None,322.1155404,None,k,1,0.4314051000000063,322.1155404,None,,,,,,,,,,,,,9,001,2022_Oct_03_1306,Flanker,2021.2.0,239.68859657528722,
neutral right,0,k,neutral.png,neutral.png,neutral.png,right_arrow.png,neutral.png,neutral.png,neutral.png,,,,,,,,,,,,,0,4,4,5,,,,,322.56186849999995,None,,,,,,,,,,,,,,,,,,,,,,,,,,,,,,323.56710269999996,None,323.56710269999996,None,323.56710269999996,None,323.56710269999996,None,323.56710269999996,None,323.56710269999996,None,323.56710269999996,None,k,1,0.38006159999997635,323.56710269999996,None,,,,,,,,,,,,,9,001,2022_Oct_03_1306,Flanker,2021.2.0,239.68859657528722,
congruent-right.jpg,1,k,right_arrow.png,right_arrow.png,right_arrow.png,right_arrow.png,right_arrow.png,right_arrow.png,right_arrow.png,,,,,,,,,,,,,0,5,5,2,,,,,323.96335509999994,None,,,,,,,,,,,,,,,,,,,,,,,,,,,,,,324.9727478,None,324.9727478,None,324.9727478,None,324.9727478,None,324.9727478,None,324.9727478,None,324.9727478,None,k,1,0.4225813000000471,324.9727478,None,,,,,,,,,,,,,9,001,2022_Oct_03_1306,Flanker,2021.2.0,239.68859657528722,
neutral left,0,a,neutral.png,neutral.png,neutral.png,left_arrow.png,neutral.png,neutral.png,neutral.png,,,,,,,,,,,,,1,0,6,4,,,,,325.41071220000003,None,,,,,,,,,,,,,,,,,,,,,,,,,,,,,,326.42015219999996,None,326.42015219999996,None,326.42015219999996,None,326.42015219999996,None,326.42015219999996,None,326.42015219999996,None,326.42015219999996,None,a,1,0.34339330000000245,326.42015219999996,None,,,,,,,,,,,,,9,001,2022_Oct_03_1306,Flanker,2021.2.0,239.68859657528722,
congruent-right.jpg,1,k,right_arrow.png,right_arrow.png,right_arrow.png,right_arrow.png,right_arrow.png,right_arrow.png,right_arrow.png,,,,,,,,,,,,,1,1,7,2,,,,,326.78302599999995,None,,,,,,,,,,,,,,,,,,,,,,,,,,,,,,327.7924058,None,327.7924058,None,327.7924058,None,327.7924058,None,327.7924058,None,327.7924058,None,327.7924058,None,k,1,0.4273296000000073,327.7924058,None,,,,,,,,,,,,,9,001,2022_Oct_03_1306,Flanker,2021.2.0,239.68859657528722,
neutral right,0,k,neutral.png,neutral.png,neutral.png,right_arrow.png,neutral.png,neutral.png,neutral.png,,,,,,,,,,,,,1,2,8,5,,,,,328.2303719,None,,,,,,,,,,,,,,,,,,,,,,,,,,,,,,329.23981000000003,None,329.23981000000003,None,329.23981000000003,None,329.23981000000003,None,329.23981000000003,None,329.23981000000003,None,329.23981000000003,None,a,0,0.4041012000000137,329.23981000000003,None,,,,,,,,,,,,,9,001,2022_Oct_03_1306,Flanker,2021.2.0,239.68859657528722,
congruent-right.jpg,1,k,right_arrow.png,right_arrow.png,right_arrow.png,right_arrow.png,right_arrow.png,right_arrow.png,right_arrow.png,,,,,,,,,,,,,1,3,9,2,,,,,329.6610806,None,,,,,,,,,,,,,,,,,,,,,,,,,,,,,,330.67090199999996,None,330.67090199999996,None,330.67090199999996,None,330.67090199999996,None,330.67090199999996,None,330.67090199999996,None,330.67090199999996,None,k,1,0.5173715999999331,330.67090199999996,None,,,,,,,,,,,,,9,001,2022_Oct_03_1306,Flanker,2021.2.0,239.68859657528722,
neutral right,0,k,neutral.png,neutral.png,neutral.png,right_arrow.png,neutral.png,neutral.png,neutral.png,,,,,,,,,,,,,1,4,10,5,,,,,331.20510779999995,None,,,,,,,,,,,,,,,,,,,,,,,,,,,,,,332.22280390000003,None,332.22280390000003,None,332.22280390000003,None,332.22280390000003,None,332.22280390000003,None,332.22280390000003,None,332.22280390000003,None,k,1,0.45368570000005093,332.22280390000003,None,,,,,,,,,,,,,9,001,2022_Oct_03_1306,Flanker,2021.2.0,239.68859657528722,
incongruent-right.jpg,0,k,left_arrow.png,left_arrow.png,left_arrow.png,right_arrow.png,left_arrow.png,left_arrow.png,left_arrow.png,,,,,,,,,,,,,1,5,11,3,,,,,332.6899294,None,,,,,,,,,,,,,,,,,,,,,,,,,,,,,,333.6992801,None,333.6992801,None,333.6992801,None,333.6992801,None,333.6992801,None,333.6992801,None,333.6992801,None,k,1,0.521253799999954,333.6992801,None,,,,,,,,,,,,,9,001,2022_Oct_03_1306,Flanker,2021.2.0,239.68859657528722,
incongruent-left.jpg,0,a,right_arrow.png,right_arrow.png,right_arrow.png,left_arrow.png,right_arrow.png,right_arrow.png,right_arrow.png,,,,,,,,,,,,,2,0,12,1,,,,,334.23316439999996,None,,,,,,,,,,,,,,,,,,,,,,,,,,,,,,335.2467404,None,335.2467404,None,335.2467404,None,335.2467404,None,335.2467404,None,335.2467404,None,335.2467404,None,a,1,0.5101604000000179,335.2467404,None,,,,,,,,,,,,,9,001,2022_Oct_03_1306,Flanker,2021.2.0,239.68859657528722,
congruent-left.jpg,1,a,left_arrow.png,left_arrow.png,left_arrow.png,left_arrow.png,left_arrow.png,left_arrow.png,left_arrow.png,,,,,,,,,,,,,2,1,13,0,,,,,335.77229090000003,None,,,,,,,,,,,,,,,,,,,,,,,,,,,,,,336.7857543,None,336.7857543,None,336.7857543,None,336.7857543,None,336.7857543,None,336.7857543,None,336.7857543,None,a,1,0.4433473999999933,336.7857543,None,,,,,,,,,,,,,9,001,2022_Oct_03_1306,Flanker,2021.2.0,239.68859657528722,
incongruent-left.jpg,0,a,right_arrow.png,right_arrow.png,right_arrow.png,left_arrow.png,right_arrow.png,right_arrow.png,right_arrow.png,,,,,,,,,,,,,2,2,14,1,,,,,337.24475040000004,None,,,,,,,,,,,,,,,,,,,,,,,,,,,,,,338.25417819999996,None,338.25417819999996,None,338.25417819999996,None,338.25417819999996,None,338.25417819999996,None,338.25417819999996,None,338.25417819999996,None,a,1,0.5511365999999498,338.25417819999996,None,,,,,,,,,,,,,9,001,2022_Oct_03_1306,Flanker,2021.2.0,239.68859657528722,
incongruent-left.jpg,0,a,right_arrow.png,right_arrow.png,right_arrow.png,left_arrow.png,right_arrow.png,right_arrow.png,right_arrow.png,,,,,,,,,,,,,2,3,15,1,,,,,338.8212771,None,,,,,,,,,,,,,,,,,,,,,,,,,,,,,,339.83078869999997,None,339.83078869999997,None,339.83078869999997,None,339.83078869999997,None,339.83078869999997,None,339.83078869999997,None,339.83078869999997,None,a,1,0.4866346999999678,339.83078869999997,None,,,,,,,,,,,,,9,001,2022_Oct_03_1306,Flanker,2021.2.0,239.68859657528722,
congruent-left.jpg,1,a,left_arrow.png,left_arrow.png,left_arrow.png,left_arrow.png,left_arrow.png,left_arrow.png,left_arrow.png,,,,,,,,,,,,,2,4,16,0,,,,,340.3311757,None,,,,,,,,,,,,,,,,,,,,,,,,,,,,,,341.3406919,None,341.3406919,None,341.3406919,None,341.3406919,None,341.3406919,None,341.3406919,None,341.3406919,None,a,1,0.4250787000000855,341.3406919,None,,,,,,,,,,,,,9,001,2022_Oct_03_1306,Flanker,2021.2.0,239.68859657528722,
congruent-left.jpg,1,a,left_arrow.png,left_arrow.png,left_arrow.png,left_arrow.png,left_arrow.png,left_arrow.png,left_arrow.png,,,,,,,,,,,,,2,5,17,0,,,,,341.78286089999995,None,,,,,,,,,,,,,,,,,,,,,,,,,,,,,,342.79225569999994,None,342.79225569999994,None,342.79225569999994,None,342.79225569999994,None,342.79225569999994,None,342.79225569999994,None,342.79225569999994,None,a,1,0.3895574000000579,342.79225569999994,None,,,,,,,,,,,,,9,001,2022_Oct_03_1306,Flanker,2021.2.0,239.68859657528722,
incongruent-left.jpg,0,a,right_arrow.png,right_arrow.png,right_arrow.png,left_arrow.png,right_arrow.png,right_arrow.png,right_arrow.png,,,,,,,,,,,,,3,0,18,1,,,,,343.1927522,None,,,,,,,,,,,,,,,,,,,,,,,,,,,,,,344.2102992,None,344.2102992,None,344.2102992,None,344.2102992,None,344.2102992,None,344.2102992,None,344.2102992,None,a,1,0.4676498999999694,344.2102992,None,,,,,,,,,,,,,9,001,2022_Oct_03_1306,Flanker,2021.2.0,239.68859657528722,
neutral right,0,k,neutral.png,neutral.png,neutral.png,right_arrow.png,neutral.png,neutral.png,neutral.png,,,,,,,,,,,,,3,1,19,5,,,,,344.6900942,None,,,,,,,,,,,,,,,,,,,,,,,,,,,,,,345.69948939999995,None,345.69948939999995,None,345.69948939999995,None,345.69948939999995,None,345.69948939999995,None,345.69948939999995,None,345.69948939999995,None,k,1,0.4428416000000652,345.69948939999995,None,,,,,,,,,,,,,9,001,2022_Oct_03_1306,Flanker,2021.2.0,239.68859657528722,
neutral left,0,a,neutral.png,neutral.png,neutral.png,left_arrow.png,neutral.png,neutral.png,neutral.png,,,,,,,,,,,,,3,2,20,4,,,,,346.15830070000004,None,,,,,,,,,,,,,,,,,,,,,,,,,,,,,,347.16772100000003,None,347.16772100000003,None,347.16772100000003,None,347.16772100000003,None,347.16772100000003,None,347.16772100000003,None,347.16772100000003,None,a,1,0.40698429999997643,347.16772100000003,None,,,,,,,,,,,,,9,001,2022_Oct_03_1306,Flanker,2021.2.0,239.68859657528722,
neutral left,0,a,neutral.png,neutral.png,neutral.png,left_arrow.png,neutral.png,neutral.png,neutral.png,,,,,,,,,,,,,3,3,21,4,,,,,347.59317369999997,None,,,,,,,,,,,,,,,,,,,,,,,,,,,,,,348.60241999999994,None,348.60241999999994,None,348.60241999999994,None,348.60241999999994,None,348.60241999999994,None,348.60241999999994,None,348.60241999999994,None,a,1,0.37211569999999483,348.60241999999994,None,,,,,,,,,,,,,9,001,2022_Oct_03_1306,Flanker,2021.2.0,239.68859657528722,
incongruent-right.jpg,0,k,left_arrow.png,left_arrow.png,left_arrow.png,right_arrow.png,left_arrow.png,left_arrow.png,left_arrow.png,,,,,,,,,,,,,3,4,22,3,,,,,348.98638029999995,None,,,,,,,,,,,,,,,,,,,,,,,,,,,,,,350.0038942,None,350.0038942,None,350.0038942,None,350.0038942,None,350.0038942,None,350.0038942,None,350.0038942,None,k,1,0.47484780000002047,350.0038942,None,,,,,,,,,,,,,9,001,2022_Oct_03_1306,Flanker,2021.2.0,239.68859657528722,
incongruent-right.jpg,0,k,left_arrow.png,left_arrow.png,left_arrow.png,right_arrow.png,left_arrow.png,left_arrow.png,left_arrow.png,,,,,,,,,,,,,3,5,23,3,,,,,350.49626449999994,None,,,,,,,,,,,,,,,,,,,,,,,,,,,,,,351.5055159,None,351.5055159,None,351.5055159,None,351.5055159,None,351.5055159,None,351.5055159,None,351.5055159,None,k,1,0.46146060000000944,351.5055159,None,,,,,,,,,,,,,9,001,2022_Oct_03_1306,Flanker,2021.2.0,239.68859657528722,
incongruent-left.jpg,0,a,right_arrow.png,right_arrow.png,right_arrow.png,left_arrow.png,right_arrow.png,right_arrow.png,right_arrow.png,,,,,,,,,,,,,4,0,24,1,,,,,351.98132669999995,None,,,,,,,,,,,,,,,,,,,,,,,,,,,,,,352.99475359999997,None,352.99475359999997,None,352.99475359999997,None,352.99475359999997,None,352.99475359999997,None,352.99475359999997,None,352.99475359999997,None,a,1,0.46838979999995445,352.99475359999997,None,,,,,,,,,,,,,9,001,2022_Oct_03_1306,Flanker,2021.2.0,239.68859657528722,
congruent-left.jpg,1,a,left_arrow.png,left_arrow.png,left_arrow.png,left_arrow.png,left_arrow.png,left_arrow.png,left_arrow.png,,,,,,,,,,,,,4,1,25,0,,,,,353.47865909999996,None,,,,,,,,,,,,,,,,,,,,,,,,,,,,,,354.48366009999995,None,354.48366009999995,None,354.48366009999995,None,354.48366009999995,None,354.48366009999995,None,354.48366009999995,None,354.48366009999995,None,a,1,0.47586389999992207,354.48366009999995,None,,,,,,,,,,,,,9,001,2022_Oct_03_1306,Flanker,2021.2.0,239.68859657528722,
neutral left,0,a,neutral.png,neutral.png,neutral.png,left_arrow.png,neutral.png,neutral.png,neutral.png,,,,,,,,,,,,,4,2,26,4,,,,,354.97600349999993,None,,,,,,,,,,,,,,,,,,,,,,,,,,,,,,355.9852396,None,355.9852396,None,355.9852396,None,355.9852396,None,355.9852396,None,355.9852396,None,355.9852396,None,a,1,0.3424142999999731,355.9852396,None,,,,,,,,,,,,,9,001,2022_Oct_03_1306,Flanker,2021.2.0,239.68859657528722,
neutral left,0,a,neutral.png,neutral.png,neutral.png,left_arrow.png,neutral.png,neutral.png,neutral.png,,,,,,,,,,,,,4,3,27,4,,,,,356.3442364,None,,,,,,,,,,,,,,,,,,,,,,,,,,,,,,357.3535025,None,357.3535025,None,357.3535025,None,357.3535025,None,357.3535025,None,357.3535025,None,357.3535025,None,a,1,0.3664162000000033,357.3535025,None,,,,,,,,,,,,,9,001,2022_Oct_03_1306,Flanker,2021.2.0,239.68859657528722,
incongruent-left.jpg,0,a,right_arrow.png,right_arrow.png,right_arrow.png,left_arrow.png,right_arrow.png,right_arrow.png,right_arrow.png,,,,,,,,,,,,,4,4,28,1,,,,,357.737339,None,,,,,,,,,,,,,,,,,,,,,,,,,,,,,,358.7466799,None,358.7466799,None,358.7466799,None,358.7466799,None,358.7466799,None,358.7466799,None,358.7466799,None,a,1,0.629248299999972,358.7466799,None,,,,,,,,,,,,,9,001,2022_Oct_03_1306,Flanker,2021.2.0,239.68859657528722,
incongruent-right.jpg,0,k,left_arrow.png,left_arrow.png,left_arrow.png,right_arrow.png,left_arrow.png,left_arrow.png,left_arrow.png,,,,,,,,,,,,,4,5,29,3,,,,,359.38903400000004,None,,,,,,,,,,,,,,,,,,,,,,,,,,,,,,360.3984037,None,360.3984037,None,360.3984037,None,360.3984037,None,360.3984037,None,360.3984037,None,360.3984037,None,a,0,0.4017796000000544,360.3984037,None,,,,,,,,,,,,,9,001,2022_Oct_03_1306,Flanker,2021.2.0,239.68859657528722,
neutral right,0,k,neutral.png,neutral.png,neutral.png,right_arrow.png,neutral.png,neutral.png,neutral.png,,,,,,,,,,,,,5,0,30,5,,,,,360.81550960000004,None,,,,,,,,,,,,,,,,,,,,,,,,,,,,,,361.8249147,None,361.8249147,None,361.8249147,None,361.8249147,None,361.8249147,None,361.8249147,None,361.8249147,None,k,1,0.43945610000002944,361.8249147,None,,,,,,,,,,,,,9,001,2022_Oct_03_1306,Flanker,2021.2.0,239.68859657528722,
congruent-right.jpg,1,k,right_arrow.png,right_arrow.png,right_arrow.png,right_arrow.png,right_arrow.png,right_arrow.png,right_arrow.png,,,,,,,,,,,,,5,1,31,2,,,,,362.27539679999995,None,,,,,,,,,,,,,,,,,,,,,,,,,,,,,,363.28466460000004,None,363.28466460000004,None,363.28466460000004,None,363.28466460000004,None,363.28466460000004,None,363.28466460000004,None,363.28466460000004,None,k,1,0.3878823000000011,363.28466460000004,None,,,,,,,,,,,,,9,001,2022_Oct_03_1306,Flanker,2021.2.0,239.68859657528722,
congruent-left.jpg,1,a,left_arrow.png,left_arrow.png,left_arrow.png,left_arrow.png,left_arrow.png,left_arrow.png,left_arrow.png,,,,,,,,,,,,,5,2,32,0,,,,,363.68529249999995,None,,,,,,,,,,,,,,,,,,,,,,,,,,,,,,364.6946256,None,364.6946256,None,364.6946256,None,364.6946256,None,364.6946256,None,364.6946256,None,364.6946256,None,a,1,0.5381355999999187,364.6946256,None,,,,,,,,,,,,,9,001,2022_Oct_03_1306,Flanker,2021.2.0,239.68859657528722,
congruent-left.jpg,1,a,left_arrow.png,left_arrow.png,left_arrow.png,left_arrow.png,left_arrow.png,left_arrow.png,left_arrow.png,,,,,,,,,,,,,5,3,33,0,,,,,365.24524310000004,None,,,,,,,,,,,,,,,,,,,,,,,,,,,,,,366.254604,None,366.254604,None,366.254604,None,366.254604,None,366.254604,None,366.254604,None,366.254604,None,a,1,0.5623919000000797,366.254604,None,,,,,,,,,,,,,9,001,2022_Oct_03_1306,Flanker,2021.2.0,239.68859657528722,
incongruent-right.jpg,0,k,left_arrow.png,left_arrow.png,left_arrow.png,right_arrow.png,left_arrow.png,left_arrow.png,left_arrow.png,,,,,,,,,,,,,5,4,34,3,,,,,366.83023219999995,None,,,,,,,,,,,,,,,,,,,,,,,,,,,,,,367.8395104,None,367.8395104,None,367.8395104,None,367.8395104,None,367.8395104,None,367.8395104,None,367.8395104,None,k,1,0.4896724999999833,367.8395104,None,,,,,,,,,,,,,9,001,2022_Oct_03_1306,Flanker,2021.2.0,239.68859657528722,
incongruent-right.jpg,0,k,left_arrow.png,left_arrow.png,left_arrow.png,right_arrow.png,left_arrow.png,left_arrow.png,left_arrow.png,,,,,,,,,,,,,5,5,35,3,,,,,368.3484913,None,,,,,,,,,,,,,,,,,,,,,,,,,,,,,,369.35824089999994,None,369.35824089999994,None,369.35824089999994,None,369.35824089999994,None,369.35824089999994,None,369.35824089999994,None,369.35824089999994,None,k,1,0.49930889999996,369.35824089999994,None,,,,,,,,,,,,,9,001,2022_Oct_03_1306,Flanker,2021.2.0,239.68859657528722,
congruent-right.jpg,1,k,right_arrow.png,right_arrow.png,right_arrow.png,right_arrow.png,right_arrow.png,right_arrow.png,right_arrow.png,,,,,,,,,,,,,6,0,36,2,,,,,369.875227,None,,,,,,,,,,,,,,,,,,,,,,,,,,,,,,370.88880800000004,None,370.88880800000004,None,370.88880800000004,None,370.88880800000004,None,370.88880800000004,None,370.88880800000004,None,370.88880800000004,None,k,1,0.5208041999999296,370.88880800000004,None,,,,,,,,,,,,,9,001,2022_Oct_03_1306,Flanker,2021.2.0,239.68859657528722,
incongruent-right.jpg,0,k,left_arrow.png,left_arrow.png,left_arrow.png,right_arrow.png,left_arrow.png,left_arrow.png,left_arrow.png,,,,,,,,,,,,,6,1,37,3,,,,,371.4226053,None,,,,,,,,,,,,,,,,,,,,,,,,,,,,,,372.4361729,None,372.4361729,None,372.4361729,None,372.4361729,None,372.4361729,None,372.4361729,None,372.4361729,None,k,1,0.45403559999999743,372.4361729,None,,,,,,,,,,,,,9,001,2022_Oct_03_1306,Flanker,2021.2.0,239.68859657528722,
neutral left,0,a,neutral.png,neutral.png,neutral.png,left_arrow.png,neutral.png,neutral.png,neutral.png,,,,,,,,,,,,,6,2,38,4,,,,,372.9032045,None,,,,,,,,,,,,,,,,,,,,,,,,,,,,,,373.912733,None,373.912733,None,373.912733,None,373.912733,None,373.912733,None,373.912733,None,373.912733,None,a,1,0.6652939000000515,373.912733,None,,,,,,,,,,,,,9,001,2022_Oct_03_1306,Flanker,2021.2.0,239.68859657528722,
congruent-right.jpg,1,k,right_arrow.png,right_arrow.png,right_arrow.png,right_arrow.png,right_arrow.png,right_arrow.png,right_arrow.png,,,,,,,,,,,,,6,3,39,2,,,,,374.59696310000004,None,,,,,,,,,,,,,,,,,,,,,,,,,,,,,,375.60619729999996,None,375.60619729999996,None,375.60619729999996,None,375.60619729999996,None,375.60619729999996,None,375.60619729999996,None,375.60619729999996,None,k,1,0.908266000000026,375.60619729999996,None,,,,,,,,,,,,,9,001,2022_Oct_03_1306,Flanker,2021.2.0,239.68859657528722,
neutral left,0,a,neutral.png,neutral.png,neutral.png,left_arrow.png,neutral.png,neutral.png,neutral.png,,,,,,,,,,,,,6,4,40,4,,,,,376.53220450000003,None,,,,,,,,,,,,,,,,,,,,,,,,,,,,,,377.54157280000004,None,377.54157280000004,None,377.54157280000004,None,377.54157280000004,None,377.54157280000004,None,377.54157280000004,None,377.54157280000004,None,a,1,0.452908500000035,377.54157280000004,None,,,,,,,,,,,,,9,001,2022_Oct_03_1306,Flanker,2021.2.0,239.68859657528722,
congruent-right.jpg,1,k,right_arrow.png,right_arrow.png,right_arrow.png,right_arrow.png,right_arrow.png,right_arrow.png,right_arrow.png,,,,,,,,,,,,,6,5,41,2,,,,,378.0086023,None,,,,,,,,,,,,,,,,,,,,,,,,,,,,,,379.0182036,None,379.0182036,None,379.0182036,None,379.0182036,None,379.0182036,None,379.0182036,None,379.0182036,None,k,1,0.3924744000000828,379.0182036,None,,,,,,,,,,,,,9,001,2022_Oct_03_1306,Flanker,2021.2.0,239.68859657528722,
neutral left,0,a,neutral.png,neutral.png,neutral.png,left_arrow.png,neutral.png,neutral.png,neutral.png,,,,,,,,,,,,,7,0,42,4,,,,,379.4267857,None,,,,,,,,,,,,,,,,,,,,,,,,,,,,,,380.43631959999993,None,380.43631959999993,None,380.43631959999993,None,380.43631959999993,None,380.43631959999993,None,380.43631959999993,None,380.43631959999993,None,a,1,0.3427447999999913,380.43631959999993,None,,,,,,,,,,,,,9,001,2022_Oct_03_1306,Flanker,2021.2.0,239.68859657528722,
incongruent-left.jpg,0,a,right_arrow.png,right_arrow.png,right_arrow.png,left_arrow.png,right_arrow.png,right_arrow.png,right_arrow.png,,,,,,,,,,,,,7,1,43,1,,,,,380.79502119999995,None,,,,,,,,,,,,,,,,,,,,,,,,,,,,,,381.8044741,None,381.8044741,None,381.8044741,None,381.8044741,None,381.8044741,None,381.8044741,None,381.8044741,None,a,1,0.4789375000000291,381.8044741,None,,,,,,,,,,,,,9,001,2022_Oct_03_1306,Flanker,2021.2.0,239.68859657528722,
congruent-left.jpg,1,a,left_arrow.png,left_arrow.png,left_arrow.png,left_arrow.png,left_arrow.png,left_arrow.png,left_arrow.png,,,,,,,,,,,,,7,2,44,0,,,,,382.29665969999996,None,,,,,,,,,,,,,,,,,,,,,,,,,,,,,,383.30599069999994,None,383.30599069999994,None,383.30599069999994,None,383.30599069999994,None,383.30599069999994,None,383.30599069999994,None,383.30599069999994,None,a,1,0.4254991999999902,383.30599069999994,None,,,,,,,,,,,,,9,001,2022_Oct_03_1306,Flanker,2021.2.0,239.68859657528722,
neutral right,0,k,neutral.png,neutral.png,neutral.png,right_arrow.png,neutral.png,neutral.png,neutral.png,,,,,,,,,,,,,7,3,45,5,,,,,383.7481712,None,,,,,,,,,,,,,,,,,,,,,,,,,,,,,,384.76176039999996,None,384.76176039999996,None,384.76176039999996,None,384.76176039999996,None,384.76176039999996,None,384.76176039999996,None,384.76176039999996,None,k,1,0.39374369999995906,384.76176039999996,None,,,,,,,,,,,,,9,001,2022_Oct_03_1306,Flanker,2021.2.0,239.68859657528722,
congruent-right.jpg,1,k,right_arrow.png,right_arrow.png,right_arrow.png,right_arrow.png,right_arrow.png,right_arrow.png,right_arrow.png,,,,,,,,,,,,,7,4,46,2,,,,,385.1706355,None,,,,,,,,,,,,,,,,,,,,,,,,,,,,,,386.1842236,None,386.1842236,None,386.1842236,None,386.1842236,None,386.1842236,None,386.1842236,None,386.1842236,None,k,1,0.44346330000007583,386.1842236,None,,,,,,,,,,,,,9,001,2022_Oct_03_1306,Flanker,2021.2.0,239.68859657528722,
incongruent-left.jpg,0,a,right_arrow.png,right_arrow.png,right_arrow.png,left_arrow.png,right_arrow.png,right_arrow.png,right_arrow.png,,,,,,,,,,,,,7,5,47,1,,,,,386.64277400000003,None,,,,,,,,,,,,,,,,,,,,,,,,,,,,,,387.6521901,None,387.6521901,None,387.6521901,None,387.6521901,None,387.6521901,None,387.6521901,None,387.6521901,None,a,1,0.5361014000000068,387.6521901,None,,,,,,,,,,,,,9,001,2022_Oct_03_1306,Flanker,2021.2.0,239.68859657528722,
,,,,,,,,,,,,,,,,,,,,,,,,,,,,,,,,,,,,,,,,,,,,,,,,,,,,,,,,,,,,,,,,,,,,,,,,,,,,,,,,388.21527549999996,None,space,7.605684900000028,388.21527549999996,None,,,,,,,9,001,2022_Oct_03_1306,Flanker,2021.2.0,239.68859657528722,
,,,,,,,,,,,,,,,,,,,,,,,,,,,,,,,,,,,,,,,,,,,,,,,,,,,,,,,,,,,,,,,,,,,,,,,,,,,,,,,,,,,,,,395.83169929999997,None,space,5.493995499999983,395.83169929999997,None,9,001,2022_Oct_03_1306,Flanker,2021.2.0,239.68859657528722,
